seconds_elapsed,location_latitude,location_longitude,location_local_time,accelerometer_z,accelerometer_y_new,accelerometer_x_new,L2_norm
1,44.940106,-93.16725,2025-03-14T02:36:15Z,0.095533,0.00638,1.024505,1.0289692675264892
2,44.940115,-93.167259,2025-03-14T02:36:16Z,0.316268,-0.016277,-0.069752,0.32427724258263946
3,44.940116,-93.167346,2025-03-14T02:36:17Z,0.468113,0.116736,-0.307948,0.5723539509508081
4,44.940116,-93.16742,2025-03-14T02:36:18Z,0.393341,0.074664,-0.539035,0.6714540836140622
5,44.940116,-93.167513,2025-03-14T02:36:19Z,0.318095,0.045798,-0.700374,0.7705878442494406
6,44.940115,-93.167613,2025-03-14T02:36:20Z,0.132001,-0.115056,-0.536745,0.5645859918223264
7,44.940115,-93.167726,2025-03-14T02:36:21Z,-0.327442,-0.051097,-0.477043,0.5808607325529933
8,44.940115,-93.167838,2025-03-14T02:36:22Z,-0.543511,-0.152022,-0.287232,0.6332591234471083
9,44.940115,-93.167957,2025-03-14T02:36:23Z,-0.619941,-0.202553,-0.273573,0.7072458890788973
10,44.940115,-93.16807,2025-03-14T02:36:24Z,-1.008688,-0.254194,-0.010753,1.0402796249033237
11,44.940115,-93.168183,2025-03-14T02:36:25Z,-0.500706,-0.268314,-0.099369,0.5766915112891813
12,44.940116,-93.168292,2025-03-14T02:36:26Z,-0.32293,-0.057957,-0.183132,0.3757394418649711
13,44.940116,-93.168406,2025-03-14T02:36:27Z,-0.141581,-0.087669,-0.17128,0.2388888266997852
14,44.940116,-93.168514,2025-03-14T02:36:28Z,0.080653,-0.032385,-0.207057,0.22455800115560343
15,44.940116,-93.16864,2025-03-14T02:36:29Z,0.142116,0.03785,-0.282625,0.31860080128744184
16,44.940116,-93.168742,2025-03-14T02:36:30Z,0.069626,0.023998,-0.35444,0.36201021736962063
17,44.940117,-93.168884,2025-03-14T02:36:31Z,0.02398,-0.044776,-0.1966,0.20305538795116962
18,44.940117,-93.169051,2025-03-14T02:36:32Z,-0.185586,-0.011076,-0.177943,0.2573490866915987
19,44.940118,-93.169184,2025-03-14T02:36:33Z,-0.10759,-0.125342,-0.110265,0.19860663455433708
20,44.940119,-93.16933,2025-03-14T02:36:34Z,-0.233966,0.095242,-0.018615,0.2532935963363464
21,44.94012,-93.169485,2025-03-14T02:36:35Z,-0.256442,-0.062981,-0.052077,0.26914888009055504
22,44.94012,-93.16964,2025-03-14T02:36:36Z,-0.223306,-0.093066,0.071547,0.25228123830558624
23,44.94012,-93.169799,2025-03-14T02:36:37Z,-0.287665,-0.212964,0.070438,0.364782578209267
24,44.940121,-93.169984,2025-03-14T02:36:38Z,-0.274256,-0.08086,-0.046838,0.2897386604856176
25,44.940121,-93.17014,2025-03-14T02:36:39Z,-0.167161,-0.044521,0.046084,0.1790213797790644
26,44.940122,-93.170279,2025-03-14T02:36:40Z,-0.051428,-0.064193,-0.008543,0.08269560618315824
27,44.940122,-93.170422,2025-03-14T02:36:41Z,-0.20934,-0.152114,0.008761,0.25891824909998135
28,44.940123,-93.170579,2025-03-14T02:36:42Z,-0.155393,-0.063123,0.093301,0.19192856530230198
29,44.940123,-93.170729,2025-03-14T02:36:43Z,-0.24663,-0.106824,-0.025133,0.2699433117619327
30,44.940123,-93.170882,2025-03-14T02:36:44Z,-0.129242,-0.040253,0.077686,0.1560734223658852
31,44.940123,-93.171037,2025-03-14T02:36:45Z,-0.251555,-0.065248,0.080749,0.272135298206609
32,44.94014,-93.171193,2025-03-14T02:36:46Z,-0.245624,-0.044284,-0.08072,0.2623126768419704
33,44.940126,-93.171372,2025-03-14T02:36:47Z,-0.177968,-0.117467,0.014922,0.21376101421213362
34,44.940129,-93.171529,2025-03-14T02:36:48Z,-0.067602,-8.66e-4,0.098017,0.11907188017747934
35,44.94013,-93.171693,2025-03-14T02:36:49Z,-0.190683,-0.00366,0.018544,0.19161754101595185
36,44.940135,-93.171832,2025-03-14T02:36:50Z,-0.007528,-0.114856,-0.04574,0.12385765668702117
37,44.940136,-93.171987,2025-03-14T02:36:51Z,0.048634,-0.001071,-0.016178,0.051265394575678434
38,44.940137,-93.172139,2025-03-14T02:36:52Z,-0.112947,0.01802,0.120569,0.1661885344119744
39,44.940138,-93.172292,2025-03-14T02:36:53Z,0.033621,-0.18141,-0.049918,0.1911328503031334
40,44.940139,-93.172445,2025-03-14T02:36:54Z,-0.079869,0.182728,0.045725,0.20459558834442154
41,44.940139,-93.172598,2025-03-14T02:36:55Z,0.013722,-0.155735,-0.020678,0.15769991500631828
42,44.940139,-93.172752,2025-03-14T02:36:56Z,-0.023068,-0.03491,0.095517,0.10428009404004199
43,44.940131,-93.172906,2025-03-14T02:36:57Z,-0.022393,0.143084,0.07236,0.16189640856115367
44,44.940109,-93.173053,2025-03-14T02:36:58Z,-0.066686,-0.173542,0.053273,0.19339560721226323
45,44.940136,-93.173209,2025-03-14T02:36:59Z,-0.072659,-0.020159,-0.023469,0.07897157414538473
46,44.940136,-93.173358,2025-03-14T02:37:00Z,-0.014483,0.039917,-3.8e-4,0.04246490996104902
47,44.940137,-93.173507,2025-03-14T02:37:01Z,0.058992,-0.13793,0.033382,0.1536850639717471
48,44.940138,-93.173658,2025-03-14T02:37:02Z,0.172924,0.056255,0.111973,0.21355394524569196
49,44.940138,-93.173797,2025-03-14T02:37:03Z,0.011664,0.035161,-0.007587,0.037814116226615686
50,44.940142,-93.173947,2025-03-14T02:37:04Z,0.167056,-0.103402,-0.032334,0.19911094469164672
51,44.940132,-93.174105,2025-03-14T02:37:05Z,0.142436,0.021211,-0.031412,0.14739278937926376
52,44.940136,-93.174253,2025-03-14T02:37:06Z,0.107659,-0.048189,3.1e-5,0.11795185866700025
53,44.940138,-93.174406,2025-03-14T02:37:07Z,0.248707,-0.101436,-0.041214,0.2717407362560866
54,44.940139,-93.174562,2025-03-14T02:37:08Z,0.194363,0.038219,-0.109097,0.2261411575520918
55,44.940127,-93.174722,2025-03-14T02:37:09Z,0.062759,0.029194,0.003685,0.06931494025100217
56,44.940127,-93.17488,2025-03-14T02:37:10Z,-0.042396,-0.042173,-0.013338,0.061268956160522275
57,44.940128,-93.175034,2025-03-14T02:37:11Z,0.053423,-0.029357,0.142536,0.15502374551661433
58,44.940128,-93.175176,2025-03-14T02:37:12Z,-0.057574,-0.063411,0.011024,0.08635536447146755
59,44.940129,-93.175345,2025-03-14T02:37:13Z,-0.077657,-0.010338,0.073643,0.10752104604215865
60,44.940135,-93.175504,2025-03-14T02:37:14Z,-0.208456,-0.129844,0.123885,0.2750651949938414
61,44.94014,-93.175667,2025-03-14T02:37:15Z,-0.260382,-0.116438,0.183967,0.33941191914398056
62,44.940141,-93.175823,2025-03-14T02:37:16Z,-0.453387,-0.081508,0.1807,0.494829077392386
63,44.940145,-93.175968,2025-03-14T02:37:17Z,-0.301526,-0.093154,0.149441,0.3491822001090548
64,44.940143,-93.176111,2025-03-14T02:37:18Z,-0.196658,-0.073457,0.092371,0.2293527881975713
65,44.940141,-93.176249,2025-03-14T02:37:19Z,-0.315223,-0.138439,0.151984,0.3763376578366826
66,44.940144,-93.176385,2025-03-14T02:37:20Z,-0.39852,-0.09827,0.172103,0.44507822448306766
67,44.940137,-93.176515,2025-03-14T02:37:21Z,-0.936891,-0.294767,0.27414,1.0197083258314605
68,44.940142,-93.176633,2025-03-14T02:37:22Z,-0.377866,-0.125727,0.202653,0.446831322642001
69,44.940147,-93.176729,2025-03-14T02:37:23Z,0.06759,0.040642,-0.075751,0.10935444327963999
70,44.940145,-93.176828,2025-03-14T02:37:24Z,-0.026483,-0.067193,0.086687,0.1128312213308001
71,44.940148,-93.176929,2025-03-14T02:37:25Z,-0.632314,-0.17760600000000001,0.254648,0.7044220962860266
72,44.940132,-93.177016,2025-03-14T02:37:26Z,-0.267678,-0.302469,0.52259,0.6604841525313079
73,44.940132,-93.177089,2025-03-14T02:37:27Z,-0.320751,0.194255,1.392642,1.44224406713635
1,44.94008,-93.176963,2025-03-14T02:26:14Z,0.440824,0.034748,-0.178781,0.4769652696381572
2,44.94009,-93.176903,2025-03-14T02:26:15Z,0.804568,0.15687,0.187071,0.8407933292819347
3,44.940091,-93.176807,2025-03-14T02:26:16Z,0.424694,0.225765,0.199775,0.5208117505260418
4,44.940092,-93.176704,2025-03-14T02:26:17Z,0.310737,-4.58e-4,0.240246,0.39277962453391085
5,44.940092,-93.17659,2025-03-14T02:26:18Z,0.192127,0.138558,0.453808,0.5119109340080557
6,44.940093,-93.176479,2025-03-14T02:26:19Z,-0.070255,-0.018311,0.526528,0.5315099176214871
7,44.940096,-93.176359,2025-03-14T02:26:20Z,-0.17166,-0.093356,0.23641,0.3067118948394405
8,44.940096,-93.176233,2025-03-14T02:26:21Z,-0.068087,-0.021992,0.474869,0.4802291690370338
9,44.940097,-93.176104,2025-03-14T02:26:22Z,-0.167304,-0.011971,0.601914,0.6248474987170869
10,44.940094,-93.175975,2025-03-14T02:26:23Z,-0.34344,-0.104909,0.559845,0.6651190539339555
11,44.94008,-93.175847,2025-03-14T02:26:24Z,-0.178107,-0.103632,0.320739,0.381228541683332
12,44.940094,-93.17571,2025-03-14T02:26:25Z,-0.095467,0.092787,0.276956,0.3072913949234504
13,44.940093,-93.175576,2025-03-14T02:26:26Z,-0.132319,-0.230264,0.36378,0.4504061676498225
14,44.940095,-93.17544,2025-03-14T02:26:27Z,-0.259483,0.027308,0.115676,0.2854086388478807
15,44.940082,-93.175317,2025-03-14T02:26:28Z,-0.306302,-0.142659,0.381783,0.5098340559181977
16,44.940083,-93.175181,2025-03-14T02:26:29Z,-0.26802,-0.135,0.185677,0.35289611605825305
17,44.940078,-93.175038,2025-03-14T02:26:30Z,-0.163717,-0.017003,0.24687,0.29671055761128556
18,44.940089,-93.174903,2025-03-14T02:26:31Z,-0.157559,-0.105128,0.090299,0.2098348023231609
19,44.94009,-93.174761,2025-03-14T02:26:32Z,-0.197426,-0.010148,0.351325,0.4031243765948668
20,44.940091,-93.174627,2025-03-14T02:26:33Z,-0.043348,-0.145324,0.259945,0.3009476982882574
21,44.94009,-93.174492,2025-03-14T02:26:34Z,-0.085267,0.060792,0.02868,0.10857564622418786
22,44.940089,-93.174353,2025-03-14T02:26:35Z,0.243468,-0.02179,0.064238,0.2527409578362795
23,44.940089,-93.174207,2025-03-14T02:26:36Z,0.157858,-0.05848,0.063697,0.17998990630865944
24,44.940092,-93.174064,2025-03-14T02:26:37Z,0.316507,-0.149006,0.139438,0.37659318226569105
25,44.94009,-93.173919,2025-03-14T02:26:38Z,-0.063973,0.030974,0.126074,0.1447293573571029
26,44.94009,-93.173763,2025-03-14T02:26:39Z,-0.070311,-0.010102999999999999,0.095808,0.11926810216482864
27,44.940087,-93.173607,2025-03-14T02:26:40Z,0.042965,-0.055768,0.041513,0.08172753647333315
28,44.940091,-93.173458,2025-03-14T02:26:41Z,-0.075939,-0.060422,0.213819,0.23481080589700296
29,44.940076,-93.1733,2025-03-14T02:26:42Z,-0.001286,-0.008818,0.180048,0.18026839219341811
30,44.94009,-93.173145,2025-03-14T02:26:43Z,0.132035,0.017404,0.064639,0.14803493088457198
31,44.940076,-93.172986,2025-03-14T02:26:44Z,-0.119818,-0.089781,-0.064181,0.1628992997099742
32,44.940076,-93.172829,2025-03-14T02:26:45Z,0.167749,0.06798,0.074971,0.19591237388689875
33,44.940076,-93.17265,2025-03-14T02:26:46Z,-0.343095,-0.169113,0.106609,0.39708798102561604
34,44.940089,-93.172483,2025-03-14T02:26:47Z,-0.121333,-0.142862,0.105767,0.21521595252675857
35,44.940085,-93.172321,2025-03-14T02:26:48Z,0.027473,0.020282,0.23933,0.24175395374843406
36,44.94008,-93.172168,2025-03-14T02:26:49Z,-0.095248,-0.114045,0.130385,0.19768331177416065
37,44.940082,-93.172002,2025-03-14T02:26:50Z,-0.133311,0.040446,0.134266,0.1934814213122283
38,44.94008,-93.171846,2025-03-14T02:26:51Z,-0.01466,-0.104383,0.044587,0.11444966954080733
39,44.940077,-93.171688,2025-03-14T02:26:52Z,-0.186887,-0.004044,-0.041765,0.1915396040770681
40,44.940079,-93.171529,2025-03-14T02:26:53Z,-0.086311,-0.189186,0.035202,0.21090308703525418
41,44.940079,-93.171372,2025-03-14T02:26:54Z,-0.221653,0.126667,0.052388,0.26061290037525003
42,44.940087,-93.171214,2025-03-14T02:26:55Z,-0.286995,-0.099493,0.11694,0.32548417883823477
43,44.940087,-93.17107,2025-03-14T02:26:56Z,0.019822,-0.050633,0.177442,0.18558630266536372
44,44.940073,-93.170927,2025-03-14T02:26:57Z,-0.132686,-0.100878,0.145476,0.2212356482486491
45,44.940079,-93.17077,2025-03-14T02:26:58Z,-0.305935,-0.04982,-0.004005,0.30999080091189807
46,44.940079,-93.170627,2025-03-14T02:26:59Z,-0.10977,-0.114012,0.03953,0.16312820094637223
47,44.94008,-93.170489,2025-03-14T02:27:00Z,0.040556,0.057468,0.06445,0.09540001394129877
48,44.940084,-93.170349,2025-03-14T02:27:01Z,0.111839,-0.046398,-0.031166,0.12502822033844999
49,44.940082,-93.170204,2025-03-14T02:27:02Z,0.104417,-0.020703,0.02258,0.1088181073994581
50,44.940081,-93.170065,2025-03-14T02:27:03Z,-0.050231,0.037038,0.03797,0.07305263653695189
51,44.940081,-93.169927,2025-03-14T02:27:04Z,0.155341,0.037597,0.039955,0.16474453773949532
52,44.940082,-93.169786,2025-03-14T02:27:05Z,0.191521,-0.056075,0.024656,0.20107863487203206
53,44.940083,-93.169645,2025-03-14T02:27:06Z,-0.259108,-0.053808,0.022008,0.265549634893366
54,44.940083,-93.169507,2025-03-14T02:27:07Z,-0.257086,-0.09885,0.087833,0.2891006222494168
55,44.940081,-93.169378,2025-03-14T02:27:08Z,-0.068141,0.079598,0.100169,0.14495815274071341
56,44.940082,-93.169249,2025-03-14T02:27:09Z,0.238851,0.003157,-0.057692,0.2457399717465598
57,44.940079,-93.169114,2025-03-14T02:27:10Z,0.264382,0.049928,-0.110913,0.29101948504696384
58,44.940077,-93.168985,2025-03-14T02:27:11Z,0.163957,0.076287,0.177538,0.25341930798974255
59,44.94008,-93.168853,2025-03-14T02:27:12Z,0.217485,-0.006003,-0.03285,0.22003382406802824
60,44.940078,-93.168715,2025-03-14T02:27:13Z,0.186913,0.004567,-0.077665,0.2024578456938629
61,44.940076,-93.168581,2025-03-14T02:27:14Z,0.149671,0.021155,-0.111978,0.18811702408341463
62,44.940069,-93.168453,2025-03-14T02:27:15Z,0.082489,0.034779,-0.009215,0.08999405639818665
63,44.940061,-93.1683,2025-03-14T02:27:16Z,-0.408528,-0.128517,0.067717,0.43358659822692863
64,44.940075,-93.168178,2025-03-14T02:27:17Z,-0.404589,-0.151161,0.141746,0.45456994550673935
65,44.940077,-93.168054,2025-03-14T02:27:18Z,-0.567341,-0.177112,0.205182,0.6287639652119068
66,44.940074,-93.167943,2025-03-14T02:27:19Z,-0.500057,-0.179423,0.106278,0.5417975908602769
67,44.940078,-93.167842,2025-03-14T02:27:20Z,-0.37397,-0.115051,-0.191708,0.4357089059968823
68,44.940082,-93.167745,2025-03-14T02:27:21Z,-0.314389,-0.118399,-0.172616,0.37769703464284704
69,44.940065,-93.167654,2025-03-14T02:27:22Z,-0.188904,-0.075895,0.139979,0.2470605040916091
70,44.940066,-93.167564,2025-03-14T02:27:23Z,-0.097806,-0.057031,0.337888,0.3563521420463191
71,44.940066,-93.167483,2025-03-14T02:27:24Z,-0.267207,-0.126444,0.270452,0.40066438610013744
72,44.940082,-93.16741,2025-03-14T02:27:25Z,-0.675914,-0.232544,0.350709,0.7961992527081396
73,44.94008,-93.167351,2025-03-14T02:27:26Z,-0.771891,-0.245346,0.323097,0.8720103479924994
74,44.940078,-93.167309,2025-03-14T02:27:27Z,-0.962295,-0.291932,0.333424,1.0594373617279127
1,44.941299,-93.167213,2025-03-14T02:04:01Z,0.511285,0.235629,1.527267,1.6277216795739375
2,44.941226,-93.167141,2025-03-14T02:04:02Z,0.782905,0.179256,0.652776,1.0349828301653123
3,44.941169,-93.167123,2025-03-14T02:04:03Z,0.477986,0.066206,-0.308929,0.572966820743575
4,44.941112,-93.167122,2025-03-14T02:04:04Z,0.308819,0.040342,-0.363667,0.4788009384013361
5,44.941055,-93.167123,2025-03-14T02:04:05Z,0.292693,0.082628,-0.258695,0.3992739431242665
6,44.940992,-93.167125,2025-03-14T02:04:07Z,0.141696,-0.010662,-0.315342,0.34587860821970473
7,44.940923,-93.167125,2025-03-14T02:04:08Z,-0.027819,-0.083111,-0.235436,0.2512199139757834
8,44.940848,-93.167122,2025-03-14T02:04:09Z,-0.335662,-0.062405,-0.079717,0.35059686587019
9,44.940774,-93.167124,2025-03-14T02:04:10Z,-0.741569,-0.20538,-0.065209,0.7722420215463544
10,44.940702,-93.167124,2025-03-14T02:04:11Z,-0.747187,-0.193502,0.017259,0.7720293453321578
11,44.940636,-93.167128,2025-03-14T02:04:12Z,-0.702603,-0.288626,0.059346,0.7618909969286946
12,44.940567,-93.167118,2025-03-14T02:04:13Z,-0.935268,-0.274964,0.080632,0.9781783848276346
13,44.9405,-93.167108,2025-03-14T02:04:14Z,-1.213934,-0.280579,0.216617,1.264627714501782
14,44.940446,-93.167111,2025-03-14T02:04:15Z,-1.22189,-0.412195,0.127254,1.295806108428649
15,44.940402,-93.167111,2025-03-14T02:04:16Z,-1.197697,-0.37279,0.230422,1.275360649382362
16,44.940373,-93.167109,2025-03-14T02:04:17Z,-1.265749,-0.370735,0.212059,1.3358645106098896
17,44.94034,-93.167108,2025-03-14T02:04:18Z,-0.865792,-0.253251,0.131214,0.9115640241151468
18,44.940335,-93.167117,2025-03-14T02:04:19Z,-0.470723,-0.15607,0.029428,0.49679371454659127
19,44.940335,-93.167121,2025-03-14T02:04:20Z,-0.258299,-0.095767,-0.013135,0.27579379963117373
20,44.940333,-93.167125,2025-03-14T02:04:21Z,-0.267763,-0.09712,-0.006955,0.2849169889529229
21,44.940329,-93.167129,2025-03-14T02:04:22Z,-0.162823,-0.066502,-0.021683,0.17721173161503725
22,44.940327,-93.167132,2025-03-14T02:04:23Z,-0.073398,-0.043053,-0.040194,0.09410836758227188
23,44.940328,-93.167135,2025-03-14T02:04:24Z,0.094965,0.004078,-0.065919,0.11567322883882857
24,44.940334,-93.167136,2025-03-14T02:04:25Z,0.17593,0.026941,-0.090302,0.1995786401020911
25,44.940333,-93.167137,2025-03-14T02:04:26Z,0.190624,0.031243,-0.095301,0.21539711006882148
26,44.940333,-93.167137,2025-03-14T02:04:27Z,0.199782,0.034025,-0.080437,0.2180382056383697
27,44.940332,-93.167137,2025-03-14T02:04:28Z,0.197627,0.034255,-0.079732,0.21584028349221562
28,44.940331,-93.167137,2025-03-14T02:04:29Z,0.204308,0.036645,-0.073818,0.22030368134236886
29,44.940332,-93.167138,2025-03-14T02:04:30Z,0.450714,0.10448,-0.138977,0.4830877629634185
30,44.940333,-93.167134,2025-03-14T02:04:31Z,0.613181,0.135549,-0.175764,0.6521176687209141
31,44.940332,-93.167132,2025-03-14T02:04:32Z,1.562814,0.395152,-0.43982,1.6709202057848245
32,44.940322,-93.167131,2025-03-14T02:04:33Z,1.510088,0.393266,-0.385603,1.6073934142296964
33,44.94027,-93.167114,2025-03-14T02:04:34Z,1.021906,0.274443,-0.283696,1.0954881348061238
34,44.940226,-93.167113,2025-03-14T02:04:35Z,0.967426,0.254655,-0.232598,1.0270657545186677
35,44.940174,-93.167111,2025-03-14T02:04:36Z,0.786161,0.142538,-0.211621,0.826528672827507
36,44.940117,-93.16711,2025-03-14T02:04:37Z,0.852385,0.139582,-0.194814,0.88543538304328
37,44.940049,-93.167111,2025-03-14T02:04:38Z,0.668234,0.062754,-0.364892,0.7639508589798168
38,44.939969,-93.167109,2025-03-14T02:04:39Z,0.158136,0.237016,0.052044,0.28964142778269825
39,44.939884,-93.167113,2025-03-14T02:04:40Z,0.38266,0.073885,-0.098614,0.4020104349653128
40,44.939795,-93.167113,2025-03-14T02:04:41Z,0.342048,0.051634,-0.073175,0.35357811709012765
41,44.939729,-93.167143,2025-03-14T02:04:41Z,0.144079,0.084299,-0.108934,0.19932811140930423
42,44.939604,-93.167137,2025-03-14T02:04:42Z,0.212598,0.047331,0.013597,0.21822697260879556
43,44.939491,-93.167139,2025-03-14T02:04:43Z,0.068421,-0.042268,0.021895,0.08335111330990126
44,44.939374,-93.16714,2025-03-14T02:04:44Z,-0.126311,0.013231,0.018331,0.12831817347125854
45,44.939252,-93.167141,2025-03-14T02:04:45Z,-0.16139,-0.116636,0.021829,0.20031773220810983
46,44.939125,-93.167137,2025-03-14T02:04:46Z,-0.158224,-0.075923,0.154203,0.23361870925505945
47,44.938994,-93.167136,2025-03-14T02:04:47Z,-0.194649,-0.028308,0.13188,0.23681619552935984
48,44.938867,-93.167131,2025-03-14T02:04:48Z,-0.365379,-0.112502,0.009499,0.38242482221477203
49,44.938737,-93.167133,2025-03-14T02:04:49Z,-0.153776,-0.083431,0.048897,0.18165546109599898
50,44.938594,-93.167136,2025-03-14T02:04:50Z,-0.235769,-0.074073,0.076411,0.2586744510209696
51,44.938463,-93.167134,2025-03-14T02:04:51Z,-0.17059,-0.065151,0.102525,0.20942057331121983
52,44.938326000000004,-93.167132,2025-03-14T02:04:52Z,-0.477785,-0.121549,0.1693,0.5212630388067045
53,44.938224,-93.167125,2025-03-14T02:04:53Z,-0.82522,-0.215899,0.269235,0.894476333854619
54,44.938064,-93.167119,2025-03-14T02:04:54Z,-0.804092,-0.32532,0.265703,0.9071907908885539
55,44.937935,-93.167122,2025-03-14T02:04:55Z,-0.469183,-0.341408,0.218506,0.6200298234673878
56,44.937812,-93.167119,2025-03-14T02:04:56Z,-0.415491,-0.188619,0.062986,0.46062689287318
57,44.937688,-93.167121,2025-03-14T02:04:57Z,-0.456209,-0.183915,0.154868,0.5156893215202347
58,44.937567,-93.167115,2025-03-14T02:04:58Z,-0.357673,-0.127732,0.19961,0.42905662895822977
59,44.937445,-93.167121,2025-03-14T02:04:59Z,-0.246527,-0.085898,0.297034,0.3954531897570179
60,44.937323,-93.167123,2025-03-14T02:05:00Z,-0.177333,0.005524,0.064124,0.1886515169326767
61,44.937206,-93.167125,2025-03-14T02:05:01Z,-0.042205,-0.028934,-0.09261,0.10580666557925357
62,44.93708,-93.167127,2025-03-14T02:05:02Z,0.16459,-0.104413,-0.031254,0.19740505359539304
63,44.936952,-93.167124,2025-03-14T02:05:03Z,0.156997,0.166221,-0.09826,0.2488624247450788
64,44.936822,-93.167127,2025-03-14T02:05:04Z,0.087768,-0.087485,0.067736,0.14122681312342922
65,44.936687,-93.167125,2025-03-14T02:05:05Z,0.161926,0.071804,0.036535,0.18086085844372185
66,44.93655,-93.167127,2025-03-14T02:05:06Z,0.041325,-0.028958,0.043266,0.06647005449824755
67,44.936414,-93.167119,2025-03-14T02:05:07Z,-0.326942,-0.119261,0.091745,0.3599047130977865
68,44.936277,-93.167122,2025-03-14T02:05:08Z,-0.268604,-0.109141,0.00388,0.28995675728804804
69,44.936135,-93.167114,2025-03-14T02:05:09Z,-0.172425,0.025049,0.131588,0.21834201329565503
70,44.936009,-93.167117,2025-03-14T02:05:10Z,-0.031571,-0.214875,0.128017,0.2521038396276423
71,44.935874,-93.167114,2025-03-14T02:05:11Z,-0.085211,0.089878,0.013931,0.12463162586598957
72,44.935741,-93.167117,2025-03-14T02:05:12Z,0.114511,-0.02017,0.079353,0.14077107881237538
73,44.935605,-93.167117,2025-03-14T02:05:13Z,0.050127,-0.007676,0.069787,0.08626623020626321
74,44.935467,-93.167117,2025-03-14T02:05:14Z,-0.183522,-0.072998,0.030264,0.19981226735113136
75,44.935327,-93.167119,2025-03-14T02:05:15Z,-0.527555,-0.167308,0.217807,0.594765612773637
76,44.935197,-93.167121,2025-03-14T02:05:16Z,-0.835358,-0.236586,0.213296,0.894030820036983
77,44.935071,-93.167127,2025-03-14T02:05:17Z,-0.960932,-0.294538,0.338418,1.0605044482660129
78,44.934953,-93.167121,2025-03-14T02:05:18Z,-1.228565,-0.352162,0.42166,1.3458035477249268
79,44.934849,-93.167125,2025-03-14T02:05:19Z,-1.325386,-0.385893,0.371621,1.429567635366022
80,44.934758,-93.16713,2025-03-14T02:05:20Z,-1.326118,-0.38247,0.400007,1.4369682845745064
81,44.934681,-93.167129,2025-03-14T02:05:21Z,-1.030457,-0.38755,0.338486,1.1517853113948797
82,44.934617,-93.167123,2025-03-14T02:05:22Z,-0.547019,-0.040124,0.118745,0.5611952394327665
83,44.934553,-93.167118,2025-03-14T02:05:23Z,-0.78228,-0.250297,0.252682,0.8593362436980068
84,44.934519,-93.167111,2025-03-14T02:05:24Z,-0.639852,-0.182649,0.166288,0.6858738499527446
85,44.934498,-93.167121,2025-03-14T02:05:25Z,-0.685888,-0.209137,0.228928,0.7527208396856035
86,44.934483,-93.16712,2025-03-14T02:05:26Z,-0.095967,-0.008364,0.052135,0.10953392081907777
87,44.934474,-93.167122,2025-03-14T02:05:27Z,0.082171,0.03384,0.014062,0.0899719883352591
2,44.941081,-93.167054,2025-03-14T02:09:27Z,-0.41024,-0.137785,-0.414908,0.5995249888778615
3,44.940979,-93.167054,2025-03-14T02:09:28Z,-0.712307,-0.153049,-0.203872,0.7565507590598267
4,44.940888,-93.167047,2025-03-14T02:09:29Z,-0.86064,-0.272233,-0.146676,0.9145085373384985
5,44.940796,-93.167057,2025-03-14T02:09:30Z,-1.118342,-0.307148,-0.094533,1.1636001078364508
6,44.940709,-93.167061,2025-03-14T02:09:31Z,-1.319709,-0.378229,-0.054463,1.3739196626771888
7,44.94063,-93.167062,2025-03-14T02:09:32Z,-1.429915,-0.452769,-0.01081,1.4999245083290027
8,44.940562,-93.167061,2025-03-14T02:09:33Z,-1.41552,-0.364793,-0.013555,1.4618325968707906
9,44.9405,-93.16706,2025-03-14T02:09:34Z,-1.33542,-0.3703,0.026122,1.386055924298872
10,44.94045,-93.167054,2025-03-14T02:09:35Z,-1.221394,-0.338191,0.034706,1.2678252884971968
11,44.940409,-93.167052,2025-03-14T02:09:36Z,-1.081229,-0.330129,0.007599,1.1305304294369967
12,44.94038,-93.167055,2025-03-14T02:09:37Z,-1.156186,-0.308638,0.075743,1.199066505115125
13,44.940352,-93.167069,2025-03-14T02:09:38Z,-0.82107,-0.244818,0.002714,0.8567958705666128
14,44.940327,-93.167092,2025-03-14T02:09:39Z,-0.45566,-0.14458,-0.069436,0.4830639399665431
15,44.940315,-93.167108,2025-03-14T02:09:40Z,-0.244216,-0.092655,-0.110977,0.2837997501936885
16,44.940311,-93.167061,2025-03-14T02:09:41Z,-0.132962,-0.054142,-0.117765,0.18568479968214952
17,44.940318,-93.167063,2025-03-14T02:09:42Z,0.074911,0.001738,-0.165206,0.18140479872649454
18,44.940324,-93.167069,2025-03-14T02:09:43Z,0.228447,0.036928,-0.178106,0.29201619172402066
19,44.940321,-93.167071000000007,2025-03-14T02:09:44Z,0.243325,0.043533,-0.182311,0.3071473236656963
20,44.940323,-93.167072,2025-03-14T02:09:45Z,0.252299,0.046093,-0.178478,0.31246399237992206
21,44.940323,-93.167072,2025-03-14T02:09:46Z,0.258123,0.045771,-0.157048,0.30559211683876925
22,44.940323,-93.167072,2025-03-14T02:09:47Z,0.255141,0.052072,-0.147212,0.2991317368802582
23,44.940328,-93.167069,2025-03-14T02:09:48Z,0.247986,0.044993,-0.135019,0.285922291201648
24,44.940329,-93.16707,2025-03-14T02:09:49Z,0.243007,0.045866,-0.128624,0.2787476015699507
25,44.94033,-93.16707,2025-03-14T02:09:50Z,0.230877,0.043941,-0.114638,0.26148971615342737
26,44.94033,-93.16707,2025-03-14T02:09:51Z,0.221732,0.038643,-0.110934,0.2509277059812248
27,44.94033,-93.16707,2025-03-14T02:09:52Z,0.212384,0.03676,-0.096514,0.236163530740883
28,44.94033,-93.16707,2025-03-14T02:09:53Z,0.264007,0.051253,-0.102333,0.28774747426693426
29,44.94033,-93.16707,2025-03-14T02:09:54Z,0.492031,0.112176,-0.160828,0.5296636720797453
30,44.94033,-93.16707,2025-03-14T02:09:55Z,0.634558,0.148952,-0.201227,0.6821604350862046
31,44.940334,-93.167076,2025-03-14T02:09:56Z,1.905483,0.453875,-0.529735,2.029159222224565
32,44.940326,-93.16708,2025-03-14T02:09:57Z,1.735419,0.431222,-0.428825,1.8388916225460379
33,44.940313,-93.167083,2025-03-14T02:09:58Z,1.201943,0.288246,-0.323654,1.2776950510513063
34,44.94023,-93.167057,2025-03-14T02:09:59Z,0.565864,0.093268,-0.119057,0.585726519434625
35,44.94017,-93.167056,2025-03-14T02:10:00Z,0.090268,0.006093,-0.071364,0.1152313193927762
36,44.940103,-93.167059,2025-03-14T02:10:01Z,-0.055649,-0.047719,-0.024329,0.07723868462758801
37,44.940035,-93.167057,2025-03-14T02:10:02Z,0.089084,0.044317,-0.043633,0.10864526788590471
38,44.939965,-93.16706,2025-03-14T02:10:03Z,0.11624,0.034103,-0.0035,0.12118994268915222
39,44.939896,-93.167057,2025-03-14T02:10:04Z,0.027848,0.02834,0.025496,0.04720924401004532
40,44.939818,-93.16706,2025-03-14T02:10:05Z,-0.004179,-0.001263,0.044293,0.044507629222415336
41,44.939736,-93.167059,2025-03-14T02:10:06Z,-0.070611,-0.031384,0.048114,0.0910265113744342
42,44.93965,-93.167066,2025-03-14T02:10:07Z,-0.31308,-0.092247,0.059603,0.3317847389769457
43,44.939562,-93.167067,2025-03-14T02:10:08Z,-0.338557,-0.078844,0.063035,0.3532854791949423
44,44.939473,-93.167071000000007,2025-03-14T02:10:09Z,-0.365443,-0.101871,0.111818,0.3955117596405953
45,44.939385,-93.167073,2025-03-14T02:10:10Z,-0.155184,-0.045193,0.105074,0.19278232953515215
46,44.939301,-93.167071000000007,2025-03-14T02:10:11Z,-0.150585,-0.041997,0.06992,0.17125535505203918
47,44.939212,-93.167072,2025-03-14T02:10:12Z,0.133162,-0.01133,-0.073764,0.15264866471738298
48,44.939122,-93.167078,2025-03-14T02:10:13Z,0.097767,0.024273,-0.043778,0.10983659727977739
49,44.939032,-93.167078,2025-03-14T02:10:14Z,0.121022,-0.016791,-0.075883,0.1438279939858719
50,44.938931,-93.16708,2025-03-14T02:10:15Z,0.009071,-0.006523,0.026469,0.028730480869626946
51,44.938833,-93.167083,2025-03-14T02:10:16Z,-0.432857,-0.129195,0.1106,0.4650686943603063
52,44.938727,-93.167083,2025-03-14T02:10:17Z,-0.441935,-0.117975,0.16655,0.4867890172857231
53,44.938619,-93.167071000000007,2025-03-14T02:10:18Z,-0.353375,-0.121124,0.156243,0.4049157801938571
54,44.93852,-93.16707,2025-03-14T02:10:19Z,-0.250609,-0.119537,0.107101,0.2975980333453163
55,44.938422,-93.167071000000007,2025-03-14T02:10:20Z,-0.097078,0.007409,0.099306,0.1390708919975708
56,44.938322,-93.167073,2025-03-14T02:10:21Z,-0.10968,-0.039208,0.01455,0.11738258884519458
57,44.938221,-93.167075,2025-03-14T02:10:22Z,-0.10186,-0.064891,0.034253,0.12553712395144315
58,44.938119,-93.167077,2025-03-14T02:10:23Z,-0.028393,-0.094126,0.070737,0.1211180807889557
59,44.938017,-93.167077,2025-03-14T02:10:24Z,0.050623,-0.123671,-0.007162,0.13382263864533533
60,44.937916,-93.167075,2025-03-14T02:10:25Z,0.026801,-0.081983,0.058577,0.1042629887304215
61,44.937806,-93.167067,2025-03-14T02:10:26Z,0.083457,-0.049788,0.064864,0.11683858219355454
62,44.937708,-93.167076,2025-03-14T02:10:27Z,0.017503,0.032943,-0.015357,0.04034146386783702
63,44.937598,-93.167077,2025-03-14T02:10:28Z,0.033631,-0.039089,0.031712,0.06053631163194533
64,44.937489,-93.167078,2025-03-14T02:10:29Z,0.01073,-0.018358,0.031509,0.03801271030852707
65,44.937377,-93.167079,2025-03-14T02:10:30Z,-0.023698,-0.011212,0.04815,0.054824507731488115
66,44.937266,-93.167078,2025-03-14T02:10:31Z,-0.062743,-0.014309,0.030698,0.07130076250644168
67,44.937155,-93.167077,2025-03-14T02:10:32Z,-0.137096,-0.016551,0.009341,0.13840701968469662
68,44.93704,-93.16708,2025-03-14T02:10:33Z,-0.242308,-0.101886,0.087306,0.27697700535604036
69,44.936929,-93.16708,2025-03-14T02:10:34Z,-0.233592,-0.101751,0.051803,0.26000392165119357
70,44.936819,-93.167076,2025-03-14T02:10:35Z,-0.310198,-0.068806,0.09925,0.33287779640582815
71,44.936709,-93.167077,2025-03-14T02:10:36Z,-0.375386,-0.108519,0.187382,0.43336247678011997
72,44.936596,-93.167073,2025-03-14T02:10:37Z,-0.630681,-0.202139,0.181555,0.6867174943941651
73,44.936481,-93.167074,2025-03-14T02:10:38Z,-0.489244,-0.180242,0.184081,0.552930994483941
74,44.936396,-93.167075,2025-03-14T02:10:39Z,-0.094556,0.00401,0.169887,0.19446981772244248
75,44.936303,-93.167075,2025-03-14T02:10:40Z,0.076789,-0.050339,0.024894,0.09513294212837108
76,44.93621,-93.167077,2025-03-14T02:10:41Z,0.310607,0.116597,-0.103782,0.34762375117646954
77,44.936116,-93.167077,2025-03-14T02:10:42Z,0.418954,0.065085,-0.111916,0.438501656093794
78,44.936017,-93.167078,2025-03-14T02:10:43Z,0.159251,0.036797,-0.075895,0.1802080776075257
79,44.935916,-93.167078,2025-03-14T02:10:44Z,-0.171147,-0.045495,0.032444,0.18003806200356634
80,44.935816,-93.167078,2025-03-14T02:10:45Z,0.096978,0.0144,0.001691,0.09805586145152159
81,44.935716,-93.167079,2025-03-14T02:10:46Z,0.180718,0.033826,6.55e-4,0.18385761562959527
82,44.935615,-93.167078,2025-03-14T02:10:47Z,0.167471,-0.019512,-0.015028,0.1692722504399348
83,44.935515,-93.167074,2025-03-14T02:10:48Z,0.135833,0.037973,0.032584,0.1447558968539797
84,44.935411,-93.167076,2025-03-14T02:10:49Z,0.078872,-0.014489,0.024824,0.08394614035797
85,44.935306,-93.167077,2025-03-14T02:10:50Z,-0.024241,0.014559,0.010779,0.03026181427145438
86,44.935203,-93.167077,2025-03-14T02:10:51Z,-0.010379,-0.020694,0.002858,0.023326668021815718
87,44.9351,-93.167079,2025-03-14T02:10:52Z,-0.300057,-0.109809,0.074381,0.3280621174274775
88,44.934995,-93.167079,2025-03-14T02:10:53Z,-0.374739,-0.07112,0.096238,0.39338165331519975
89,44.934897,-93.167081,2025-03-14T02:10:54Z,-0.855523,-0.212066,0.068935,0.8841061169961444
90,44.934805,-93.167077,2025-03-14T02:10:55Z,-1.232697,-0.405814,-0.303533,1.332801252435636
91,44.93472,-93.167074,2025-03-14T02:10:56Z,-0.737628,-0.2624,-0.138888,0.7951343929978126
92,44.934639,-93.167063,2025-03-14T02:10:57Z,-0.55672,-0.124979,0.584701,0.8169652185019874
93,44.934573,-93.167041,2025-03-14T02:10:58Z,-0.795021,-0.193031,0.59527,1.011763673148033
94,44.934528,-93.167041,2025-03-14T02:10:59Z,-1.006277,-0.265063,0.500763,1.154822660353961
95,44.934484,-93.167062,2025-03-14T02:11:00Z,-1.102271,-0.300436,0.413739,1.2150897529228037
96,44.934452,-93.167062,2025-03-14T02:11:01Z,-0.614291,-0.161692,0.227528,0.6747345599041152
97,44.934439,-93.167062,2025-03-14T02:11:02Z,-0.170728,-0.030773,0.076984,0.18979347662393456
1,44.934535,-93.166911,2025-03-14T02:15:04Z,0.614859,0.152581,-0.47081,0.7893000744596443
2,44.934598,-93.166899,2025-03-14T02:15:05Z,0.510905,0.108618,-0.449249,0.6889458998716809
3,44.934688,-93.166933,2025-03-14T02:15:06Z,0.400078,0.096211,-0.444625,0.6058137941892706
4,44.934781,-93.166949,2025-03-14T02:15:07Z,0.130594,0.053729,-0.378279,0.4037779093982235
5,44.934873,-93.166955,2025-03-14T02:15:08Z,-0.098767,-0.042815,-0.291378,0.3106270809153639
6,44.934965,-93.166963,2025-03-14T02:15:09Z,-0.033721,-0.047794,-0.211001,0.21895843047939487
7,44.935073,-93.16696,2025-03-14T02:15:10Z,-0.145459,0.036004,-0.180736,0.2347767245554806
8,44.935183,-93.166964,2025-03-14T02:15:11Z,-0.082956,-0.125819,-0.144101,0.2085119106861764
9,44.935292,-93.16697,2025-03-14T02:15:12Z,-0.255401,-0.008768,-0.068251,0.26450850199190196
10,44.93541,-93.166963,2025-03-14T02:15:13Z,-0.308794,-0.067995,-0.093249,0.3296550173469229
11,44.935534,-93.166967,2025-03-14T02:15:14Z,-0.358623,-0.094041,-0.084744,0.38031002004417397
12,44.935659,-93.166974,2025-03-14T02:15:15Z,-0.313027,-0.063317,-0.109909,0.3377498090288135
13,44.935781,-93.166974,2025-03-14T02:15:16Z,-0.407803,-0.101476,-0.044724,0.42261199883699474
14,44.935905,-93.166973,2025-03-14T02:15:17Z,-0.39484,-0.297791,0.030457,0.4954853520841963
15,44.936031,-93.166975,2025-03-14T02:15:18Z,-0.688428,0.006623,0.124378,0.6996047900043282
16,44.936153,-93.166967,2025-03-14T02:15:19Z,-0.467698,-0.192787,0.244464,0.561845969878756
17,44.936271,-93.166976,2025-03-14T02:15:20Z,-0.480363,-0.05473,0.041966,0.4852887077039811
18,44.93639,-93.166975,2025-03-14T02:15:21Z,-0.304543,-0.149057,0.054265,0.34337897187073063
19,44.936508,-93.166976,2025-03-14T02:15:22Z,-0.307455,-0.059904,0.084834,0.32452099130410655
20,44.936627,-93.166975,2025-03-14T02:15:23Z,-0.217941,-0.13039799999999999,0.005909,0.2540410088273151
21,44.936745,-93.166971,2025-03-14T02:15:24Z,-0.226363,-0.053123,0.045639,0.23694973985847717
22,44.936862,-93.166971,2025-03-14T02:15:25Z,-0.246128,-0.020205,0.025042,0.24822235228318984
23,44.936983,-93.166972,2025-03-14T02:15:26Z,-0.201906,-0.16585,0.03936,0.2642375161403089
24,44.937103,-93.166971,2025-03-14T02:15:27Z,-0.289957,-0.067546,0.022539,0.2985724878249837
25,44.937219,-93.166974,2025-03-14T02:15:28Z,-0.178439,-0.008598,0.014495,0.17923310896706557
26,44.937336,-93.166974,2025-03-14T02:15:29Z,-0.136259,-0.053572,0.082513,0.1680620999333282
27,44.937453,-93.16698,2025-03-14T02:15:30Z,-0.126511,-0.0647,0.119234,0.185493584463183
28,44.937566,-93.166975,2025-03-14T02:15:31Z,-0.103672,-0.022639,0.042543,0.11432547727431537
29,44.937682,-93.166972,2025-03-14T02:15:32Z,-0.14562,9.81e-4,-0.00392,0.14567605555134996
30,44.9378,-93.166974,2025-03-14T02:15:33Z,-0.160225,-0.043891,0.015572,0.166856098749791
31,44.937913,-93.166971,2025-03-14T02:15:34Z,-0.102578,-0.114662,-0.039583,0.1588597942117514
32,44.938027,-93.166974,2025-03-14T02:15:35Z,0.107919,-0.321979,-0.00352,0.3396017924010414
33,44.938132,-93.166981,2025-03-14T02:15:36Z,0.17054,-0.001378,-0.032242,0.17356652052743352
34,44.938246,-93.166977,2025-03-14T02:15:37Z,0.152409,0.006623,0.005727,0.15266029588272123
35,44.938364,-93.166978,2025-03-14T02:15:38Z,0.132271,0.056904,0.016587,0.14494416589155978
36,44.938489,-93.16698,2025-03-14T02:15:39Z,0.227578,-0.005893,0.07851,0.240811738985042
37,44.93861,-93.166978,2025-03-14T02:15:40Z,-0.048849,0.016012,-0.022549,0.056134359762982956
38,44.938732,-93.166979,2025-03-14T02:15:41Z,-0.059495,-0.049046,0.07937,0.11065605288912125
39,44.938854,-93.166978,2025-03-14T02:15:42Z,-0.169335,-0.006718,0.060188,0.179839008818999
40,44.938971,-93.166976,2025-03-14T02:15:43Z,-0.17692,-0.002953,0.050532,0.18401872087643692
41,44.939087,-93.166974,2025-03-14T02:15:44Z,-0.193961,-0.225127,0.038731,0.2996716970469517
42,44.939202,-93.166977,2025-03-14T02:15:45Z,0.034533,-0.047887,0.147033,0.15844366805587404
43,44.939316,-93.16698,2025-03-14T02:15:46Z,-0.084236,0.006835,0.141501,0.16481794174785705
44,44.939431,-93.166974,2025-03-14T02:15:47Z,-0.800284,-0.251005,0.225128,0.8684126939796539
45,44.939547,-93.166967,2025-03-14T02:15:48Z,-1.275329,-0.30244,0.382498,1.365371279852114
46,44.939632,-93.166971,2025-03-14T02:15:49Z,-1.433538,-0.444917,0.388277,1.5504003879843424
47,44.939699,-93.166968,2025-03-14T02:15:50Z,-1.146489,-0.299519,0.344476,1.2340228413842267
48,44.939757,-93.166969,2025-03-14T02:15:51Z,-0.73157,-0.179814,0.2297,0.7875848078118318
49,44.939808,-93.166967,2025-03-14T02:15:52Z,-0.597102,-0.183363,0.208695,0.6585638854340556
50,44.939854,-93.166968,2025-03-14T02:15:53Z,-0.537593,-0.111464,0.144014,0.5676006423014336
51,44.939892,-93.166967,2025-03-14T02:15:54Z,-0.632609,-0.148355,0.207473,0.6820911952481133
52,44.939913,-93.166967,2025-03-14T02:15:55Z,-0.506031,-0.11925,0.186675,0.5523907051046388
53,44.939913,-93.166968,2025-03-14T02:15:56Z,-0.010989,0.014044,0.050354,0.053418324318533245
54,44.939919,-93.166965,2025-03-14T02:15:57Z,0.227943,0.070147,-0.02306,0.2396046252850725
55,44.939927,-93.166963,2025-03-14T02:15:58Z,0.190146,0.059269,-0.008795,0.19936315532715668
56,44.939931,-93.166963,2025-03-14T02:15:59Z,0.408065,0.112426,-0.075269,0.42990937656906253
57,44.939927,-93.16696,2025-03-14T02:16:00Z,0.480679,0.132529,-0.100766,0.5086944305160024
58,44.939926,-93.166961,2025-03-14T02:16:01Z,0.442665,0.114026,-0.088373,0.46557922852077493
59,44.939925,-93.166961,2025-03-14T02:16:02Z,0.453743,0.119766,-0.091499,0.4781199345415332
60,44.939925,-93.166961,2025-03-14T02:16:03Z,0.450955,0.118601,-0.089636,0.4748275705158663
61,44.939925,-93.166961,2025-03-14T02:16:04Z,0.432126,0.114062,-0.087959,0.45549951196571004
62,44.939925,-93.166961,2025-03-14T02:16:05Z,0.425245,0.106681,-0.079233,0.4455244259016558
63,44.939925,-93.166961,2025-03-14T02:16:06Z,0.401466,0.103565,-0.075084,0.42135289893033845
64,44.939925,-93.166961,2025-03-14T02:16:07Z,0.604073,0.155508,-0.130932,0.6373618407286398
65,44.939921,-93.166953,2025-03-14T02:16:08Z,0.563635,0.138927,-0.117274,0.5922316401797526
66,44.939921,-93.166953,2025-03-14T02:16:09Z,0.441433,0.107825,-0.088628,0.46297326758464147
67,44.939936,-93.166951,2025-03-14T02:16:10Z,0.339584,0.084146,-0.05296,0.35383979986994113
68,44.939937,-93.166952,2025-03-14T02:16:11Z,0.283728,0.060365,-0.033455,0.2920012812197919
69,44.939937,-93.166952,2025-03-14T02:16:12Z,0.211253,0.045742,-0.013853,0.21659193471133684
70,44.939954,-93.166948,2025-03-14T02:16:13Z,0.03254,9.76e-4,0.030284,0.04446262286460392
71,44.939955,-93.16695,2025-03-14T02:16:14Z,0.018831,-0.003559,0.035433,0.040283626090509776
72,44.939954,-93.16695,2025-03-14T02:16:15Z,0.118519,0.022947,0.006666,0.12090390285677298
73,44.939954,-93.166949,2025-03-14T02:16:16Z,0.203458,0.045214,-0.012284,0.20878304580592744
74,44.939954,-93.166949,2025-03-14T02:16:17Z,0.19795,0.041067,-0.016677,0.20285172742177968
75,44.939954,-93.166949,2025-03-14T02:16:18Z,0.191444,0.036671,-0.01268,0.1953365039540741
76,44.939954,-93.166949,2025-03-14T02:16:19Z,0.181099,0.038156,-0.009924,0.18534080477056317
77,44.939954,-93.166949,2025-03-14T02:16:20Z,0.168027,0.032734,-0.008833,0.17141356239807864
78,44.939954,-93.166949,2025-03-14T02:16:21Z,0.159806,0.031816,-0.007245,0.16310335838663778
79,44.939954,-93.166949,2025-03-14T02:16:22Z,0.248022,0.050213,-0.023556,0.2541478762236663
80,44.939954,-93.166949,2025-03-14T02:16:23Z,0.450634,0.108625,-0.084321,0.4711479848434035
81,44.939957,-93.16695,2025-03-14T02:16:24Z,0.556965,0.126451,-0.113486,0.5823048504194346
82,44.939965,-93.166952,2025-03-14T02:16:25Z,1.482917,0.372538,-0.362477,1.5713742284580081
83,44.939978,-93.166954,2025-03-14T02:16:26Z,1.528235,0.390383,-0.37111,1.620377651664574
84,44.940036,-93.166955,2025-03-14T02:16:27Z,1.074333,0.261694,-0.256709,1.1351540226797419
85,44.940097,-93.166957,2025-03-14T02:16:28Z,0.878247,0.221221,-0.146629,0.9174729355632242
86,44.940152,-93.166956,2025-03-14T02:16:29Z,1.02941,0.022785,-0.211579,1.0511754266372477
87,44.940219,-93.166957,2025-03-14T02:16:30Z,0.757037,0.199403,-0.298155,0.8377129459444923
88,44.940303,-93.166958,2025-03-14T02:16:31Z,0.509898,0.213806,-0.045981,0.5548181940068295
89,44.940398,-93.166958,2025-03-14T02:16:32Z,0.291628,0.090997,0.006411,0.3055625063943546
90,44.940497,-93.166956,2025-03-14T02:16:33Z,0.06264,-0.040933,0.018903,0.07717903535287286
91,44.940599,-93.166958,2025-03-14T02:16:34Z,-0.29694,-0.068179,0.026283,0.3057981944518312
92,44.94071,-93.166954,2025-03-14T02:16:35Z,-0.843086,-0.167427,0.283331,0.90504268368182506
93,44.940837,-93.16694,2025-03-14T02:16:36Z,0.073416,-0.197389,0.117112,0.24097208743130397
94,44.940908,-93.166951,2025-03-14T02:16:37Z,-0.166198,0.058221,-0.009463,0.1763547799579019
95,44.941023,-93.166958,2025-03-14T02:16:38Z,-0.28725,-0.102687,0.130776,0.33190291448705295
96,44.941142,-93.166959,2025-03-14T02:16:39Z,-0.493037,-0.103971,0.171608,0.5323013788015207
97,44.941262,-93.16695,2025-03-14T02:16:40Z,-0.724765,-0.080833,0.039222,0.7303127031607762
1,44.934418,-93.167086,2025-03-14T02:22:42Z,0.407528,0.051254,-0.854771,0.948335123118932
2,44.934491,-93.167001,2025-03-14T02:22:43Z,0.427601,0.110275,-0.095824,0.45186881924071726
3,44.93457,-93.167,2025-03-14T02:22:44Z,0.344012,0.142995,0.170608,0.40975470202671255
4,44.934659,-93.167001,2025-03-14T02:22:45Z,0.29756,0.093052,0.204966,0.37311082731542383
5,44.934741,-93.167002,2025-03-14T02:22:46Z,0.209336,0.093327,0.210012,0.31086416642803977
6,44.93483,-93.167001,2025-03-14T02:22:47Z,0.064497,-0.002389,0.262404,0.2702247759662315
7,44.934931,-93.167001,2025-03-14T02:22:48Z,0.149685,0.064727,0.147121,0.2196355444708347
8,44.935039,-93.167024,2025-03-14T02:22:49Z,0.111129,0.056043,0.148486,0.19374871531445054
9,44.935153,-93.167001,2025-03-14T02:22:50Z,-0.049749,-0.100836,0.226374,0.2527608549063719
10,44.935254,-93.167007,2025-03-14T02:22:51Z,-0.143804,0.076962,0.249314,0.2979265185511354
11,44.935389,-93.167024,2025-03-14T02:22:52Z,-0.195528,-0.038736,0.171919,0.26322579478652924
12,44.935517,-93.167003,2025-03-14T02:22:53Z,-0.273631,-0.039802,0.206681,0.34521755332833237
13,44.935646,-93.167026,2025-03-14T02:22:55Z,-0.317687,-0.108132,0.210926,0.3963676788904464
14,44.935785,-93.167002,2025-03-14T02:22:56Z,-0.374228,-0.097749,0.204496,0.43751580200148205
15,44.935912,-93.167001,2025-03-14T02:22:57Z,-0.405916,-0.16984,0.190107,0.4793267112367096
16,44.936044,-93.167001,2025-03-14T02:22:57Z,-0.334053,-0.099496,0.106996,0.3646080153274198
17,44.936182,-93.167,2025-03-14T02:22:58Z,-0.132415,-0.002294,0.318561,0.34499290627779583
18,44.936315,-93.167001,2025-03-14T02:22:59Z,-0.152874,-0.029475,0.120317,0.1967623337684324
19,44.936457,-93.167001,2025-03-14T02:23:00Z,-0.162833,0.019326,0.170594,0.23662289196314037
20,44.936597,-93.167002,2025-03-14T02:23:01Z,-0.20924,-0.119694,0.192799,0.3086737527503756
21,44.936735,-93.167001,2025-03-14T02:23:02Z,-0.29814,-0.099723,0.144277,0.34590170432942363
22,44.936875,-93.167024,2025-03-14T02:23:03Z,-0.328887,-0.029541,0.182189,0.3771367937115126
23,44.937017,-93.167018,2025-03-14T02:23:04Z,-0.252085,-0.130293,0.106786,0.30319360624854874
24,44.93716,-93.167015,2025-03-14T02:23:05Z,-0.216896,-0.012707,0.107837,0.2425575421090839
25,44.937298,-93.167,2025-03-14T02:23:06Z,-0.164518,-0.100279,0.106214,0.2200078724977813
26,44.937433,-93.167023,2025-03-14T02:23:07Z,-0.223365,-0.062881,0.102385,0.2536308964045981
27,44.937572,-93.167022,2025-03-14T02:23:08Z,-0.167861,-0.034982,0.058978,0.18132694264504656
28,44.937717,-93.166997,2025-03-14T02:23:09Z,-0.247337,-0.089158,0.103751,0.2826464408656157
29,44.937865,-93.166996,2025-03-14T02:23:10Z,-0.230759,-0.170172,0.183409,0.3403631691972561
30,44.93803,-93.166996,2025-03-14T02:23:11Z,0.040043,-0.290537,0.064804,0.3003577011398243
31,44.938131,-93.166996,2025-03-14T02:23:12Z,0.12111,-0.039815,4.16e-4,0.12748740871552766
32,44.93827,-93.166996,2025-03-14T02:23:13Z,-0.215474,-0.019022,0.144079,0.25990313465020004
33,44.938409,-93.166994,2025-03-14T02:23:14Z,-0.083257,-0.071036,0.106839,0.15294578538161815
34,44.938544,-93.167,2025-03-14T02:23:15Z,-0.1235,-0.060832,0.129576,0.18905745687488765
35,44.938686,-93.166999,2025-03-14T02:23:16Z,-0.221588,-0.10512,0.053718,0.2510718615615856
36,44.938821,-93.167002,2025-03-14T02:23:17Z,-0.212534,0.001033,0.06781,0.22309182939991326
37,44.938957,-93.166994,2025-03-14T02:23:18Z,-0.084804,-0.009536,0.029464,0.09028167592595965
38,44.939095,-93.166995,2025-03-14T02:23:19Z,0.089815999999999993,-0.093904,0.101118,0.16465031125388133
39,44.939233,-93.166996,2025-03-14T02:23:20Z,-0.236239,-0.09579,0.120661,0.28203486689060275
40,44.939371,-93.167002,2025-03-14T02:23:21Z,-0.47936,-0.182911,0.201678,0.5512861862998202
41,44.93951,-93.167001,2025-03-14T02:23:22Z,-2.179507,-0.645682,0.636264,2.3605058538095176
42,44.939634,-93.167006,2025-03-14T02:23:23Z,-1.997528,-0.547765,0.643392,2.168897847219412
43,44.939738,-93.166989,2025-03-14T02:23:24Z,-1.380017,-0.423263,0.39177,1.4956878753128944
44,44.939817,-93.166997,2025-03-14T02:23:25Z,-1.239003,-0.37116,0.400684,1.3540442560954202
45,44.939918,-93.16701,2025-03-14T02:23:26Z,-1.154354,-0.325092,0.389439,1.2609047150760442
46,44.939941,-93.166977,2025-03-14T02:23:27Z,-1.152069,-0.309223,0.320326,1.235107521945357
47,44.939964,-93.166985,2025-03-14T02:23:28Z,-0.809315,-0.210677,0.251469,0.8732767176073114
48,44.939972,-93.166993,2025-03-14T02:23:29Z,-0.293792,-0.069124,0.117434,0.32385584909956466
49,44.939979,-93.166993,2025-03-14T02:23:30Z,0.32209,0.11047,-0.042955,0.3432065282377362
50,44.939972,-93.166995,2025-03-14T02:23:31Z,0.599297,0.194215,-0.118823,0.641089124664426
51,44.939972,-93.166995,2025-03-14T02:23:32Z,0.700846,0.217419,-0.154629,0.7499108379787559
52,44.939968,-93.166997,2025-03-14T02:23:33Z,0.702258,0.223593,-0.157049,0.7535413171246818
53,44.939968,-93.166998,2025-03-14T02:23:34Z,0.689802,0.215099,-0.144865,0.7369397853488439
54,44.939968,-93.166998,2025-03-14T02:23:35Z,0.653943,0.203753,-0.143867,0.6998960250972998
55,44.939968,-93.166998,2025-03-14T02:23:36Z,0.598473,0.183339,-0.133734,0.6400530473374844
56,44.939968,-93.166998,2025-03-14T02:23:37Z,0.533852,0.160555,-0.113953,0.5690001336889122
57,44.939968,-93.166998,2025-03-14T02:23:38Z,0.473599,0.137476,-0.097989,0.5027897249327993
58,44.939964,-93.167,2025-03-14T02:23:39Z,0.435706,0.12716,-0.093902,0.46349430378376816
59,44.939962,-93.167002,2025-03-14T02:23:40Z,0.415962,0.118064,-0.078479,0.4394569910480433
60,44.93996,-93.167002,2025-03-14T02:23:41Z,0.394612,0.108037,-0.072166,0.4154498230460569
61,44.93996,-93.167002,2025-03-14T02:23:42Z,0.370614,0.101138,-0.068174,0.39016833074456464
62,44.93996,-93.167002,2025-03-14T02:23:43Z,0.344224,0.094521,-0.063144,0.3625073052408737
63,44.93996,-93.167002,2025-03-14T02:23:44Z,0.323783,0.085883,-0.056811,0.33976287392680204
64,44.93996,-93.167002,2025-03-14T02:23:45Z,0.303938,0.080507,-0.045232,0.31765644762384404
65,44.93996,-93.167002,2025-03-14T02:23:46Z,0.282561,0.072766,-0.039677,0.294465403410995
66,44.93996,-93.167002,2025-03-14T02:23:47Z,0.263668,0.064873,-0.0365,0.27397366726201994
67,44.93996,-93.167002,2025-03-14T02:23:48Z,0.245414,0.058319,-0.030574,0.2540942868956325
68,44.93996,-93.167002,2025-03-14T02:23:49Z,0.223995,0.056253,-0.019339,0.23175883360726512
69,44.93996,-93.167002,2025-03-14T02:23:50Z,0.21095,0.048669,-0.017937,0.2172333078282426
70,44.93996,-93.167002,2025-03-14T02:23:51Z,0.195076,0.043416,-0.02148,0.20099996326367822
71,44.93996,-93.167002,2025-03-14T02:23:52Z,0.182917,0.040602,-0.009722,0.18762107711288728
72,44.93996,-93.167002,2025-03-14T02:23:53Z,0.167502,0.036892,-0.006671,0.17164626972060887
73,44.93996,-93.167002,2025-03-14T02:23:54Z,0.158411,0.032747,-0.006355,0.16188513506495894
74,44.93996,-93.167002,2025-03-14T02:23:55Z,0.144084,0.029023,0.002759,0.14700389677148015
75,44.93996,-93.167002,2025-03-14T02:23:56Z,0.141714,0.028508,0.003011,0.14458433518538583
76,44.93996,-93.167002,2025-03-14T02:23:57Z,0.12526,0.023933,1.81e-4,0.1275260320483626
77,44.93996,-93.167002,2025-03-14T02:23:58Z,0.209625,0.045747,-0.017307,0.21525557108469923
78,44.93996,-93.167002,2025-03-14T02:23:59Z,0.585468,0.149359,-0.12458,0.6169287368124458
79,44.93996,-93.166997,2025-03-14T02:24:00Z,1.424275,0.369141,-0.361852,1.5151769610873838
80,44.939972,-93.166998,2025-03-14T02:24:01Z,1.966336,0.521979,-0.52567,2.101253980421453
81,44.940009,-93.166998,2025-03-14T02:24:02Z,1.529589,0.443884,-0.300943,1.620876985963463
82,44.940063,-93.166998,2025-03-14T02:24:03Z,1.004729,0.267673,-0.194926,1.0578872075254524
83,44.940128,-93.166999,2025-03-14T02:24:04Z,0.822033,0.079419,-0.195121,0.8485975696942574
84,44.940204,-93.167,2025-03-14T02:24:05Z,0.71149,0.126092,-0.160292,0.7401423767276131
85,44.94029,-93.167,2025-03-14T02:24:06Z,0.570441,0.216399,-0.216356,0.6473340562785184
86,44.940385,-93.167,2025-03-14T02:24:07Z,0.188209,0.069094,-0.092346,0.22073602386787708
87,44.940492,-93.166999,2025-03-14T02:24:08Z,-0.302611,-0.075346,0.178657,0.3594005574369634
88,44.940604,-93.166997,2025-03-14T02:24:09Z,-0.66554,-0.188321,0.217255,0.7249882934682463
89,44.940713,-93.166995,2025-03-14T02:24:10Z,-0.746829,-0.238953,0.097358,0.7901459812047391
90,44.94082,-93.166995,2025-03-14T02:24:11Z,-1.081135,-0.288509,-0.191402,1.1352202680140977
91,44.940925,-93.167,2025-03-14T02:24:12Z,-1.282643,-0.447823,-0.317165,1.3951029144844476
92,44.941021,-93.166993,2025-03-14T02:24:13Z,-0.921082,-0.178468,0.58629,1.106335772651323
93,44.941111,-93.166993,2025-03-14T02:24:14Z,-0.965316,-0.327893,0.730046,1.2539202372643166
94,44.941211,-93.166993,2025-03-14T02:24:15Z,-0.960034,-0.289567,0.700053,1.2229425707914496
1,44.934431,-93.177214,2025-03-14T02:06:58Z,0.998718,0.255301,0.74474,1.2717129832336382
2,44.934505,-93.177193,2025-03-14T02:06:59Z,0.897382,0.208443,-0.657118,1.1316125680183124
3,44.934558,-93.177196,2025-03-14T02:07:00Z,0.664053,0.16896,-0.698935,0.9787870057545717
4,44.934642,-93.177182,2025-03-14T02:07:01Z,0.647078,0.14129,-0.631391,0.9150559529695439
5,44.934741,-93.177195,2025-03-14T02:07:02Z,0.461553,0.128249,-0.516451,0.704415085876928
6,44.934839,-93.177196,2025-03-14T02:07:04Z,-0.049966000000000003,-0.065726,-0.356016,0.36546395237834334
7,44.934939,-93.177191,2025-03-14T02:07:05Z,-0.074626,0.009835,-0.342915,0.3510790001210554
8,44.935046,-93.177187,2025-03-14T02:07:06Z,-0.323708,-0.008082,-0.24022,0.4031846182433055
9,44.935163,-93.177184,2025-03-14T02:07:07Z,-0.423418,-0.059263,-0.098372,0.4387162594171773
10,44.93527,-93.177192,2025-03-14T02:07:08Z,-0.377125,-0.44804,-0.102761,0.5945779430369075
11,44.935379,-93.177187,2025-03-14T02:07:09Z,-0.388194,0.067945,-0.273608,0.4797629021975334
12,44.935499,-93.177192,2025-03-14T02:07:10Z,-0.442017,-0.155556,-0.031941,0.46967746902102936
13,44.93562,-93.177192,2025-03-14T02:07:11Z,-0.444001,-0.175748,-0.081248,0.4843815489972755
14,44.935737,-93.17719,2025-03-14T02:07:12Z,-0.482156,-0.145051,-0.145542,0.5241151349665453
15,44.935859,-93.1772,2025-03-14T02:07:13Z,-0.515263,-0.159436,-0.022318,0.5398276487815348
16,44.935982,-93.177195,2025-03-14T02:07:14Z,-0.506393,-0.027545,0.143126,0.5269512779659994
17,44.936103,-93.177188,2025-03-14T02:07:15Z,-0.362256,-0.206201,-0.029586,0.4178798790717256
18,44.936227,-93.177202,2025-03-14T02:07:16Z,-0.126064,-0.163826,-0.047128,0.21201919431032654
19,44.936355,-93.177215,2025-03-14T02:07:17Z,-0.295221,-0.017268,-0.084251,0.3074928514063376
20,44.936466,-93.177199,2025-03-14T02:07:18Z,-0.206648,-0.150521,-0.036562,0.2582571338588733
21,44.936572,-93.177195,2025-03-14T02:07:19Z,-0.254242,0.060215,-0.008416,0.2614109214340518
22,44.936688,-93.177168,2025-03-14T02:07:20Z,-0.250601,-0.117336,-0.035017,0.2789171711924528
23,44.936825,-93.177184,2025-03-14T02:07:21Z,-0.254013,-0.15117,-0.046174,0.2991772239743527
24,44.93694,-93.177167,2025-03-14T02:07:22Z,-0.235582,0.047388,-0.00409,0.24033565979271576
25,44.937056,-93.177128,2025-03-14T02:07:23Z,-0.303409,-0.126799,0.072384,0.33671122811394333
26,44.93719,-93.177153,2025-03-14T02:07:24Z,-0.293751,-0.195208,0.084335,0.3626406009949796
27,44.937319,-93.177169,2025-03-14T02:07:24Z,-0.343481,-0.152019,0.133487,0.39863235304099437
28,44.937443,-93.17718,2025-03-14T02:07:25Z,-0.298238,-0.129923,0.1249,0.34846219389339783
29,44.937562,-93.17718,2025-03-14T02:07:26Z,-0.375431,-0.105945,0.066823,0.3957753050848423
30,44.937685,-93.177172,2025-03-14T02:07:27Z,-0.234176,-0.105528,0.090221,0.2722395757434984
31,44.937798,-93.177161,2025-03-14T02:07:28Z,-0.14471,0.048477,-0.009454,0.1529064476894287
32,44.937908,-93.177173,2025-03-14T02:07:29Z,0.051974,-0.13948,0.034209,0.1527292465672505
33,44.938026,-93.177176,2025-03-14T02:07:30Z,0.078205,-0.057293,-0.094465,0.135359322172505
34,44.938131,-93.177189,2025-03-14T02:07:31Z,-0.007704,0.084705,-0.015816,0.08651262622877658
35,44.938259,-93.177191,2025-03-14T02:07:32Z,-0.027168,-0.094466,0.086033,0.1306277247333046
36,44.938376,-93.177186,2025-03-14T02:07:33Z,0.094295,0.017176,0.04509,0.10592294416697451
37,44.938495,-93.177186,2025-03-14T02:07:34Z,-0.104713,-0.016155,0.033341,0.11107393337322669
38,44.938614,-93.177185,2025-03-14T02:07:35Z,-0.103223,-0.103927,0.04377,0.15287780073640517
39,44.938732,-93.177191,2025-03-14T02:07:36Z,-0.129037,-0.043505,0.039136,0.14168577518579628
40,44.938851,-93.177179,2025-03-14T02:07:37Z,-0.193754,-0.037954,0.109831,0.22592911984292774
41,44.938968,-93.177181,2025-03-14T02:07:38Z,-0.208901,-0.104455,0.09889,0.2536330162380285
42,44.939086,-93.177179,2025-03-14T02:07:39Z,-0.353528,-0.104084,0.159709,0.4016497112173741
43,44.939194,-93.177185,2025-03-14T02:07:40Z,-0.70222,-0.231981,0.228282,0.7739772504957753
44,44.939298,-93.177178,2025-03-14T02:07:41Z,-1.073661,-0.311952,0.322713,1.1637034302578986
45,44.939391,-93.177175,2025-03-14T02:07:42Z,-1.102729,-0.277819,0.3333,1.185024697718153
46,44.93945,-93.177149,2025-03-14T02:07:43Z,-0.799989,-0.278815,0.239087,0.8802742742549051
47,44.9395,-93.177209,2025-03-14T02:07:44Z,-0.075256,-0.009028,0.049524,0.09054058148697744
48,44.939576,-93.177215,2025-03-14T02:07:45Z,-0.099693,-0.067723,0.052645,0.13151651988628654
49,44.939648,-93.177183,2025-03-14T02:07:46Z,-0.277623,-0.066769,0.105687,0.304470641374501
50,44.939713,-93.177186,2025-03-14T02:07:47Z,-0.121437,-0.040032,0.098671,0.1615099756485648
51,44.939767,-93.177191,2025-03-14T02:07:48Z,0.043388,0.014671,0.040322,0.06102147547380348
52,44.939821,-93.177188,2025-03-14T02:07:49Z,0.310936,0.062831,-0.035319,0.3191807676192286
53,44.939872,-93.177187,2025-03-14T02:07:50Z,0.383113,0.106605,-0.071867,0.404110210812595
54,44.939923,-93.177186,2025-03-14T02:07:51Z,0.520499,0.134726,-0.119689,0.5508137260435692
55,44.939973,-93.17719,2025-03-14T02:07:52Z,0.560692,0.264587,-0.132352,0.6339549284744145
56,44.940033,-93.17719,2025-03-14T02:07:53Z,0.739578,0.200028,-0.128735,0.7768909312722089
57,44.940091,-93.177195,2025-03-14T02:07:54Z,0.752414,0.007019,-0.153448,0.767933839898334
58,44.940158,-93.177191,2025-03-14T02:07:55Z,0.960506,0.264163,-0.181937,1.0126474897880309
59,44.940227,-93.177196,2025-03-14T02:07:56Z,0.908779,0.193311,-0.192626,0.9488694269698018
60,44.940294,-93.177198,2025-03-14T02:07:57Z,0.833634,0.179342,-0.219545,0.8805164427453924
61,44.940367,-93.177163,2025-03-14T02:07:58Z,0.81455,0.124363,-0.25955,0.8639004924000218
62,44.94048,-93.17719,2025-03-14T02:07:59Z,0.816622,0.26183,-0.194254,0.8792957729342271
63,44.940576,-93.177193,2025-03-14T02:08:00Z,0.540122,0.163052,-0.091018,0.5714910374730299
64,44.940679,-93.177193,2025-03-14T02:08:01Z,0.261368,0.060933,0.011117,0.26860686812142387
65,44.940781,-93.17719,2025-03-14T02:08:02Z,-0.032529,-0.073144,0.077842,0.11165821752562594
66,44.940882,-93.177193,2025-03-14T02:08:03Z,-0.263803,-0.075298,0.186834,0.331916789525628
67,44.940983,-93.177191,2025-03-14T02:08:04Z,-0.444878,-0.163085,0.139398,0.4939078401007621
68,44.941075,-93.177188,2025-03-14T02:08:05Z,-1.101978,-0.301968,0.36294,1.1988601374255463
69,44.941160000000004,-93.177191,2025-03-14T02:08:06Z,-1.336424,-0.274075,0.449056,1.4362442356845162
1,44.941634,-93.177153,2025-03-14T02:19:32Z,-0.75103,-0.210455,-1.33367,1.5449961284174791
2,44.941617,-93.177235,2025-03-14T02:19:33Z,-1.033438,-0.325045,-1.310203,1.7000824253776639
3,44.941589,-93.177266,2025-03-14T02:19:34Z,-0.824312,-0.217434,-0.366684,0.9280220760068157
4,44.941553,-93.177267,2025-03-14T02:19:35Z,-0.818768,-0.243716,0.384602,0.9368549647005133
5,44.941524,-93.177258,2025-03-14T02:19:36Z,-1.050555,-0.302521,0.791082,1.3494426605788035
6,44.941503,-93.177257,2025-03-14T02:19:37Z,-0.753153,-0.211753,0.746737,1.0815243508987673
7,44.94149,-93.177255,2025-03-14T02:19:38Z,-0.58719,-0.170802,0.74020300000000006,0.9601384798626706
8,44.941482,-93.177253,2025-03-14T02:19:39Z,-0.293995,-0.092197,0.627299,0.6988829531724179
9,44.94148,-93.177252,2025-03-14T02:19:40Z,0.165236,0.04497,0.454865,0.4860323084127227
10,44.941477,-93.177249,2025-03-14T02:19:41Z,0.197243,0.049433,0.412233,0.4596569033822945
11,44.941476,-93.177248,2025-03-14T02:19:42Z,0.192425,0.047781,0.388844,0.4364745822175674
12,44.941474,-93.177248,2025-03-14T02:19:43Z,0.185029,0.045239,0.359208,0.40658662696404563
13,44.941474,-93.177248,2025-03-14T02:19:44Z,0.178937,0.042324,0.343338,0.38947497119712327
14,44.941473,-93.177247,2025-03-14T02:19:45Z,0.173141,0.038489,0.322049,0.3676612128073887
15,44.941473,-93.177247,2025-03-14T02:19:46Z,0.166651,0.033369,0.296538,0.34179062509963615
16,44.941473,-93.177246,2025-03-14T02:19:47Z,0.153173,0.033554,0.271599,0.31361418278834263
17,44.941473,-93.177246,2025-03-14T02:19:48Z,0.150127,0.031246,0.254953,0.29751548002414935
18,44.941473,-93.177246,2025-03-14T02:19:49Z,0.141666,0.02776,0.236939,0.2774526317716233
19,44.941473,-93.177246,2025-03-14T02:19:50Z,0.407729,0.106244,0.131597,0.4414164647880729
20,44.941473,-93.177246,2025-03-14T02:19:51Z,1.537961,0.405392,-0.232631,1.6074152834118505
21,44.941471,-93.177248,2025-03-14T02:19:52Z,1.687769,0.437595,-0.274422,1.765038530874043
22,44.94146,-93.177248,2025-03-14T02:19:53Z,1.164495,0.291072,-0.098796,1.2043804066095563
23,44.941396,-93.177245,2025-03-14T02:19:54Z,1.003382,0.251762,-0.071159,1.036929672566563
24,44.941343,-93.177244,2025-03-14T02:19:55Z,0.699982,0.136938,0.0655,0.716252096798327
25,44.941291,-93.177246,2025-03-14T02:19:56Z,0.575192,0.280345,0.037097,0.6409487836777601
26,44.941219,-93.177242,2025-03-14T02:19:57Z,0.544163,0.071162,0.034142,0.5498573242005602
27,44.941143,-93.177252,2025-03-14T02:19:58Z,0.341133,0.114434,0.067417,0.3660763799181805
28,44.941049,-93.177239,2025-03-14T02:19:59Z,0.164231,0.027904,0.086353,0.1876360711217329
29,44.940954,-93.177245,2025-03-14T02:20:00Z,-0.06023,-0.036729,0.07755,0.10483641944000185
30,44.94086,-93.177253,2025-03-14T02:20:01Z,-0.046424,-0.012587,0.082183,0.09522429224730422
31,44.940764,-93.177248,2025-03-14T02:20:02Z,-0.429345,-0.078154,0.210438,0.4844887290587883
32,44.940649,-93.177242,2025-03-14T02:20:03Z,-0.742342,-0.260132,0.269863,0.8316046784121647
33,44.940543,-93.177261,2025-03-14T02:20:04Z,-0.734168,-0.206829,0.232155,0.7972934412686461
34,44.940432,-93.177252,2025-03-14T02:20:05Z,-0.356854,-0.053095,0.133636,0.38473684101863703
35,44.940333,-93.177252,2025-03-14T02:20:06Z,-0.104517,-0.009397,0.133128,0.16951451643443402
36,44.940234,-93.177254,2025-03-14T02:20:07Z,-0.050811,0.011798,0.086717,0.10119678163854817
37,44.940127,-93.177256,2025-03-14T02:20:08Z,0.22871,-0.374526,0.034522,0.44019286370862487
38,44.940016,-93.177248,2025-03-14T02:20:09Z,0.082485,0.159098,-0.110342,0.21045499707300847
39,44.939901,-93.177236,2025-03-14T02:20:10Z,-0.180698,0.063786,0.179025,0.26224105632985845
40,44.939786,-93.177209,2025-03-14T02:20:11Z,-0.111655,0.020381,0.087535,0.14333387740168058
41,44.939668,-93.177222,2025-03-14T02:20:12Z,-0.241471,-0.10009,0.120949,0.2880189447623194
42,44.939557,-93.177265,2025-03-14T02:20:13Z,-0.180351,-0.051695,0.112896,0.21896201278303962
43,44.939439,-93.177268,2025-03-14T02:20:14Z,-0.133992,-0.011906,0.055783,0.14562744243101985
44,44.939318,-93.177255,2025-03-14T02:20:15Z,-0.190283,-0.109352,0.1114,0.24612078334224438
45,44.939202,-93.177257,2025-03-14T02:20:16Z,-0.182449,0.005696,0.063487,0.19326324323574828
46,44.93908,-93.177259,2025-03-14T02:20:17Z,-0.103912,-0.239276,0.097257,0.2784055171310368
47,44.938959,-93.177259,2025-03-14T02:20:18Z,-0.06545,0.093794,-0.009577,0.11477253968175488
48,44.938837,-93.177262,2025-03-14T02:20:19Z,-0.225809,-0.103939,0.052477,0.2540607323672826
49,44.938713,-93.177264,2025-03-14T02:20:20Z,-0.130651,-0.120969,0.043929,0.1833928564666574
50,44.938592,-93.177263,2025-03-14T02:20:21Z,-0.245916,-0.066961,0.111097,0.27803057023644
51,44.938471,-93.17726,2025-03-14T02:20:22Z,-0.364398,-0.087014,0.19237,0.4211455276979681
52,44.938349,-93.177263,2025-03-14T02:20:23Z,-0.240559,-0.0785,0.10504,0.2739786197516149
53,44.938231,-93.177263,2025-03-14T02:20:24Z,-0.267172,-0.119583,0.085441,0.3049280832491491
54,44.938113,-93.177265,2025-03-14T02:20:25Z,-0.248248,-0.023678,0.100948,0.26903199789616106
55,44.938003,-93.177257,2025-03-14T02:20:26Z,-0.278959,-0.104209,0.079284,0.3081616329428438
56,44.937891,-93.177255,2025-03-14T02:20:27Z,-0.04976,-0.265747,0.016521,0.2708698378372904
57,44.937773,-93.17726,2025-03-14T02:20:28Z,-0.284182,0.166805,0.072871,0.337481110271375
58,44.937666,-93.177257,2025-03-14T02:20:29Z,0.039219,-0.108249,0.040417,0.1220225792671176
59,44.937555,-93.177257,2025-03-14T02:20:30Z,-0.011092,-0.120943,0.056178,0.13381408519658908
60,44.937445,-93.177253,2025-03-14T02:20:31Z,0.177336,0.086648,-0.036399,0.20070082212337845
61,44.937335,-93.177257,2025-03-14T02:20:32Z,0.19786,0.056132,-0.061438,0.21464857061718348
62,44.937224,-93.177255,2025-03-14T02:20:33Z,0.174738,0.059162,0.020646,0.18563342426405866
63,44.937111,-93.17725,2025-03-14T02:20:34Z,0.219603,-0.068686,-0.074725,0.24192368596315658
64,44.936997,-93.177249,2025-03-14T02:20:35Z,0.299916,0.071528,0.005498,0.3083765390622315
65,44.936878,-93.177252,2025-03-14T02:20:36Z,0.106369,0.081715,0.005804,0.1342586749599444
66,44.936755,-93.177254,2025-03-14T02:20:37Z,0.217717,0.033149,-0.044825,0.22474169376197198
67,44.936631,-93.177255,2025-03-14T02:20:38Z,0.135972,0.028164,-0.041004,0.14478578554540497
68,44.936508,-93.177264,2025-03-14T02:20:39Z,0.055553,0.104789,0.034148,0.12342186286878026
69,44.936386,-93.177261,2025-03-14T02:20:40Z,0.043782,-0.157292,0.005449,0.16336256728210413
70,44.936262,-93.177261,2025-03-14T02:20:41Z,-0.156502,0.075012,0.001398,0.17355584274809074
71,44.936138,-93.177257,2025-03-14T02:20:42Z,-0.190897,-0.386581,0.22243,0.48514084456990425
72,44.936017,-93.177257,2025-03-14T02:20:43Z,-0.177804,0.228374,7.52e-4,0.28942963185548226
73,44.935893,-93.177262,2025-03-14T02:20:44Z,-0.183559,-0.086441,0.098983,0.22575116223621086
74,44.935772,-93.177265,2025-03-14T02:20:45Z,-0.278696,-0.123225,0.034422,0.3066606188035888
75,44.935657,-93.177267,2025-03-14T02:20:46Z,-0.223596,-0.171034,0.102046,0.2994347783541518
76,44.935548,-93.17726,2025-03-14T02:20:47Z,-0.284096,-0.017194,0.105831,0.3036550203981485
77,44.935435,-93.17726,2025-03-14T02:20:48Z,-0.242256,-0.077635,0.109675,0.27702665645385105
78,44.935325,-93.177261,2025-03-14T02:20:49Z,-0.274857,0.003408,0.056088,0.28054206218854244
79,44.935222,-93.177258,2025-03-14T02:20:50Z,-0.106628,-0.271816,0.056875,0.2974697192404632
80,44.935121,-93.177258,2025-03-14T02:20:51Z,-0.198092,-0.009391,-0.210902,0.2894966061096399
81,44.935023,-93.177257,2025-03-14T02:20:52Z,-0.244965,-0.066275,-0.120836,0.28107217177443944
82,44.934927,-93.17725,2025-03-14T02:20:53Z,-0.287442,-0.082773,0.096199,0.3142109490358348
83,44.934836,-93.177236,2025-03-14T02:20:54Z,-0.186692,-0.078682,0.262755,0.331790521282631
84,44.93474,-93.177233,2025-03-14T02:20:55Z,-0.247056,-0.020898,0.182783,0.3080308728504336
85,44.934663,-93.177233,2025-03-14T02:20:56Z,-0.465074,-0.206624,0.275481,0.5786856523303476
86,44.934581,-93.177225,2025-03-14T02:20:57Z,-0.525657,-0.12528,0.254393,0.5972655678155238
87,44.934511,-93.177225,2025-03-14T02:20:58Z,-0.460788,-0.115137,0.20776,0.5184074915672033
1,44.934263,-93.167187,2025-03-14T02:05:44Z,0.962784,0.169413,2.057092,2.2775603815681813
2,44.93429,-93.167289,2025-03-14T02:05:45Z,0.840573,0.208221,0.341988,0.9310610857049069
3,44.934298,-93.167408,2025-03-14T02:05:46Z,0.487345,0.187049,-0.313916,0.6091270249151649
4,44.934302,-93.167519,2025-03-14T02:05:47Z,0.316722,0.082181,-0.297719,0.442383481841264
5,44.93431,-93.167627,2025-03-14T02:05:48Z,0.188681,0.044132,-0.266872,0.3298011788471958
6,44.934314,-93.167751,2025-03-14T02:05:50Z,0.051451,-0.009832,-0.275465,0.28040121228339937
7,44.934319,-93.167902,2025-03-14T02:05:51Z,-0.09677,-0.026605,-0.221245,0.24294363327735097
8,44.93432,-93.168047,2025-03-14T02:05:52Z,-0.201484,-0.02778,-0.19401,0.28108256928525466
9,44.934323,-93.168198,2025-03-14T02:05:53Z,-0.259065,-0.066377,-0.129032,0.2969340623404462
10,44.934325,-93.168355,2025-03-14T02:05:54Z,-0.194079,-0.097967,-0.10393,0.24096812285030567
11,44.934319,-93.168502,2025-03-14T02:05:55Z,-0.230607,-0.11633,-0.134974,0.29142792938392165
12,44.934324,-93.168676,2025-03-14T02:05:56Z,-0.433966,-0.036864,-0.09846,0.44651966950180366
13,44.934326,-93.168834,2025-03-14T02:05:57Z,-0.46927,-0.150682,-0.058144,0.49628633142572043
14,44.934323,-93.169006,2025-03-14T02:05:58Z,-0.487369,-0.144317,-0.018275,0.5086156842597365
15,44.93432,-93.169171,2025-03-14T02:05:59Z,-0.412404,-0.142483,0.024864,0.4370316727664026
16,44.934321,-93.169337,2025-03-14T02:06:00Z,-0.455301,-0.092423,0.084329,0.47217834741864223
17,44.934323,-93.169511,2025-03-14T02:06:01Z,-0.348473,-0.120059,0.072699,0.3756763764345583
18,44.934324,-93.169685,2025-03-14T02:06:02Z,-0.429048,-0.209071,0.059474,0.4809678014389321
19,44.934324,-93.16986,2025-03-14T02:06:03Z,-0.245228,-0.130165,-0.010571,0.2778334847530081
20,44.934324,-93.170032,2025-03-14T02:06:04Z,-0.323372,-0.10671,0.026454,0.3415498332600969
21,44.934326,-93.170204,2025-03-14T02:06:05Z,-0.314695,-0.136728,0.007577,0.34319804768966855
22,44.934325,-93.170371,2025-03-14T02:06:06Z,-0.354274,-0.089387,0.049846,0.36876106974706535
23,44.934297,-93.170503,2025-03-14T02:06:07Z,-0.437424,-0.140081,0.051281,0.46216034370984277
24,44.934315,-93.170722,2025-03-14T02:06:08Z,-0.398001,-0.135315,0.050299,0.42337328048307443
25,44.934311,-93.17088,2025-03-14T02:06:09Z,-0.404436,-0.067673,0.060431,0.4144876581829669
26,44.934315,-93.171059,2025-03-14T02:06:10Z,-0.34741,-0.207729,0.049793,0.40782887145223057
27,44.934315,-93.171223,2025-03-14T02:06:11Z,-0.318476,-0.102409,0.118092,0.35476793305060705
28,44.934314,-93.171392,2025-03-14T02:06:12Z,-0.270744,-0.124119,0.119174,0.3207963247498325
29,44.93431,-93.171559,2025-03-14T02:06:13Z,-0.223546,-0.085743,0.106015,0.2618470095112793
30,44.934308,-93.171724,2025-03-14T02:06:14Z,-0.134938,-0.074148,-0.039785,0.15902526834751765
31,44.934321,-93.171891,2025-03-14T02:06:15Z,-0.101139,0.036606,-0.070812,0.12877669005297507
32,44.934327,-93.172064,2025-03-14T02:06:16Z,0.047599,-0.085597,-0.036717,0.10459755876214322
33,44.934312,-93.172243,2025-03-14T02:06:17Z,-0.034368,-0.010167,0.111743,0.11735001219428995
34,44.934312,-93.172408,2025-03-14T02:06:18Z,0.026039,-0.072024,0.055493,0.09457779414852094
35,44.934312,-93.172581,2025-03-14T02:06:19Z,-0.082115,0.012797,0.064348,0.10510614414961668
36,44.934314,-93.17276,2025-03-14T02:06:20Z,-0.044712,-4.08e-4,0.063408,0.07758803949063284
37,44.934315,-93.172926,2025-03-14T02:06:21Z,-0.032077,-0.053074,0.008441,0.06258621162844097
38,44.934315,-93.173099,2025-03-14T02:06:22Z,-0.145912,-0.059482,-0.018022,0.1585976435890521
39,44.934317,-93.173269,2025-03-14T02:06:23Z,-0.210987,0.077097,-0.014758,0.22511610369318316
40,44.934317,-93.17344,2025-03-14T02:06:24Z,-0.208233,-0.214994,0.139761,0.3303279271360507
41,44.934317,-93.173606,2025-03-14T02:06:25Z,-0.244779,-0.055265,0.036595,0.2535945052460719
42,44.934315,-93.173744,2025-03-14T02:06:26Z,-0.114226,-0.075895,0.041185,0.14319160005391376
43,44.934312,-93.173936,2025-03-14T02:06:27Z,-0.054906,-0.02041,0.111334,0.1258034041351823
44,44.934319,-93.174094,2025-03-14T02:06:28Z,-0.075062,0.02504,0.059469,0.09898417754873756
45,44.934319,-93.174253,2025-03-14T02:06:29Z,-0.022442,-0.01656,0.081508,0.08614772793289444
46,44.934319,-93.174414,2025-03-14T02:06:30Z,0.059691,-0.001632,0.029053,0.06640599155196766
47,44.934323,-93.174575,2025-03-14T02:06:31Z,0.039925,0.043371,0.01215,0.06018863485742138
48,44.934326,-93.174728,2025-03-14T02:06:32Z,0.002756,-0.006936,-0.004639,0.008787716028639068
49,44.934325,-93.174895,2025-03-14T02:06:33Z,0.075099,-0.05797,-0.020242,0.09700576923564906
50,44.934324,-93.175056,2025-03-14T02:06:34Z,0.087076,-0.040021,-0.013892,0.09683438377456637
51,44.934328,-93.175213,2025-03-14T02:06:35Z,-0.001319,0.019176,0.059201,0.06224320957341451
52,44.934323,-93.175369,2025-03-14T02:06:36Z,0.090024,-0.024354,0.041447,0.10205533646507664
53,44.934325,-93.175524,2025-03-14T02:06:37Z,-9.27e-4,0.028281,0.03944,0.04854057982760404
54,44.934325,-93.17569,2025-03-14T02:06:38Z,-0.111662,-0.076396,0.067614,0.1512494762172749
55,44.934325,-93.175848,2025-03-14T02:06:38Z,-0.008608,-0.067553,0.041398,0.07969504298888357
56,44.934323,-93.176001,2025-03-14T02:06:39Z,0.139336,0.082104,-0.048181,0.168751285841027
57,44.934322,-93.176155,2025-03-14T02:06:40Z,0.106854,-0.062669,-0.011828,0.1244390712798838
58,44.934325,-93.176313,2025-03-14T02:06:41Z,-0.304014,-0.05746,0.146943,0.3425177499707132
59,44.934326,-93.17647,2025-03-14T02:06:42Z,-0.792148,-0.241141,0.422337,0.9295245974980973
60,44.934325,-93.176603,2025-03-14T02:06:43Z,-0.949112,-0.25911,0.820635,1.2811687569828574
61,44.934336,-93.176724,2025-03-14T02:06:44Z,-1.06203,-0.315283,0.450495,1.1959334580209722
62,44.934344,-93.176827,2025-03-14T02:06:45Z,-0.914085,-0.257248,0.160147,0.9630031060894871
63,44.934348,-93.17692,2025-03-14T02:06:46Z,-1.010611,-0.299624,0.095812,1.0584370902613909
64,44.934351,-93.176993,2025-03-14T02:06:47Z,-1.239914,-0.336266,0.309203,1.321388680654182
65,44.934352,-93.177042,2025-03-14T02:06:48Z,-1.286923,-0.371463,0.352296,1.385015537787934
1,44.934293,-93.177075,2025-03-14T02:21:04Z,0.753448,0.223789,-0.074497,0.7895031401039517
2,44.934292,-93.177004,2025-03-14T02:21:05Z,1.03033,0.316462,0.126138,1.0851907212043421
3,44.934289,-93.176908,2025-03-14T02:21:06Z,0.885386,0.237177,0.538937,1.063303525948259
4,44.934296,-93.176819,2025-03-14T02:21:07Z,0.837492,0.2304,0.604694,1.0583628128860159
5,44.9343,-93.176705,2025-03-14T02:21:08Z,0.625899,0.184751,0.485007,0.8130893433387255
6,44.934295,-93.176579,2025-03-14T02:21:09Z,0.452568,0.164601,0.448312,0.6579475155124457
7,44.934275,-93.17644,2025-03-14T02:21:10Z,0.206514,0.115282,0.483871,0.5385806498204332
8,44.934274,-93.176292,2025-03-14T02:21:11Z,0.222042,0.052346,0.586279,0.6290992126215069
9,44.934274,-93.17614,2025-03-14T02:21:12Z,-0.001242,-0.054457,0.584919,0.5874498650727566
10,44.934273,-93.175986,2025-03-14T02:21:13Z,-0.179942,-0.001462,0.557024,0.5853691120856993
11,44.934273,-93.175819,2025-03-14T02:21:14Z,-0.333146,-0.0979,0.548663,0.649308674580126
12,44.934272,-93.17566,2025-03-14T02:21:15Z,-0.393477,-0.157446,0.488924,0.6470394657368281
13,44.934272,-93.175495,2025-03-14T02:21:16Z,-0.407301,-0.069994,0.399717,0.5749495149367464
14,44.934271,-93.17533,2025-03-14T02:21:17Z,-0.353296,-0.153091,0.349163,0.519778528284884
15,44.934271,-93.175164,2025-03-14T02:21:18Z,-0.310013,-0.042137,0.385061,0.4961406662016327
16,44.934271,-93.174999,2025-03-14T02:21:19Z,-0.316929,-0.10807,0.445456,0.557273867929405
17,44.934287,-93.174831,2025-03-14T02:21:20Z,-0.25531,-0.200916,0.293664,0.43793718733626624
18,44.934269,-93.174669,2025-03-14T02:21:21Z,-0.310199,-0.081852,0.285192,0.429252427330353
19,44.934269,-93.174508,2025-03-14T02:21:22Z,-0.27779,0.027821,0.24783,0.3733108638132568
20,44.934268,-93.174347,2025-03-14T02:21:23Z,-0.205683,-0.086126,0.261901,0.34396993788120495
21,44.934268,-93.174181,2025-03-14T02:21:24Z,-0.117624,-0.002721,0.194804,0.22757725640537987
22,44.934279,-93.174018,2025-03-14T02:21:25Z,-0.406445,-0.115222,0.226611,0.4794019113749965
23,44.934269,-93.173853,2025-03-14T02:21:26Z,-0.480511,-0.094846,0.18907,0.5250086187263977
24,44.934274,-93.173702,2025-03-14T02:21:27Z,-0.19221,-0.116195,0.26133,0.3445857382785887
25,44.93428,-93.173542,2025-03-14T02:21:28Z,-0.188265,-0.112794,0.307389,0.3776959014630686
26,44.93427,-93.173394,2025-03-14T02:21:29Z,-0.13328,0.034308,0.089873,0.1643707802287256
27,44.934269,-93.173238,2025-03-14T02:21:30Z,-0.013244,-0.088851,0.155809,0.17985090552454833
28,44.934273,-93.173083,2025-03-14T02:21:31Z,-0.019553,0.013583,0.195307,0.19675274317528585
29,44.934272,-93.172932,2025-03-14T02:21:32Z,-0.026705,-0.006517,0.100458,0.10415103493484834
30,44.93427,-93.172778,2025-03-14T02:21:33Z,0.034691,-0.035532,0.041535999999999997,0.06473969262361383
31,44.934269,-93.172619,2025-03-14T02:21:34Z,0.039701,-0.012321,0.069825,0.0812619656850608
32,44.934271,-93.172468,2025-03-14T02:21:35Z,0.079746,0.063856,0.065826,0.12153219955221743
33,44.934271,-93.172311,2025-03-14T02:21:36Z,0.103975,-0.02941,0.034975,0.11357376171457913
34,44.934271,-93.172155,2025-03-14T02:21:37Z,0.079107,0.02554,-0.006811,0.08340622740539222
35,44.934272,-93.171994,2025-03-14T02:21:38Z,0.138415,-0.016164,0.046659,0.1469593460859159
36,44.934272,-93.171835,2025-03-14T02:21:39Z,-0.095515,0.02905,0.063584,0.11836360412305803
37,44.934272,-93.171677,2025-03-14T02:21:40Z,-0.121541,-0.047804,0.111112,0.17147394449594958
38,44.934259,-93.171523,2025-03-14T02:21:41Z,0.055029,-0.013665,0.156867,0.16679981641176947
39,44.934265,-93.171362,2025-03-14T02:21:42Z,0.131993,-0.017553,-0.005665,0.13327547442421656
40,44.934266,-93.171203,2025-03-14T02:21:43Z,0.167381,0.006442,0.043639,0.17309610291973648
41,44.934266,-93.171044,2025-03-14T02:21:44Z,0.143713,-0.01371,-0.039326,0.14962594943725505
42,44.934266,-93.170882,2025-03-14T02:21:45Z,0.129514,0.05479,-0.042095,0.1467917208871127
43,44.934263,-93.17072,2025-03-14T02:21:46Z,0.164651,0.002703,-0.031928,0.1677398437879325
44,44.934265,-93.17055,2025-03-14T02:21:47Z,0.10361,0.019816,-0.016346,0.10674688600610323
45,44.934265,-93.170384,2025-03-14T02:21:48Z,0.169496,0.041423,0.066024,0.18655810762601555
46,44.934266,-93.170213,2025-03-14T02:21:49Z,0.14301,0.009583,0.080813,0.16454310972508085
47,44.934266,-93.170039,2025-03-14T02:21:50Z,0.083244,-0.026404,0.063715,0.10810335784331586
48,44.934263,-93.169866,2025-03-14T02:21:51Z,0.060757,-0.058459,0.016384,0.08589122880713723
49,44.934262,-93.16969,2025-03-14T02:21:52Z,0.012261,-0.16786,-0.062943,0.17969177212660573
50,44.934261,-93.169512,2025-03-14T02:21:53Z,-0.062325,0.058523,-0.076427,0.11467533947191959
51,44.934258,-93.169336,2025-03-14T02:21:54Z,-0.177613,-0.063868,0.10313,0.21508439295541643
52,44.934263,-93.16916,2025-03-14T02:21:55Z,-0.257458,-0.136709,0.22753,0.36978895784622884
53,44.93425,-93.168991,2025-03-14T02:21:56Z,-0.274328,-0.052223,0.050691,0.2838180240823335
54,44.934265,-93.168822,2025-03-14T02:21:57Z,-0.288161,-0.105695,0.071389,0.3151262989136261
55,44.934261,-93.168657,2025-03-14T02:21:58Z,-0.259314,-0.066484,0.162909,0.3133739222287011
56,44.934248,-93.168502,2025-03-14T02:21:59Z,-0.494735,-0.172822,0.206698,0.5633420161083318
57,44.934262,-93.168345,2025-03-14T02:22:00Z,-0.602439,-0.205996,0.261753,0.6883906839477129
58,44.934257,-93.168202,2025-03-14T02:22:01Z,-0.667181,-0.198999,0.251221,0.740164224752183
59,44.934256,-93.168069,2025-03-14T02:22:02Z,-0.594832,-0.180817,0.186321,0.6490265100548668
60,44.934257,-93.167948,2025-03-14T02:22:03Z,-0.629478,-0.176076,0.180067,0.6779892585793671
61,44.934255,-93.167838,2025-03-14T02:22:04Z,-0.562338,-0.206075,0.133714,0.61365329434869
62,44.934257,-93.167736,2025-03-14T02:22:05Z,-0.652102,-0.190277,0.223258,0.7150429984951954
63,44.934252,-93.167649,2025-03-14T02:22:06Z,-0.64824,-0.197009,0.200224,0.7064823379653592
64,44.934254,-93.167574,2025-03-14T02:22:07Z,-0.827953,-0.245613,0.248467,0.898647743037838
65,44.934257,-93.167514,2025-03-14T02:22:08Z,-0.773628,-0.223482,0.249032,0.8428887374570857
66,44.934257,-93.167473,2025-03-14T02:22:09Z,-0.28033,-0.070879,0.100048,0.30597114871340403
67,44.934254,-93.167447,2025-03-14T02:22:10Z,0.049634,0.019369,0.025004,0.058854839503646596
68,44.934254,-93.167432,2025-03-14T02:22:11Z,0.268595,0.08086,-0.048118,0.2845996408096819
1,44.941548,-93.167288,2025-03-14T02:24:22Z,0.039694,0.043606,-0.176038,0.18565148616695748
2,44.94155,-93.167377,2025-03-14T02:24:23Z,0.393312,0.142839,0.276062,0.5013058319120176
3,44.941552,-93.167487,2025-03-14T02:24:24Z,0.658185,0.114824,0.435797,0.7976910870819606
4,44.941544,-93.167605,2025-03-14T02:24:25Z,0.51771,0.209203,0.334331,0.6508200648950523
5,44.941545,-93.167737,2025-03-14T02:24:26Z,0.519106,0.078586,0.333667,0.6220775397978936
6,44.941545,-93.167879,2025-03-14T02:24:27Z,0.294811,0.148242,0.454239,0.5614466006718716
7,44.941545,-93.168037,2025-03-14T02:24:28Z,0.037206,-0.03243,0.468621,0.4712129380407546
8,44.941539,-93.168207,2025-03-14T02:24:29Z,-0.085005,-0.0247,0.453088,0.46165428165349015
9,44.941539,-93.168379,2025-03-14T02:24:30Z,-0.226023,-0.093231,0.424266,0.48967341631540506
10,44.941542,-93.168551,2025-03-14T02:24:31Z,-0.444892,-0.118754,0.510211,0.6872748130849842
11,44.941545,-93.168729,2025-03-14T02:24:32Z,-0.53843,-0.125183,0.613876,0.8260880048548096
12,44.941541,-93.168905,2025-03-14T02:24:33Z,-0.51899,2.57e-4,0.562537,0.7653747856560209
13,44.941532,-93.169094,2025-03-14T02:24:34Z,-0.479271,-0.149409,0.496911,0.7063598818187511
14,44.941535,-93.169274,2025-03-14T02:24:35Z,-0.567677,-0.060601,0.305163,0.6473438916827747
15,44.941539,-93.169447,2025-03-14T02:24:36Z,-0.343498,-0.086346,0.355774,0.5020175761823484
16,44.941539,-93.169629,2025-03-14T02:24:37Z,-0.334754,-0.143644,0.240492,0.436497699095883
17,44.941536,-93.169804,2025-03-14T02:24:38Z,-0.181703,-0.021083,0.277277,0.3321791803033417
18,44.941534,-93.169976,2025-03-14T02:24:39Z,-0.269979,-0.020757,0.141058,0.30531438363431224
19,44.941536,-93.170153,2025-03-14T02:24:40Z,-0.096635,-0.132222,0.120266,0.2031868383163634
20,44.941536,-93.170331,2025-03-14T02:24:41Z,-0.226056,-0.002273,0.220265,0.3156313544152418
21,44.941536,-93.17051,2025-03-14T02:24:42Z,-0.110556,-0.064789,0.168283,0.2115169301639942
22,44.941534,-93.170687,2025-03-14T02:24:43Z,-0.088371,0.043816,0.203501,0.2261458213144784
23,44.94153,-93.170873,2025-03-14T02:24:44Z,-0.039765,-0.21837,0.229115,0.31899905227131947
24,44.94153,-93.171048,2025-03-14T02:24:45Z,-0.115661,0.01196,0.082488,0.14256499803598358
25,44.941534,-93.171231,2025-03-14T02:24:46Z,-0.060463,-0.013154,0.075342,0.09749471292844551
26,44.941537,-93.171412,2025-03-14T02:24:47Z,-0.083919,-0.00822,0.115356,0.14288797604067321
27,44.94153,-93.1716,2025-03-14T02:24:48Z,-0.055266,-0.052679,0.189635,0.2044280827626185
28,44.941527,-93.171786,2025-03-14T02:24:49Z,-0.044238,-0.048869,0.099344,0.1192242011547991
29,44.94153,-93.171967,2025-03-14T02:24:50Z,-0.023131,-0.066612,0.071986,0.10076798053449319
30,44.94153,-93.172153,2025-03-14T02:24:51Z,-0.068663,0.059066,0.081599,0.12190896901376863
31,44.941529,-93.172338,2025-03-14T02:24:52Z,-0.069721,-0.071042,0.040649,0.10751895091564091
32,44.941528,-93.172524,2025-03-14T02:24:53Z,-0.003257,-0.011555,0.124801,0.12537709390076004
33,44.941529,-93.172717,2025-03-14T02:24:54Z,0.027032,-0.156568,0.110612,0.1935956667696878
34,44.94153,-93.172902,2025-03-14T02:24:55Z,-0.326933,0.019866,0.17321,0.3705152473853134
35,44.941531,-93.17309,2025-03-14T02:24:56Z,-0.351675,-0.117325,0.16653,0.40641444628605417
36,44.941535,-93.173275,2025-03-14T02:24:57Z,-0.403907,-0.115178,0.153003,0.44700867367647357
37,44.941534,-93.173453,2025-03-14T02:24:58Z,-0.194785,-0.199589,0.181045,0.33249700325115716
38,44.941537,-93.173627,2025-03-14T02:24:59Z,-0.257173,-0.008493,0.158638,0.30228479621376925
39,44.941539,-93.173796,2025-03-14T02:25:00Z,-0.061263,-0.089888,0.613575,0.6231430721254951
40,44.941543,-93.173965,2025-03-14T02:25:01Z,0.039898,0.021264,1.259864,1.260674940893171
41,44.941561,-93.174129,2025-03-14T02:25:02Z,0.024904,-0.056061,0.929198,0.931220687131144
42,44.941584,-93.174287,2025-03-14T02:25:03Z,-0.122894,-0.061444,0.034187,0.14158761012532137
43,44.941612,-93.174442,2025-03-14T02:25:04Z,-0.096126,-0.021004,-0.553565,0.5622415718505703
44,44.941637,-93.17459,2025-03-14T02:25:05Z,-0.138497,0.035884,-0.988445,0.9987455123753999
45,44.941658,-93.174746,2025-03-14T02:25:06Z,-0.019938,-0.069486,-0.952348,0.9550877138483145
46,44.941666,-93.1749,2025-03-14T02:25:07Z,0.077233,0.080325,-0.682935,0.6919662247097036
47,44.941665,-93.175062,2025-03-14T02:25:08Z,0.16975,0.063313,-0.223516,0.2877203516002996
48,44.94166,-93.175225,2025-03-14T02:25:09Z,0.110165,0.070221,0.016566,0.1316880724363448
49,44.941663,-93.175368,2025-03-14T02:25:10Z,0.017476,-0.089058,0.024322,0.09395902098255388
50,44.941666,-93.175516,2025-03-14T02:25:11Z,-0.019455,-0.066235,0.035629,0.07768524886360344
51,44.941663,-93.175701,2025-03-14T02:25:12Z,-0.250264,-0.05478,0.215718,0.33491368084926
52,44.941659,-93.175862,2025-03-14T02:25:13Z,-0.365009,-0.132651,0.223689,0.4481792349083121
53,44.941658,-93.176011,2025-03-14T02:25:14Z,-0.336458,-0.108702,0.201638,0.4070356171295087
54,44.941665,-93.176147,2025-03-14T02:25:15Z,-0.312312,-0.136967,0.100106,0.35541518772978736
55,44.94166,-93.176284,2025-03-14T02:25:16Z,-0.341098,0.043848,0.141877,0.37202093467572495
56,44.941662,-93.176416,2025-03-14T02:25:17Z,-0.676148,-0.269688,0.222107,0.7610776929440253
57,44.941666,-93.176533,2025-03-14T02:25:18Z,-0.849299,-0.283858,0.336055,0.9564607250640248
58,44.94166,-93.176636,2025-03-14T02:25:19Z,-0.731742,-0.242601,0.301852,0.827898683214921
59,44.941657,-93.176728,2025-03-14T02:25:20Z,-0.638494,-0.155296,0.306903,0.7252453978213167
60,44.941656,-93.176803,2025-03-14T02:25:21Z,-0.571121,-0.149006,0.239763,0.6370779236843794
61,44.94166,-93.176867,2025-03-14T02:25:22Z,-0.57523,-0.208196,0.231692,0.6541531244135428
62,44.941658,-93.176917,2025-03-14T02:25:23Z,-0.788568,-0.21297,0.295371,0.8685849061346853
63,44.941656,-93.176946,2025-03-14T02:25:24Z,-0.066201,-0.044317,0.078083,0.11155054360692286
64,44.941655,-93.176969,2025-03-14T02:25:25Z,0.870242,0.263276,-0.203752,0.9317458174008617
65,44.941655,-93.176986,2025-03-14T02:25:26Z,1.471937,0.419709,-0.297721,1.5592921376352156
66,44.941656,-93.177016,2025-03-14T02:25:27Z,1.485877,0.410235,-0.375461,1.5865352743872414
67,44.941657,-93.177065,2025-03-14T02:25:28Z,1.057744,0.409303,-0.587647,1.277372424923131
1,44.941365,-93.177041,2025-03-14T02:08:11Z,1.10621,0.284863,0.614624,1.2971546377533405
2,44.941371,-93.176964,2025-03-14T02:08:12Z,1.035202,0.194817,0.383002,1.1208422620052296
3,44.941373,-93.176862,2025-03-14T02:08:13Z,0.73537,0.218464,-0.215103,0.7967213169013365
4,44.941388,-93.176745,2025-03-14T02:08:14Z,0.525316,0.139573,-0.554798,0.7766841977206695
5,44.941382,-93.17663,2025-03-14T02:08:15Z,0.377385,0.206722,-0.536534,0.6877660624551054
6,44.941384,-93.176491,2025-03-14T02:08:16Z,0.181135,0.026631,-0.453209,0.48879187397807666
7,44.941382,-93.176357,2025-03-14T02:08:17Z,-0.07624,-0.018037,-0.33927,0.3481982249653206
8,44.941381,-93.176215,2025-03-14T02:08:18Z,-0.08895,-0.049535,-0.439939,0.4515663212043166
9,44.941379,-93.176066,2025-03-14T02:08:19Z,-0.159318,-0.008088,-0.42366,0.45269795279855196
10,44.941378,-93.17591,2025-03-14T02:08:20Z,-0.288669,-0.105742,-0.361571,0.47459956823199917
11,44.941379,-93.175761,2025-03-14T02:08:21Z,-0.455455,-0.056891,-0.300006,0.548342450428562
12,44.941375,-93.175606,2025-03-14T02:08:22Z,-0.582502,-0.161932,-0.267921,0.6612958603144283
13,44.941373,-93.17544,2025-03-14T02:08:23Z,-0.580651,-0.218965,-0.148684,0.6381286601321084
14,44.941372,-93.175286,2025-03-14T02:08:24Z,-0.625142,-0.131778,-0.145955,0.6553402348955846
15,44.941373,-93.175131,2025-03-14T02:08:25Z,-0.652634,-0.180526,-0.197811,0.7054430993021337
16,44.941377,-93.174973,2025-03-14T02:08:26Z,-0.688824,-0.191113,-0.381066,0.8100703537971254
17,44.941379,-93.174826,2025-03-14T02:08:27Z,-0.699543,-0.187071,-0.745232,1.0390989855225536
18,44.941391,-93.174673,2025-03-14T02:08:28Z,-0.645326,-0.231601,-0.900518,1.1318203646343354
19,44.941414,-93.174543,2025-03-14T02:08:29Z,-0.555109,-0.069247,-0.77183,0.9532380068954448
20,44.941442,-93.174389,2025-03-14T02:08:30Z,-0.397367,-8.86e-4,-0.196879,0.44346663721863006
21,44.941467,-93.17425,2025-03-14T02:08:31Z,0.088392,-0.133273,0.537608,0.5608896503386384
22,44.941485,-93.174103,2025-03-14T02:08:32Z,0.243486,0.113096,0.878786,0.9188802812162202
23,44.941496,-93.173953,2025-03-14T02:08:33Z,0.245816,0.086822,0.732237,0.7772609534184771
24,44.941498,-93.173801,2025-03-14T02:08:34Z,0.188318,0.036665,0.405575,0.44866365127342334
25,44.941499,-93.173643,2025-03-14T02:08:35Z,0.075809,-0.015362,0.150273,0.1690117453137503
26,44.941495,-93.173488,2025-03-14T02:08:36Z,0.164501,-0.026481,-0.054181,0.1752067439426919
27,44.941496,-93.173324,2025-03-14T02:08:38Z,0.124255,-0.010159,-0.063921,0.14010140808357352
28,44.941494,-93.173151,2025-03-14T02:08:38Z,0.052654,0.02432,-0.069986,0.09089524911677178
29,44.941493,-93.172993,2025-03-14T02:08:39Z,0.074898,-0.077086,-0.081305,0.134768189217634
30,44.941495,-93.172818,2025-03-14T02:08:40Z,-0.019534,-0.010905,-0.060609,0.06460609152394223
31,44.941493,-93.172647,2025-03-14T02:08:41Z,-0.090006,0.011425,-0.053298,0.10522493746731333
32,44.941493,-93.172476,2025-03-14T02:08:42Z,-0.142045,-0.04602,-0.068525,0.16428724250531446
33,44.941491,-93.172305,2025-03-14T02:08:43Z,-0.151922,-0.113068,4.5e-4,0.18938022390946738
34,44.941494,-93.172127,2025-03-14T02:08:44Z,-0.152665,-0.032038,-0.025279,0.1580255153764733
35,44.941493,-93.171955,2025-03-14T02:08:45Z,-0.109401,-0.048114,-0.006725,0.11970280457031907
36,44.941493,-93.171785,2025-03-14T02:08:46Z,-0.021167,-0.104546,-0.01557,0.10779764795671563
37,44.941492,-93.171615,2025-03-14T02:08:47Z,-0.083317,0.007696,0.02135,0.08635261087541013
38,44.941494,-93.171443,2025-03-14T02:08:48Z,-0.069126,-0.049404000000000003,0.024193,0.08834285676272871
39,44.941493,-93.171262,2025-03-14T02:08:49Z,-0.077424,-0.037343,0.024952,0.0895074171731036
40,44.941493,-93.17109,2025-03-14T02:08:50Z,-0.110629,-0.050286,0.021634,0.12343211653779579
41,44.941493,-93.170917,2025-03-14T02:08:51Z,-0.103787,-0.052071,-0.001006,0.1161212402878991
42,44.941491,-93.170743,2025-03-14T02:08:52Z,-0.197747,-0.11694,-0.021323,0.23072388246126582
43,44.941492,-93.170571,2025-03-14T02:08:53Z,-0.291834,-0.060036,-0.040632,0.30070311650529996
44,44.941493,-93.1704,2025-03-14T02:08:54Z,0.046426,-0.166747,0.127109,0.21474783669690367
45,44.941491,-93.170234,2025-03-14T02:08:55Z,-0.10664,0.05471,0.00644,0.12002811045750908
46,44.941493,-93.170064,2025-03-14T02:08:56Z,0.00672,-0.048152,-0.007554,0.04920199609771945
47,44.941491,-93.169894,2025-03-14T02:08:57Z,-0.081409,0.017396,-0.009706,0.08381081393829795
48,44.941492,-93.169731,2025-03-14T02:08:58Z,-0.081398,0.014895,0.019943,0.08511885030943497
49,44.941491,-93.169562,2025-03-14T02:08:59Z,0.022187,-0.130957,0.058385,0.1450889625126598
50,44.941491,-93.169393,2025-03-14T02:09:00Z,-0.019763,0.050774,-0.009631,0.05532929970639426
51,44.941491,-93.169228,2025-03-14T02:09:01Z,0.02255,0.009754,0.072588,0.07663328754529587
52,44.941491,-93.169062,2025-03-14T02:09:02Z,0.046307,0.136267,-0.018972,0.14516532065889567
53,44.94149,-93.168895,2025-03-14T02:09:03Z,0.037088,0.030224,-0.008741,0.04863553228864675
54,44.94149,-93.168728,2025-03-14T02:09:04Z,0.009534,0.032735,0.035557,0.04926233480053498
55,44.941489,-93.168563,2025-03-14T02:09:05Z,0.014394,1.67e-4,0.036824,0.03953760363249144
56,44.941491,-93.168398,2025-03-14T02:09:06Z,-0.068159,-0.044437,0.058423,0.10016757548728031
57,44.941484,-93.168235,2025-03-14T02:09:07Z,-0.177744,-0.064093,0.164385,0.250446142733323
58,44.941484,-93.168073,2025-03-14T02:09:08Z,-0.238744,-0.116207,0.109095,0.2870618111313311
59,44.941477,-93.167918,2025-03-14T02:09:09Z,-0.412312,-0.118657,0.123257,0.44639999668682795
60,44.941476,-93.167774,2025-03-14T02:09:10Z,-0.641098,-0.203218,0.265749,0.723136731281851
61,44.941475,-93.167636,2025-03-14T02:09:11Z,-1.08408,-0.298349,0.347287,1.1767964278370324
62,44.941474,-93.167511,2025-03-14T02:09:12Z,-1.526173,-0.425404,0.365752,1.6260218678261988
63,44.941484,-93.167416,2025-03-14T02:09:13Z,-1.481781,-0.422288,0.40391,1.5928419177699336
64,44.941471,-93.167356,2025-03-14T02:09:14Z,-1.27498,-0.325806,0.397428,1.3746536164503407
65,44.941473,-93.167303,2025-03-14T02:09:15Z,-1.201504,-0.360872,0.390269,1.3138304132425158
1,44.941678,-93.167234,2025-03-14T02:17:42Z,0.357091,-0.278869,2.473111,2.514271250235941
2,44.941696,-93.167269,2025-03-14T02:17:43Z,0.807034,0.235201,0.427413,0.9430298299237411
3,44.941706,-93.167366,2025-03-14T02:17:44Z,0.933314,0.219163,-0.728331,1.2039823456870122
4,44.941712,-93.167453,2025-03-14T02:17:45Z,0.771582,0.281123,-0.444899,0.9339721859102658
5,44.941716,-93.167567,2025-03-14T02:17:46Z,0.181575,0.108973,-0.465056,0.5110006638841089
6,44.941702,-93.167682,2025-03-14T02:17:47Z,0.032324,-0.038058,-0.427042,0.42995130201454207
7,44.941703,-93.167807,2025-03-14T02:17:48Z,-0.315051,-0.188268,-0.327493,0.4918878301747259
8,44.941703,-93.167938,2025-03-14T02:17:49Z,-0.492423,0.003298,-0.2372,0.5465849684477245
9,44.94172,-93.168057,2025-03-14T02:17:50Z,-0.445332,-0.176383,-0.270461,0.5500733636834272
10,44.941719,-93.16818,2025-03-14T02:17:51Z,-0.430955,-0.083264,-0.136452,0.4596457919148178
11,44.941704,-93.168278,2025-03-14T02:17:52Z,-0.459684,-0.177118,-0.203211,0.5328929313670805
12,44.941705,-93.1684,2025-03-14T02:17:53Z,-0.443949,-0.073636,-0.202999,0.49368164751993765
13,44.941705,-93.168522,2025-03-14T02:17:54Z,-1.03656,-0.277351,0.011284,1.073083193166774
14,44.941705,-93.168636,2025-03-14T02:17:55Z,-1.067844,-0.54983,0.087872,1.2042945344142353
15,44.941706,-93.168705,2025-03-14T02:17:56Z,-0.911238,-0.1551,0.341948,0.9855653896865494
16,44.941706,-93.168783,2025-03-14T02:17:57Z,-1.890117,-0.530405,0.308563,1.9872299471080341
17,44.941706,-93.168904,2025-03-14T02:17:58Z,-1.777298,-0.534375,0.325216,1.884173630025906
18,44.941706,-93.169003,2025-03-14T02:17:59Z,-1.702263,-0.472179,0.313972,1.7942214874407227
19,44.94172,-93.169045,2025-03-14T02:18:00Z,-1.063935,-0.296157,0.168545,1.117172354607381
20,44.941719,-93.168988,2025-03-14T02:18:01Z,0.519818,0.153016,-0.289758,0.6144789239217241
21,44.941719,-93.169019,2025-03-14T02:18:02Z,1.400767,0.415779,-0.514811,1.5492097117081989
22,44.94172,-93.169049,2025-03-14T02:18:03Z,1.629014,0.414888,-0.544589,1.7670302328089917
23,44.941707,-93.169106,2025-03-14T02:18:04Z,1.430622,0.370232,-0.543544,1.5745447344054726
24,44.941707,-93.169163,2025-03-14T02:18:05Z,1.236143,0.254838,-0.431351,1.3338124335505348
25,44.941707,-93.169259,2025-03-14T02:18:06Z,1.075259,0.342079,-0.459997,1.2185225477318835
26,44.941707,-93.169354,2025-03-14T02:18:07Z,0.815569,0.189114,-0.341926,0.9043396973665372
27,44.941707,-93.169489,2025-03-14T02:18:08Z,0.554104,0.161402,-0.219498,0.6174635377283423
28,44.941723,-93.169601,2025-03-14T02:18:09Z,0.39326,0.04578,-0.204697,0.44570180368605194
29,44.941721,-93.169714,2025-03-14T02:18:10Z,0.073072,-0.032246,-0.089234,0.11975820830323071
30,44.941717,-93.169839,2025-03-14T02:18:11Z,-0.173573,0.015568,0.119665,0.21139929322966056
31,44.941715,-93.169974,2025-03-14T02:18:12Z,-0.022619,-0.066355,0.018754,0.07256939921206458
32,44.941718,-93.170104,2025-03-14T02:18:13Z,-0.298093,-0.102799,0.096472,0.32974826433811594
33,44.941712,-93.170245,2025-03-14T02:18:14Z,-0.843412,-0.252709,0.209723,0.9050908115509737
34,44.941712,-93.170377,2025-03-14T02:18:15Z,-1.875668,-0.565324,0.603933,2.04998944867748
35,44.941713,-93.17048,2025-03-14T02:18:16Z,-1.40291,-0.457844,0.361677,1.5194037806866878
36,44.941718,-93.170547,2025-03-14T02:18:17Z,-1.058078,-0.350219,0.229098,1.137834915815559
37,44.941715,-93.170602,2025-03-14T02:18:18Z,-0.844328,-0.220723,0.22611,0.9015176905712943
38,44.941718,-93.170648,2025-03-14T02:18:19Z,-1.302216,-0.384518,0.36217,1.4052714015022152
39,44.941717,-93.170677,2025-03-14T02:18:20Z,-1.152402,-0.315784,0.342452,1.242989652637543
40,44.941713,-93.170685,2025-03-14T02:18:21Z,0.090832,-0.017502,-0.009926,0.09303385246242359
41,44.941714,-93.170699,2025-03-14T02:18:22Z,0.980762,0.290887,-0.256318,1.054612850546114
42,44.941714,-93.170715,2025-03-14T02:18:23Z,1.542974,0.45076,-0.397356,1.6558517847355785
43,44.941716,-93.170755,2025-03-14T02:18:24Z,1.409027,0.45096,-0.351081,1.520519607532241
44,44.941714,-93.170815,2025-03-14T02:18:25Z,1.246625,0.158282,-0.316482,1.2958734268720076
45,44.941714,-93.170883,2025-03-14T02:18:26Z,1.096963,0.326148,-0.352469,1.1974701404352428
46,44.941711,-93.170956,2025-03-14T02:18:27Z,1.017116,0.285781,-0.289477,1.095441769765057
47,44.941709,-93.171057,2025-03-14T02:18:28Z,0.7006,0.123033,-0.114975,0.7205530721008689
48,44.941708,-93.171154,2025-03-14T02:18:29Z,0.387554,0.043677,-0.016786,0.3903684836676752
49,44.941707,-93.171253,2025-03-14T02:18:30Z,0.5682,0.19655,0.082543,0.6068743604313829
50,44.941714,-93.171363,2025-03-14T02:18:31Z,0.292192,0.031224,-0.102886,0.3113464822926381
51,44.941711,-93.171479,2025-03-14T02:18:32Z,0.017241,0.019575,-0.033006,0.04206933255947853
52,44.941713,-93.171594,2025-03-14T02:18:33Z,-0.059136,-0.085013,0.083543,0.13305528743345754
53,44.941725,-93.171707,2025-03-14T02:18:34Z,0.173372,-0.028513,0.08896,0.1969383739980606
54,44.941714,-93.171819,2025-03-14T02:18:35Z,0.152488,0.032332,-0.120232,0.19685954940515332
55,44.941715,-93.171938,2025-03-14T02:18:36Z,0.210787,0.050795,-0.048833,0.22225200400221368
56,44.941718,-93.172079,2025-03-14T02:18:37Z,0.187124,-0.039628,-0.021071,0.19243117419222905
57,44.941716,-93.172219,2025-03-14T02:18:38Z,-0.017346,0.090183,-0.054141,0.10660724687374681
58,44.941714,-93.172357,2025-03-14T02:18:39Z,-0.031739,-0.074591,-0.033835,0.0878407002875091
59,44.941712,-93.1725,2025-03-14T02:18:40Z,-0.128047,-0.118793,0.045436,0.18047781346747305
60,44.941711,-93.17264,2025-03-14T02:18:41Z,-0.171418,-0.021829,0.221622,0.28102837374364886
61,44.941709,-93.172785,2025-03-14T02:18:42Z,-0.2525,-0.040462,0.168861,0.3064432423222937
62,44.94171,-93.172931,2025-03-14T02:18:43Z,-0.337745,-0.096302,0.195091,0.40175397759076387
63,44.941712,-93.173069,2025-03-14T02:18:44Z,-0.479755,-0.219619,0.150087,0.5485649211852687
64,44.941714,-93.173203,2025-03-14T02:18:45Z,-0.467021,-0.090269,0.059355,0.47935385971847566
65,44.941714,-93.173336,2025-03-14T02:18:46Z,-0.423625,0.010126,0.342185,0.5446570028247135
66,44.941713,-93.173458,2025-03-14T02:18:47Z,-0.055249,-0.521924,0.078196,0.5306333274427832
67,44.941716,-93.173586,2025-03-14T02:18:48Z,-0.129779,0.097391,0.26688,0.31233400410778206
68,44.941719,-93.173709,2025-03-14T02:18:49Z,-0.722255,-0.271191,0.147488,0.7854613635628426
69,44.941722,-93.173818,2025-03-14T02:18:50Z,-0.979582,-0.200485,0.135439,1.009018757342994
70,44.941724,-93.173918,2025-03-14T02:18:51Z,-0.920952,-0.336468,0.177269,0.9963872739497429
71,44.941725,-93.173998,2025-03-14T02:18:52Z,-1.257116,-0.371454,0.079368,1.313247117261637
72,44.941716,-93.174073,2025-03-14T02:18:53Z,-1.127645,-0.337569,0.152214,1.186888864882471
73,44.94171,-93.17414,2025-03-14T02:18:54Z,-0.960342,-0.321641,0.192599,1.0309238888715306
1,44.941344,-93.177195,2025-03-14T02:02:05Z,0.03377,0.094866,1.688545,1.6915449115766923
2,44.941324,-93.177094,2025-03-14T02:02:06Z,0.319096,0.06085,1.428984,1.46544199884267
3,44.941376,-93.177026,2025-03-14T02:02:07Z,0.837455,0.180753,0.646896,1.0735347962921369
4,44.941393,-93.176973,2025-03-14T02:02:08Z,0.692343,0.11097,0.237752,0.7403912371530339
5,44.941394,-93.176882,2025-03-14T02:02:09Z,0.493929,0.148179,-0.135844,0.533269599187878
6,44.941393,-93.176792,2025-03-14T02:02:10Z,0.34362,0.088907,-0.307049,0.46931678794818327
7,44.941388,-93.17669,2025-03-14T02:02:11Z,0.231953,0.124226,-0.330559,0.4224967997109564
8,44.941384,-93.176579,2025-03-14T02:02:12Z,0.13513,0.061558,-0.34501,0.37560804619177157
9,44.941383,-93.176465,2025-03-14T02:02:13Z,0.037718,-0.012497,-0.395862,0.39785116007999777
10,44.941381,-93.176341,2025-03-14T02:02:14Z,-0.005579,-0.01056,-0.412288,0.41246094819388657
11,44.941372,-93.176213,2025-03-14T02:02:15Z,-0.190617,-0.008118,-0.332668,0.3834954247927868
12,44.941372,-93.176073,2025-03-14T02:02:16Z,-0.160823,-0.054644,-0.310103,0.35357301180095746
13,44.941371,-93.175943,2025-03-14T02:02:17Z,-0.372368,-0.150106,-0.205492,0.4510174062317329
14,44.941372,-93.175793,2025-03-14T02:02:18Z,-0.436573,-0.107598,-0.169881,0.4806587855162953
15,44.941373,-93.175641,2025-03-14T02:02:19Z,-0.44941,-0.098251,-0.140376,0.4809657248463761
16,44.941366,-93.175496,2025-03-14T02:02:20Z,-0.349726,-0.143834,-0.155145,0.4087376489351085
17,44.941372,-93.17535,2025-03-14T02:02:21Z,-0.465986,-0.094064,-0.082308,0.4824578687885607
18,44.941375,-93.175203,2025-03-14T02:02:22Z,-0.837608,-0.231132,-0.023365,0.8692267174408528
19,44.941371,-93.175056,2025-03-14T02:02:23Z,-0.666337,-0.161322,0.073381,0.6895031228457199
20,44.941369,-93.174919,2025-03-14T02:02:24Z,-0.464205,-0.153074,0.241717,0.5452935352541785
21,44.941364,-93.174784,2025-03-14T02:02:25Z,-0.24019,-0.086925,0.522841,0.5819019702716257
22,44.94136,-93.174656,2025-03-14T02:02:26Z,-0.264445,-0.089633,0.549222,0.616125018156218
23,44.941376,-93.174522,2025-03-14T02:02:27Z,-0.251639,-0.149712,0.255755,0.3887756284671147
24,44.94134,-93.174391,2025-03-14T02:02:28Z,-0.489822,-0.077699,-0.234973,0.5487941663447234
25,44.941318,-93.174268,2025-03-14T02:02:29Z,-0.328042,-0.183451,-0.396284,0.5461747264575687
26,44.94131,-93.174136,2025-03-14T02:02:30Z,-0.198307,-0.230157,-0.636363,0.705163653818743
27,44.941301,-93.174011,2025-03-14T02:02:31Z,-0.03092,0.097797,-0.57543,0.5844997728904606
28,44.941301,-93.173882,2025-03-14T02:02:32Z,-0.178904,-0.109462,-0.423008,0.4721486404978839
29,44.941306,-93.173751,2025-03-14T02:02:33Z,-0.089584,0.009041,-0.121921,0.15156438558579652
30,44.941312,-93.173614,2025-03-14T02:02:34Z,0.081467,-0.042499,0.149628,0.175589223684143
31,44.941318,-93.173479,2025-03-14T02:02:35Z,-0.05139,-0.122137,-0.004538,0.13258571685140144
32,44.941318,-93.173343,2025-03-14T02:02:36Z,-0.055157,0.005917,-0.040107,0.06845346585089757
33,44.941312,-93.173225,2025-03-14T02:02:37Z,-0.054019,-0.003435,-0.067264,0.08633827240569504
34,44.941308,-93.173093,2025-03-14T02:02:38Z,0.073219,-0.004759,0.028979,0.07888886159021437
35,44.941307,-93.172942,2025-03-14T02:02:39Z,-0.128428,-0.111008,-0.07773,0.18670425851597494
36,44.941307,-93.172805,2025-03-14T02:02:40Z,0.080575,-0.10524,-0.05668,0.1441541210822639
37,44.941311,-93.172679,2025-03-14T02:02:41Z,0.071323,-0.062463,0.066797,0.11597601436072892
38,44.941333,-93.172581,2025-03-14T02:02:42Z,0.096792,-0.016947,-0.025742,0.10158022758883739
39,44.941295,-93.172428,2025-03-14T02:02:43Z,-0.029589,0.129645,-7.3e-4,0.13298070478832635
40,44.941299,-93.172247,2025-03-14T02:02:44Z,-0.023384,-0.058766,-0.053164,0.08262363528676284
41,44.941299,-93.172087,2025-03-14T02:02:45Z,-0.019727,-0.006848,-0.150691,0.1521309538325452
42,44.941297,-93.171946,2025-03-14T02:02:46Z,0.093962,-0.11016,0.017046,0.14578974298626088
43,44.941297,-93.171795,2025-03-14T02:02:47Z,-0.026075,-0.036817,-0.050152,0.06745828502118921
44,44.941301,-93.171646,2025-03-14T02:02:48Z,-0.137718,-0.097399,0.064627,0.18063626948650152
45,44.941304,-93.171494,2025-03-14T02:02:49Z,-0.338051,-0.070872,0.223296,0.41129359659615417
46,44.941307,-93.171345,2025-03-14T02:02:50Z,-0.340909,-0.13459,0.259099,0.44884931344717466
47,44.941306,-93.171202,2025-03-14T02:02:51Z,-0.892708,-0.299264,0.365542,1.010003697381351
48,44.941304,-93.171069,2025-03-14T02:02:52Z,-1.36575,-0.447911,0.399295,1.4917552826941824
49,44.941301,-93.17095,2025-03-14T02:02:53Z,-1.733841,-0.510521,0.43499,1.8590461545701333
50,44.941299,-93.170861,2025-03-14T02:02:54Z,-1.048556,-0.256457,0.375697,1.1429733653038465
51,44.941296,-93.170804,2025-03-14T02:02:55Z,-1.136175,-0.323585,0.269232,1.2116462985021659
52,44.941293,-93.17075,2025-03-14T02:02:56Z,-1.382872,-0.383955,0.458387,1.5066104513702274
53,44.941299,-93.170712,2025-03-14T02:02:57Z,-0.619512,-0.197237,0.171226,0.6723212739375424
54,44.941296,-93.170703,2025-03-14T02:02:58Z,0.879769,0.218137,-0.209432,0.9302897434423321
55,44.941295,-93.170697,2025-03-14T02:02:59Z,1.819174,0.470289,-0.488275,1.9413856549954212
56,44.941296,-93.17068,2025-03-14T02:03:00Z,1.876303,0.528577,-0.456053,2.0019717609264625
57,44.941298,-93.170637,2025-03-14T02:03:01Z,1.379525,0.396096,-0.363119,1.4804852836154772
58,44.941301,-93.170582,2025-03-14T02:03:02Z,1.303589,0.193502,-0.284356,1.3482008899496396
59,44.941301,-93.170512,2025-03-14T02:03:03Z,1.157796,0.355534,-0.390092,1.272425939391366
60,44.941301,-93.170439,2025-03-14T02:03:04Z,1.0815,0.228366,-0.206158,1.1244084671150427
61,44.941305,-93.170364,2025-03-14T02:03:05Z,0.818696,0.311629,-0.143832,0.8877293609434128
62,44.941312,-93.170285,2025-03-14T02:03:06Z,0.705717,0.091575,-0.168618,0.731337469734732
63,44.941305,-93.170179,2025-03-14T02:03:07Z,0.02568,0.037161,0.010401,0.04635281137104847
64,44.941301,-93.170091,2025-03-14T02:03:08Z,-0.067073,-0.040465,0.012189,0.07927657456651364
65,44.941305,-93.170007,2025-03-14T02:03:08Z,-0.604365,-0.156427,0.15629,0.6435472194439193
66,44.941309,-93.169931,2025-03-14T02:03:09Z,-0.508079,-0.216063,0.223271,0.5955480078473943
67,44.941304,-93.169867,2025-03-14T02:03:10Z,-0.813068,-0.168098,0.282024,0.876854632652414
68,44.9413,-93.169812,2025-03-14T02:03:11Z,-1.349749,-0.430747,0.448418,1.486083457862983
69,44.941302,-93.169772,2025-03-14T02:03:12Z,-0.803185,-0.236564,0.297949,0.8887307111392067
70,44.941305,-93.16976,2025-03-14T02:03:13Z,0.343961,0.073525,-0.084543,0.3617493800893099
71,44.941311,-93.169761,2025-03-14T02:03:14Z,1.208959,0.296121,-0.291006,1.2782621023710279
72,44.941307,-93.169734,2025-03-14T02:03:15Z,1.748393,0.471264,-0.500575,1.8787078460393996
73,44.941307,-93.169689,2025-03-14T02:03:16Z,1.250448,0.259679,-0.239645,1.2994164497073293
74,44.941307,-93.169636,2025-03-14T02:03:17Z,0.967201,0.248457,-0.357345,1.0606149651381505
75,44.941309,-93.16957,2025-03-14T02:03:18Z,0.360688,-0.009486,0.059645,0.365709370354384
76,44.94131,-93.169496,2025-03-14T02:03:19Z,-0.087436,-0.073946,0.020795,0.11638512377877167
77,44.941313,-93.169428,2025-03-14T02:03:20Z,-0.319574,0.128039,0.239535,0.41940260278400754
78,44.941314,-93.169366,2025-03-14T02:03:21Z,0.31805,-0.088769,-0.029324,0.33150510529552935
79,44.941314,-93.169315,2025-03-14T02:03:22Z,0.202647,-0.015844,0.099003,0.22609385872685706
80,44.941315,-93.169252,2025-03-14T02:03:23Z,0.158536,0.069644,-0.003227,0.17318880899469227
81,44.941314,-93.169192,2025-03-14T02:03:24Z,0.177195,-0.016739,-0.018671,0.17896052186725428
82,44.94132,-93.169136,2025-03-14T02:03:25Z,0.30271,0.027843,-0.02932,0.305398492381675
83,44.941324,-93.169072,2025-03-14T02:03:26Z,0.225563,0.044633,-0.088341,0.24632276374505058
84,44.941325,-93.169005,2025-03-14T02:03:27Z,0.199548,0.08766,0.073947,0.2301561181307158
85,44.941318,-93.168949,2025-03-14T02:03:28Z,0.516233,0.053484,-0.092843,0.5272351194618963
86,44.941321,-93.168872,2025-03-14T02:03:29Z,0.320747,0.065053,-0.101552,0.3426708909755832
87,44.941317,-93.168784,2025-03-14T02:03:30Z,0.232069,0.041679,-0.056323,0.24241584133674102
88,44.941318,-93.168701,2025-03-14T02:03:31Z,0.202975,0.118806,0.013417,0.2355710766414247
89,44.941319,-93.168617,2025-03-14T02:03:32Z,0.108976,-0.067541,0.026059,0.13083052678178744
90,44.941317,-93.168531,2025-03-14T02:03:33Z,0.139881,0.065979,-0.014298,0.15532017063472472
91,44.941314,-93.168441,2025-03-14T02:03:34Z,-0.035569,-0.001317,-0.011409,0.037377179280946284
92,44.941309,-93.168354,2025-03-14T02:03:35Z,-0.116921,-0.041855,0.11447,0.16889565466879247
93,44.941316,-93.168279,2025-03-14T02:03:36Z,0.026261,0.028233,-0.025142,0.04603110441864284
94,44.941316,-93.168187,2025-03-14T02:03:37Z,-0.101165,-0.145201,0.035902,0.18057309110163672
95,44.941317,-93.168092,2025-03-14T02:03:38Z,-0.058342,-0.037994,0.107603,0.12816293773552478
96,44.941317,-93.16801,2025-03-14T02:03:39Z,-0.23092,-0.123558,0.025582,0.2631445695582563
97,44.941315,-93.167922,2025-03-14T02:03:40Z,-0.188313,-0.018531,0.143677,0.23758843460699008
98,44.941313,-93.167836,2025-03-14T02:03:41Z,-0.233942,-0.091681,0.128327,0.28213841293592057
99,44.941314,-93.167754,2025-03-14T02:03:42Z,-0.504113,-0.18601,0.149529,0.5577531342000689
100,44.941314,-93.167675,2025-03-14T02:03:43Z,-0.517302,-0.16117,0.129384,0.5570613499068123
101,44.941313,-93.167608,2025-03-14T02:03:44Z,-0.328695,-0.106327,0.151526,0.377234625438864
102,44.941311,-93.167548,2025-03-14T02:03:45Z,-0.416413,-0.207995,0.184672,0.5007648691531785
103,44.941309,-93.167491,2025-03-14T02:03:46Z,-0.50381,-0.060925,0.32034,0.6001283923670001
104,44.941312,-93.167444,2025-03-14T02:03:47Z,-0.260377,-0.138906,0.178327,0.3448065804099452
105,44.941309,-93.167404,2025-03-14T02:03:48Z,0.15239,0.028019,0.138377,0.20774015160772363
106,44.941305,-93.167375,2025-03-14T02:03:49Z,-0.038478,-0.016591,-0.041033,0.05864746246855016
107,44.941302,-93.167347,2025-03-14T02:03:50Z,-0.320572,-0.08745,0.116828,0.35222534160392266
108,44.941299,-93.167302,2025-03-14T02:03:51Z,-0.364021,-0.182949,0.158345,0.43709811720825337
1,44.934449,-93.171148,2025-03-14T02:33:03Z,-0.028114,0.036143,0.855078,0.8563031586587778
2,44.934437,-93.171144,2025-03-14T02:33:04Z,0.358816,-0.067803,0.234684,0.43407689240617264
3,44.934448,-93.17114,2025-03-14T02:33:05Z,0.248874,0.089206,-0.184813,0.322570648511299
4,44.934541,-93.17111,2025-03-14T02:33:06Z,0.256669,0.112227,-0.087295,0.2934182886512018
5,44.934603,-93.171044,2025-03-14T02:33:07Z,0.076631,-0.012299,-0.141834,0.16168011355141979
6,44.934665,-93.171044,2025-03-14T02:33:08Z,-0.231655,-0.040928,-0.159994,0.2844946752489403
7,44.934727,-93.171044,2025-03-14T02:33:09Z,-0.437068,-0.122184,-0.193861,0.4934971669634994
8,44.934793,-93.171044,2025-03-14T02:33:10Z,-0.392361,-0.067236,-0.123267,0.41672843352236
9,44.934858,-93.171044,2025-03-14T02:33:11Z,-0.248828,-0.090725,-0.073048,0.2747406222476029
10,44.934927,-93.171045,2025-03-14T02:33:12Z,-0.320771,-0.031975,-0.08492,0.33335842792105913
11,44.934996,-93.171045,2025-03-14T02:33:13Z,-0.282059,-0.093191,-0.036396,0.29927664589473063
12,44.935065,-93.171045,2025-03-14T02:33:14Z,-0.341578,-0.205912,0.003894,0.39886143591979406
13,44.935133,-93.171045,2025-03-14T02:33:15Z,-0.203964,-0.06811,-0.063763,0.22429000326586115
14,44.935204,-93.171045,2025-03-14T02:33:16Z,-0.28443,-0.088141,-0.132423,0.32589125749243414
15,44.935274,-93.171045,2025-03-14T02:33:17Z,-0.211312,-0.171353,-0.05187,0.27695687182844914
16,44.935343,-93.171045,2025-03-14T02:33:18Z,-0.257411,-0.063024,-0.036767,0.26755234961778973
17,44.935414,-93.171046,2025-03-14T02:33:19Z,-0.005808,-0.083984,0.004737,0.08431775785088216
18,44.935482,-93.171046,2025-03-14T02:33:20Z,-0.16845,-0.074715,-0.091014,0.2055268399041838
19,44.935548,-93.171046,2025-03-14T02:33:21Z,-0.2363,-0.068032,-1.34e-4,0.24589847697779668
20,44.935623,-93.171045,2025-03-14T02:33:22Z,-0.171415,-0.287707,-0.051314,0.3388090120849798
21,44.935697,-93.171045,2025-03-14T02:33:23Z,0.110937,0.188162,0.003355,0.21845643098338852
22,44.935773,-93.171044,2025-03-14T02:33:24Z,0.403191,-0.002984,-0.168077,0.4368315060363664
23,44.93585,-93.171044,2025-03-14T02:33:25Z,-0.009035,0.067482,-0.064107,0.09351555484517
24,44.935925,-93.171044,2025-03-14T02:33:26Z,0.107967,-0.017722,0.067296,0.12845113463492644
25,44.936011,-93.171044,2025-03-14T02:33:27Z,-0.22663,-0.05567,0.213312,0.3161681754130229
26,44.936088,-93.171046,2025-03-14T02:33:28Z,-0.354977,-0.169219,0.069021,0.3992588620569367
27,44.936165,-93.17105,2025-03-14T02:33:29Z,-0.353196,-0.131194,-0.019441,0.3772760693881869
28,44.936249,-93.17105,2025-03-14T02:33:30Z,-0.729444,-0.250098,0.075611,0.7748255171720921
29,44.936328,-93.17105,2025-03-14T02:33:31Z,-0.858355,-0.254799,0.130038,0.9047683227600313
30,44.936399,-93.17105,2025-03-14T02:33:32Z,-0.97545,-0.289095,-0.479089,1.124546527025894
31,44.936462,-93.171058,2025-03-14T02:33:33Z,-1.089515,-0.3257,-2.121138,2.406730113716326
32,44.936501,-93.171063,2025-03-14T02:33:34Z,-1.13924,-0.173265,-2.584466,2.8297266728397994
33,44.936552,-93.171124,2025-03-14T02:33:35Z,-0.601382,-0.286893,-1.783773,1.904157036302941
34,44.936579,-93.171211,2025-03-14T02:33:36Z,0.164527,0.008104,-0.188821,0.25057569432409044
35,44.936539,-93.171339,2025-03-14T02:33:37Z,0.315669,0.120738,0.339651,0.4791527773122055
36,44.936526,-93.171423,2025-03-14T02:33:38Z,0.441787,0.06819,0.612864,0.7585696487238334
37,44.936526,-93.171532,2025-03-14T02:33:39Z,0.087165,0.098308,0.580786,0.5954616510615944
38,44.936528,-93.171644,2025-03-14T02:33:40Z,-0.360354,-0.147831,0.598773,0.7143095375297743
39,44.936538,-93.171738,2025-03-14T02:33:41Z,-0.416239,-0.173376,0.538031,0.7019910964235943
40,44.936535,-93.17187,2025-03-14T02:33:42Z,-0.51177,-0.050494,0.700007,0.8686011610543702
41,44.936538,-93.171987,2025-03-14T02:33:43Z,-0.951942,-0.419364,0.695894,1.2515303412606504
42,44.936541,-93.172095,2025-03-14T02:33:44Z,-1.295083,-0.272479,0.689274,1.492174061363486
43,44.936543,-93.172199,2025-03-14T02:33:45Z,-1.426373,-0.371277,0.755727,1.6563543836954095
44,44.936541,-93.172281,2025-03-14T02:33:46Z,-1.345419,-0.435153,0.761909,1.6062427410734033
45,44.936544,-93.172336,2025-03-14T02:33:47Z,-1.337997,-0.375143,0.765273,1.5863829950510062
46,44.936547,-93.172408,2025-03-14T02:33:48Z,-1.121015,-0.290365,0.570786,1.2910395506126062
47,44.936546,-93.172413,2025-03-14T02:33:49Z,-0.555633,-0.161569,0.397494,0.7020214045782366
48,44.936531,-93.172429,2025-03-14T02:33:50Z,0.761382,0.206332,0.057801,0.7909591644004134
49,44.936531,-93.172446,2025-03-14T02:33:51Z,1.276936,0.356012,0.167846,1.3362194325618828
50,44.936531,-93.172467,2025-03-14T02:33:52Z,1.043106,0.276997,0.727519,1.301568807480419
51,44.93653,-93.172494,2025-03-14T02:33:53Z,0.587038,0.13136,1.303836,1.435916911920742
52,44.93653,-93.172514,2025-03-14T02:33:54Z,0.200625,-0.004655,1.715398,1.727096510926358
53,44.936529,-93.172545,2025-03-14T02:33:55Z,0.070895,0.062715,1.547207,1.5500996010253663
54,44.936616,-93.172602,2025-03-14T02:33:56Z,0.345811,0.100558,0.924735,0.9923870108531248
55,44.93664,-93.172613,2025-03-14T02:33:57Z,0.319601,0.142664,0.178163,0.39273384201772077
56,44.93666,-93.1724,2025-03-14T02:33:58Z,0.323843,0.087935,-0.216519,0.39935864862927406
57,44.936699,-93.172334,2025-03-14T02:33:59Z,0.150643,0.033901,-0.455962,0.4813978985143163
58,44.936739,-93.172271,2025-03-14T02:34:00Z,-0.03014,-0.021921,-0.452861,0.45439194002754935
59,44.936783,-93.172202,2025-03-14T02:34:01Z,-0.268529,-0.103037,-0.613741,0.6777923445207978
60,44.936827,-93.172133,2025-03-14T02:34:02Z,-0.416109,-0.121415,-0.535524,0.6889660780343253
61,44.936881,-93.172056,2025-03-14T02:34:03Z,-0.353384,-0.246683,-0.567412,0.712523074495837
62,44.936941,-93.17198,2025-03-14T02:34:04Z,-0.416191,0.056885,-0.456251,0.620174029371595
63,44.937002,-93.17191,2025-03-14T02:34:05Z,-0.223033,-0.216941,-0.227503,0.3854409573190167
64,44.93707,-93.171839,2025-03-14T02:34:06Z,-0.405454,-0.07445,-0.545459,0.6837113932771633
65,44.937139,-93.171773,2025-03-14T02:34:07Z,-0.583124,-0.154151,-0.335679,0.6902727875398247
66,44.937214,-93.171705,2025-03-14T02:34:08Z,-0.469951,-0.21449,-0.195863,0.5524692002908397
67,44.937285,-93.171649,2025-03-14T02:34:09Z,-0.431796,-0.26836,-0.409622,0.652882116541723
68,44.937346,-93.171605,2025-03-14T02:34:10Z,-0.773625,0.027271,-0.34915,0.8492026086665067
69,44.937426,-93.17156,2025-03-14T02:34:11Z,-0.345469,-0.211444,-0.390358,0.5625271222447856
70,44.937499,-93.171525,2025-03-14T02:34:12Z,-0.574351,-0.277701,-0.262559,0.6898798048087796
71,44.937573,-93.171492,2025-03-14T02:34:13Z,-0.422882,-0.03573,-0.325905,0.5350886728842239
72,44.937648,-93.171464,2025-03-14T02:34:14Z,-0.325223,-0.141584,-0.213433,0.413968204423963
73,44.937716,-93.171441,2025-03-14T02:34:15Z,-0.208566,-0.006902,0.165144,0.26612018844123797
74,44.937787,-93.171421,2025-03-14T02:34:16Z,0.116409,-0.290607,0.154772,0.3492246493505291
75,44.937858,-93.171404,2025-03-14T02:34:17Z,-0.130316,0.14608,0.047999,0.20155775910889662
76,44.937933,-93.17139,2025-03-14T02:34:18Z,-0.020701,-0.122261,-0.238756,0.2690366351596005
77,44.938011,-93.171386,2025-03-14T02:34:19Z,-0.209294,-0.038571,-0.431429,0.4810641147684995
78,44.938087,-93.171387,2025-03-14T02:34:20Z,-0.01804,-0.184994,-0.354482,0.4002570548535029
79,44.938164,-93.17139,2025-03-14T02:34:21Z,0.147036,0.020655,-0.10686,0.18293516316170602
80,44.938239,-93.171402,2025-03-14T02:34:22Z,0.161003,-0.01183,0.263894,0.30935733084089023
81,44.938318,-93.171416,2025-03-14T02:34:23Z,0.335706,-0.022778,0.001653,0.3364819283839773
82,44.938386,-93.171441,2025-03-14T02:34:24Z,0.176295,0.058808,0.132687,0.2283509313709931
83,44.938472,-93.171449,2025-03-14T02:34:25Z,0.242391,-0.121538,0.11519,0.29460756681558603
84,44.938568,-93.171454,2025-03-14T02:34:26Z,0.068131,0.079452,0.32911,0.34535177075700657
85,44.938661,-93.171454,2025-03-14T02:34:27Z,-0.061079,0.034558,0.552608,0.5570462290232292
86,44.938749,-93.171462,2025-03-14T02:34:28Z,-0.159718,-0.135339,0.467473,0.5122084440674519
87,44.938853,-93.171451,2025-03-14T02:34:29Z,0.042421,-0.09496,0.186606,0.21363225898023921
88,44.938941,-93.171481,2025-03-14T02:34:30Z,-0.029652,0.257992,0.356349,0.44093505527344956
89,44.939033,-93.171484,2025-03-14T02:34:31Z,0.116512,-0.173245,0.113856,0.23780678061190771
90,44.939127,-93.171489,2025-03-14T02:34:32Z,-0.037714,-0.040087,0.151016,0.16073315034864466
91,44.939222,-93.171491,2025-03-14T02:34:33Z,-0.128569,0.06529,0.192555,0.24056225781697346
92,44.93931,-93.171493,2025-03-14T02:34:34Z,-0.231607,-0.092587,0.170504,0.3021353488653719
93,44.939407,-93.171482,2025-03-14T02:34:35Z,-0.309932,-0.191595,0.081113,0.3732905134315631
94,44.9395,-93.171484,2025-03-14T02:34:36Z,-0.119889,-0.032631,0.218439,0.2513041010469188
95,44.939605,-93.171489,2025-03-14T02:34:37Z,-0.571698,-0.203154,0.182265,0.63350665438099385
96,44.939708,-93.171486,2025-03-14T02:34:38Z,-0.822079,-0.300541,0.330815,0.9357228965601943
97,44.93978,-93.171499,2025-03-14T02:34:39Z,-1.176482,-0.318294,0.328043,1.2621541809973138
98,44.93984,-93.171497,2025-03-14T02:34:40Z,-1.019225,-0.226628,0.304106,1.087501866777708
99,44.939895,-93.171497,2025-03-14T02:34:41Z,-0.887301,-0.323051,0.2921,0.9884267414442003
100,44.939939,-93.171498,2025-03-14T02:34:42Z,-0.79593,-0.218069,0.270778,0.8685501591416583
101,44.939975,-93.171495,2025-03-14T02:34:43Z,-0.519288,-0.146218,0.164052,0.5638730257531388
102,44.939998,-93.171498,2025-03-14T02:34:44Z,-0.211777,-0.056956,0.08153,0.2339671441997786
103,44.940014,-93.171477,2025-03-14T02:34:45Z,-0.085615,-0.004338,0.109804,0.13930421703954263
104,44.940027,-93.171476,2025-03-14T02:34:46Z,0.364244,0.093104,-0.054103,0.3798278306825344
105,44.940029,-93.171476,2025-03-14T02:34:47Z,0.955005,0.277872,-0.24003,1.0231626455793819
106,44.940036,-93.171476,2025-03-14T02:34:48Z,1.496795,0.430828,-0.335556,1.5933003065163203
107,44.940053,-93.171476,2025-03-14T02:34:49Z,1.288093,0.387011,-0.351471,1.3901413433931815
108,44.940084,-93.171475,2025-03-14T02:34:50Z,1.074227,0.298669,-0.163186,1.1268524702400045
109,44.940139,-93.171474,2025-03-14T02:34:51Z,1.381432,0.132227,-0.308379,1.4215962710256385
110,44.940187,-93.171489,2025-03-14T02:34:52Z,1.02549,0.180194,-0.231652,1.0666593958898032
111,44.940222,-93.171473,2025-03-14T02:34:53Z,0.774807,0.446596,0.0401,0.8951993545937128
112,44.94028,-93.171469,2025-03-14T02:34:54Z,0.637195,0.077323,0.40245,0.757603007421433
113,44.940342,-93.171457,2025-03-14T02:34:55Z,0.618991,0.063079,0.771433,0.9910790542691335
114,44.940406,-93.171434,2025-03-14T02:34:56Z,0.395143,0.07818,0.852269,0.9426624800054365
115,44.940467,-93.171403,2025-03-14T02:34:57Z,0.217578,0.105723,0.850039,0.8837894773836131
116,44.940532,-93.171357,2025-03-14T02:34:58Z,-0.119353,0.013221,0.983352,0.990656897898561
117,44.940597,-93.171303,2025-03-14T02:34:59Z,-0.339208,-0.047848,0.992142,1.0496176668349289
118,44.940652,-93.171244,2025-03-14T02:35:00Z,-0.280047,-0.194928,0.669846,0.7517425830089712
119,44.940701,-93.171178,2025-03-14T02:35:01Z,-0.202632,-0.08072,0.477322,0.5247968535614519
120,44.940731,-93.171104,2025-03-14T02:35:02Z,-0.253355,-0.139559,0.301633,0.4179090058792703
121,44.940773,-93.171019,2025-03-14T02:35:03Z,-0.293546,-0.103817,-0.346756,0.46603320390397074
122,44.940812,-93.170944,2025-03-14T02:35:04Z,-0.271688,-0.04067,-0.520953,0.588948594066579
123,44.940858,-93.170865,2025-03-14T02:35:05Z,-0.302525,-0.138753,-0.614754,0.6990681305495196
124,44.940904,-93.170794,2025-03-14T02:35:06Z,-0.437011,-0.200594,-0.858465,0.9839607325406843
125,44.940959,-93.17072,2025-03-14T02:35:07Z,-0.446851,-0.05652,-0.348242,0.5693354171004997
126,44.941013,-93.170662,2025-03-14T02:35:08Z,-0.375736,-0.114431,-0.382143,0.5480011568473191
127,44.941068,-93.17061,2025-03-14T02:35:09Z,-0.531596,-0.200779,-0.384091,0.6858807551885385
128,44.941123,-93.170556,2025-03-14T02:35:10Z,-0.559439,-0.167651,-0.591352,0.8311293764667448
129,44.941181,-93.170521,2025-03-14T02:35:11Z,-0.635139,-0.209976,-0.652693,0.9346120169064808
130,44.941238,-93.170492,2025-03-14T02:35:12Z,-0.567502,-0.237984,-0.346018,0.7059910485154893
131,44.941287,-93.170467,2025-03-14T02:35:13Z,-0.671074,-0.075796,-0.027203,0.6758885635228635
132,44.941331,-93.170445,2025-03-14T02:35:14Z,-0.818335,-0.322479,0.239727,0.9116654606789708
1,44.939027,-93.169771,2025-03-14T01:59:35Z,0.292053,0.115522,0.049126,0.3178893693865839
2,44.939073,-93.169809,2025-03-14T01:59:37Z,0.631595,0.126754,-0.170656,0.6664100020835522
3,44.939081,-93.16984,2025-03-14T01:59:38Z,0.758277,0.153367,-0.326272,0.8396182843423552
4,44.939083,-93.169936,2025-03-14T01:59:39Z,0.509468,0.109986,-0.225985,0.5680878307489081
5,44.939077,-93.17001,2025-03-14T01:59:40Z,-4.57e-4,0.04061,-0.165388,0.17030141365531878
6,44.939066,-93.170099,2025-03-14T01:59:40Z,-0.207934,-0.066928,-0.086534,0.23495539724807346
7,44.939067,-93.170192,2025-03-14T01:59:41Z,-0.382125,-0.196164,-0.003302,0.4295471263144476
8,44.939064,-93.170295,2025-03-14T01:59:42Z,-0.295375,-0.143235,0.133184,0.3542606860858258
9,44.939075,-93.170373,2025-03-14T01:59:43Z,-0.232671,0.034279,0.100283,0.2556707338961579
10,44.939069,-93.170453,2025-03-14T01:59:44Z,0.00497,-0.149566,-0.00747,0.14983487630054626
11,44.939061,-93.170533,2025-03-14T01:59:45Z,0.010024,-0.057072,0.023427,0.06250214467520294
12,44.939066,-93.170595,2025-03-14T01:59:46Z,0.086194,-0.056327,-0.10765,0.1489652948340653
13,44.939069,-93.170674,2025-03-14T01:59:47Z,-0.033259,0.094696,-0.050571,0.11238736378258901
14,44.939071,-93.170786,2025-03-14T01:59:48Z,-0.24169,-0.131135,-0.00428,0.2750068412330864
15,44.939068,-93.170901,2025-03-14T01:59:49Z,-0.365183,-0.21088,0.351108,0.5487311049621663
16,44.939066,-93.171002,2025-03-14T01:59:50Z,-0.760699,-0.034796,0.538777,0.9328206611916354
17,44.939074,-93.171096,2025-03-14T01:59:51Z,-0.725848,-0.242282,-0.031859,0.7658791565965221
18,44.939071,-93.17118,2025-03-14T01:59:52Z,-0.995491,-0.484331,-0.073904,1.1095227126372853
19,44.939086,-93.171246,2025-03-14T01:59:53Z,-1.592427,-0.39892,0.359361,1.6805062466560485
20,44.939083,-93.171315,2025-03-14T01:59:54Z,-1.520003,-0.525454,0.355831,1.6471571651442374
21,44.939077,-93.171353,2025-03-14T01:59:55Z,-1.135629,-0.280327,0.311702,1.2105348360844475
22,44.939078,-93.171378,2025-03-14T01:59:56Z,-0.681517,-0.216831,0.241416,0.7548263302945917
23,44.939077,-93.171346,2025-03-14T01:59:57Z,0.655689,0.180587,-0.189641,0.7060477591289416
24,44.939074,-93.171357,2025-03-14T01:59:58Z,1.302465,0.349108,-0.389836,1.4036607776756462
25,44.939074,-93.17135,2025-03-14T01:59:59Z,1.831257,0.524992,-0.595993,1.9960777680646613
26,44.939071,-93.171388,2025-03-14T02:00:00Z,1.202012,0.348305,-0.347093,1.2987004165002798
27,44.939066,-93.17148,2025-03-14T02:00:01Z,1.017881,0.192693,-0.161349,1.0484492463686548
28,44.939064,-93.171525,2025-03-14T02:00:02Z,0.63415,0.032923,-0.134245,0.649039187148203
29,44.939057,-93.17158,2025-03-14T02:00:03Z,0.5806,0.08844,0.076495,0.5922579493978953
30,44.939049,-93.171669,2025-03-14T02:00:04Z,0.485536,0.267967,-0.068783,0.558822531286991
31,44.939052,-93.171744,2025-03-14T02:00:05Z,0.594868,0.108503,0.016217,0.6048998508199518
32,44.939016,-93.171817,2025-03-14T02:00:06Z,0.378809,0.272032,-0.047029,0.46873168694467415
33,44.939085,-93.171904,2025-03-14T02:00:07Z,0.479699,-0.093174,0.17013,0.517432837938413
34,44.939064,-93.172004,2025-03-14T02:00:08Z,0.587866,0.141322,-0.048179,0.6065307557585188
35,44.939064,-93.172141,2025-03-14T02:00:09Z,0.459593,0.108056,-0.056204,0.4754584255231996
36,44.93904,-93.172249,2025-03-14T02:00:10Z,0.122787,-0.044367,-0.048958,0.1394344427392314
37,44.939046,-93.172379,2025-03-14T02:00:11Z,-0.211944,-0.098385,0.088687,0.2499304929975532
38,44.939047,-93.172498,2025-03-14T02:00:12Z,-0.07707,-0.033894,0.047756,0.09679475022954499
39,44.939041,-93.172611,2025-03-14T02:00:13Z,-0.11679200000000001,-0.12614,0.079994,0.1896067269376274
40,44.939058,-93.172739000000007,2025-03-14T02:00:14Z,-0.109798,-0.004118,0.050497,0.12092355327643992
41,44.93905,-93.172849,2025-03-14T02:00:15Z,-0.073799,-0.07179,-0.01269,0.10373587904384868
