seconds_elapsed,location_latitude,location_longitude,location_local_time,accelerometer_z,accelerometer_y_new,accelerometer_x_new,L2_norm
1,44.940124,-93.167204,2025-03-21T00:36:00Z,0.594661,0.054423,0.848517,1.0375763428003744
2,44.940121,-93.167265,2025-03-21T00:36:01Z,0.758598,0.187522,-0.029889,0.7820030552427528
3,44.94012,-93.167342,2025-03-21T00:36:02Z,0.48691,0.060754,-0.339362,0.5966062048453737
4,44.940122,-93.167438,2025-03-21T00:36:03Z,0.341507,0.084552,-0.380094,0.5179261729136692
5,44.940123,-93.16755,2025-03-21T00:36:04Z,-0.008519,-0.132351,-0.262821,0.2943879049876201
6,44.940124,-93.167673,2025-03-21T00:36:05Z,-0.165237,-0.014459,-0.126057,0.20833313730417444
7,44.940126,-93.167802,2025-03-21T00:36:06Z,-0.216263,-0.021946,-0.226175,0.3136980119637356
8,44.940127,-93.167937,2025-03-21T00:36:07Z,-0.235268,-0.133508,-0.242615,0.3633695861144683
9,44.940127,-93.168075,2025-03-21T00:36:08Z,-0.363745,-0.019594,-0.135095,0.388516420355691
10,44.940127,-93.168221,2025-03-21T00:36:09Z,-0.423447,-0.174829,-0.105291,0.47006248066719813
11,44.940128,-93.16837,2025-03-21T00:36:10Z,-0.398644,-0.131721,-0.053575,0.42324666708906283
12,44.940129,-93.168523,2025-03-21T00:36:11Z,-0.33458,-0.080097,-0.039143,0.3462534913296904
13,44.940131,-93.168679,2025-03-21T00:36:12Z,-0.305908,-0.157589,-0.121187,0.36482911938879004
14,44.940132,-93.168838,2025-03-21T00:36:13Z,-0.429265,-0.109906,-0.086885,0.4515493021653339
15,44.940118,-93.168999,2025-03-21T00:36:14Z,-0.594606,-0.057505,-0.126039,0.6105316943304417
16,44.940118,-93.169161,2025-03-21T00:36:15Z,-0.361766,-0.224893,0.045491,0.42839343048884393
17,44.940117,-93.169322,2025-03-21T00:36:16Z,-0.486869,0.141397,0.081337,0.5134688328798546
18,44.940116,-93.169484,2025-03-21T00:36:17Z,-0.43355900000000003,-0.248787,0.107754,0.5113504692146082
19,44.940116,-93.169648,2025-03-21T00:36:18Z,-0.520515,-0.01113,-0.16227,0.545335946940049
20,44.940117,-93.169808,2025-03-21T00:36:19Z,-0.42488,-0.334427,0.033559,0.5417477634563893
21,44.940115,-93.169967,2025-03-21T00:36:20Z,-0.304856,-0.065967,0.069196,0.3194947765472857
22,44.940115,-93.170126,2025-03-21T00:36:21Z,-0.451601,-0.087378,0.105587,0.4719396069986074
23,44.940115,-93.170282,2025-03-21T00:36:22Z,-0.204137,-0.134839,0.048992,0.24950688718750832
24,44.940116,-93.170437,2025-03-21T00:36:23Z,-0.263001,-0.037618,0.031265,0.26751100939961325
25,44.940115,-93.170591,2025-03-21T00:36:24Z,-0.172363,-0.068053,0.041583,0.18991935253417436
26,44.940114,-93.170744,2025-03-21T00:36:25Z,-0.081095,-0.100176,0.007263,0.1290905928795743
27,44.940115,-93.170899,2025-03-21T00:36:26Z,-0.121272,-0.031824,-0.069688,0.1434436555027792
28,44.940115,-93.171053,2025-03-21T00:36:27Z,-0.113912,-0.057406,-0.118478,0.17409316202539374
29,44.940115,-93.171209,2025-03-21T00:36:28Z,-0.107236,-0.024634,-0.03277,0.11480534200114557
30,44.940114,-93.171363,2025-03-21T00:36:29Z,-0.115253,-0.005791,0.081622,0.14134688031223044
31,44.940114,-93.171518,2025-03-21T00:36:30Z,-0.066162,-0.081325,0.027528,0.10839260423571342
32,44.940114,-93.171673,2025-03-21T00:36:31Z,0.046713,0.093049,-0.078447,0.13036162233955206
33,44.940113,-93.171828,2025-03-21T00:36:32Z,0.018165,-0.029867,-0.04125,0.05407002324763695
34,44.940112,-93.171983,2025-03-21T00:36:33Z,0.134051,0.046778,-0.044522,0.14879536407092797
35,44.940114,-93.172145,2025-03-21T00:36:34Z,0.029772,-0.059429,0.102181,0.12189805078835346
36,44.940115,-93.172308,2025-03-21T00:36:35Z,0.007375,0.12937,-0.079998,0.1522848236988834
37,44.940117,-93.172472,2025-03-21T00:36:36Z,-0.157559,-0.158373,0.025428,0.22484089662247836
38,44.940116,-93.172637,2025-03-21T00:36:37Z,-0.112393,-0.077233,0.008965,0.13666562831597417
39,44.940117,-93.172799,2025-03-21T00:36:38Z,-0.11474,-0.152111,-0.06144,0.20019464908183734
40,44.940117,-93.172959,2025-03-21T00:36:39Z,-0.187541,0.046859,0.011078,0.19362364175379
41,44.940117,-93.173121,2025-03-21T00:36:40Z,-0.121953,-0.041825,0.045586,0.13674775402177544
42,44.940117,-93.173279,2025-03-21T00:36:41Z,-0.072176,-0.122708,-0.040807,0.1480940224620832
43,44.940117,-93.173438,2025-03-21T00:36:42Z,-0.125683,-0.02008,0.132827,0.18396313439925946
44,44.940117,-93.173595,2025-03-21T00:36:43Z,-0.102371,-0.040955,0.093326,0.14445371557007455
45,44.940117,-93.173754,2025-03-21T00:36:44Z,-0.098395,0.013321,-0.022111,0.10172473340835059
46,44.940117,-93.173911,2025-03-21T00:36:45Z,-0.019253,-0.163543,-0.047007,0.17125025228302584
47,44.940118,-93.174066,2025-03-21T00:36:46Z,0.047734,-0.04546,0.081004,0.10443559916043954
48,44.940119,-93.17422,2025-03-21T00:36:47Z,-0.027687,-0.005233,-0.055571,0.06230642261436617
49,44.940119,-93.174374,2025-03-21T00:36:48Z,0.034959,-0.157399,-0.063004,0.1731071370510182
50,44.94012,-93.17453,2025-03-21T00:36:49Z,0.172315,-0.025612,-0.08817,0.1952495394847322
51,44.940118,-93.174692,2025-03-21T00:36:50Z,0.168956,0.124045,-0.058701,0.21766740537342746
52,44.940118,-93.174853,2025-03-21T00:36:51Z,0.119398,0.033659,-0.119759,0.17242687947648996
53,44.940119,-93.175014,2025-03-21T00:36:52Z,0.103814,-0.087173,-0.029688,0.1387726769540748
54,44.940117,-93.175175,2025-03-21T00:36:53Z,-0.008491,-0.022624,0.135916,0.1380474610885691
55,44.940115,-93.175338,2025-03-21T00:36:54Z,-0.055251,-0.066774,-7.52e-4,0.08667182691624771
56,44.940116,-93.1755,2025-03-21T00:36:55Z,-0.160601,-0.062676,0.079034,0.189650561119655
57,44.940115,-93.17566,2025-03-21T00:36:56Z,-0.141631,7.41e-4,-0.042773,0.147950730890388
58,44.940115,-93.175819,2025-03-21T00:36:57Z,-0.292898,-0.137231,0.004502,0.3234839312377046
59,44.940113,-93.175979,2025-03-21T00:36:58Z,-0.610428,-0.185223,0.086479,0.6437456954061906
60,44.940113,-93.176131,2025-03-21T00:36:59Z,-0.897254,-0.176305,-0.27469,0.9547789218667324
61,44.940111,-93.176273,2025-03-21T00:37:00Z,-1.03751,-0.377127,-0.070569,1.1061788996315198
62,44.940106,-93.176403,2025-03-21T00:37:01Z,-1.247103,-0.311616,0.239629,1.3075903340519155
63,44.940099,-93.176513,2025-03-21T00:37:02Z,-0.67276,-0.200321,0.536257,0.8833493593646854
64,44.940114,-93.176608,2025-03-21T00:37:03Z,-0.153633,-0.003883,0.396201,0.4249628322324201
65,44.940114,-93.176695,2025-03-21T00:37:04Z,-0.173307,-0.086131,0.122152,0.22885579851513485
66,44.940115,-93.176777,2025-03-21T00:37:05Z,-0.684117,-0.186091,0.233502,0.7464376155942303
67,44.940104,-93.176838,2025-03-21T00:37:05Z,-0.916783,-0.24744,0.260741,0.9847352394273295
68,44.940104,-93.176888,2025-03-21T00:37:07Z,-0.894287,-0.213713,0.215016,0.9442745178146025
69,44.940104,-93.176919,2025-03-21T00:37:08Z,-0.349815,-0.079937,0.085563,0.36889224058388653
70,44.940104,-93.176937,2025-03-21T00:37:08Z,-0.091871,-0.009748,-0.002349,0.09241656748657136
1,44.940052,-93.177025,2025-03-21T00:41:03Z,0.063023,-0.042015,-0.672198,0.6764520012225553
2,44.940051,-93.176936,2025-03-21T00:41:04Z,0.5226,0.068366,-0.285973,0.5996375794469523
3,44.940052,-93.176837,2025-03-21T00:41:05Z,0.469169,0.19005,-0.185238,0.5390284498103973
4,44.940053,-93.176723,2025-03-21T00:41:06Z,0.48369,0.151481,-0.11154,0.518983314819465
5,44.940055,-93.176598,2025-03-21T00:41:07Z,0.212167,0.070426,-0.013637,0.2239656784732875
6,44.940056,-93.176465,2025-03-21T00:41:08Z,-0.176,-0.041085000000000003,0.242264,0.30225125793121194
7,44.940059,-93.176332,2025-03-21T00:41:09Z,-0.112373,-0.072181,0.157542,0.2065363639991757
8,44.940061,-93.17619,2025-03-21T00:41:10Z,-0.1396,0.018803,0.177089,0.22627909035083202
9,44.940063,-93.176042,2025-03-21T00:41:11Z,-0.301072,-0.087277,0.35365,0.4725779791875623
10,44.940062,-93.175895,2025-03-21T00:41:11Z,-0.320793,-0.059907,0.201527,0.3835493830356138
11,44.940061,-93.175748,2025-03-21T00:41:12Z,-0.561288,-0.184176,0.291141,0.658580367002388
12,44.940062,-93.175603,2025-03-21T00:41:14Z,-0.598974,-0.153584,0.226373,0.6584851045095858
13,44.940063,-93.17546,2025-03-21T00:41:14Z,-0.456993,-0.187422,0.185076,0.5274682302366656
14,44.940063,-93.175318,2025-03-21T00:41:15Z,-0.172863,0.059522,0.065944,0.19435302001512605
15,44.940062,-93.17517,2025-03-21T00:41:17Z,-0.070193,-0.093958,0.050707,0.12777465657163786
16,44.940062,-93.175024,2025-03-21T00:41:18Z,-0.389704,-0.089852,0.134229,0.4218530715320205
17,44.940062,-93.174877,2025-03-21T00:41:19Z,-0.552835,-0.24754,0.159479,0.6263674163508187
18,44.940063,-93.174738,2025-03-21T00:41:20Z,-0.73804,-0.127015,0.280779,0.7997954105057118
19,44.940065,-93.174609,2025-03-21T00:41:21Z,-1.560057,-0.532382,0.675261,1.7813438341022207
20,44.940066,-93.174498,2025-03-21T00:41:22Z,-1.591462,-0.386095,0.511971,1.715789891364907
21,44.940063,-93.174402,2025-03-21T00:41:23Z,-1.638297,-0.461168,0.416568,1.752204863324206
22,44.940063,-93.174332,2025-03-21T00:41:24Z,-0.863206,-0.290884,0.207972,0.9343395810282256
23,44.940063,-93.174269,2025-03-21T00:41:24Z,-0.230401,-0.102231,0.059502,0.25899089977449014
24,44.940063,-93.174209,2025-03-21T00:41:25Z,-0.219256,-0.063186,-0.366534,0.4317555295395764
25,44.940067,-93.17415,2025-03-21T00:41:26Z,0.799035,0.173037,-0.234374,0.8504880401687023
26,44.940073,-93.174079,2025-03-21T00:41:27Z,1.583066,0.328553,-0.362011,1.6568334250267889
27,44.94008,-93.173983,2025-03-21T00:41:29Z,1.590069,0.373315,-0.136538,1.6390015678546497
28,44.940085,-93.173872,2025-03-21T00:41:30Z,1.532322,0.394561,0.475463,1.6521967675715867
29,44.940083,-93.173743,2025-03-21T00:41:31Z,1.306538,0.32418400000000003,0.283645,1.3757148313967542
30,44.940076,-93.173605,2025-03-21T00:41:32Z,0.566345,0.043111,-0.110519,0.5786360399309742
31,44.940072,-93.173462,2025-03-21T00:41:33Z,0.378472,0.027242,-0.40093,0.5520217805920342
32,44.94007,-93.173311,2025-03-21T00:41:34Z,0.080949,0.062243,-0.194954,0.2200772449982051
33,44.940068,-93.173153,2025-03-21T00:41:35Z,-0.007143,6.36e-4,-0.118013,0.11823068600832866
34,44.940066,-93.172994,2025-03-21T00:41:36Z,-0.084448,-0.110691,-0.042678,0.14562065055822268
35,44.940066,-93.172833,2025-03-21T00:41:37Z,-0.236333,0.021924,0.033506,0.23970106528966448
36,44.940064,-93.172672,2025-03-21T00:41:38Z,-0.294526,-0.169473,0.038262,0.3419512290502843
37,44.940064,-93.172514,2025-03-21T00:41:39Z,-0.316975,-0.119683,0.043282,0.3415706407728861
38,44.940064,-93.172353,2025-03-21T00:41:40Z,-0.220998,-0.047724,-0.024265,0.2273906031589696
39,44.940063,-93.172195,2025-03-21T00:41:41Z,-0.195886,-0.08068,0.071251,0.2235112802455393
40,44.940063,-93.172037,2025-03-21T00:41:42Z,-0.296554,-0.060704,0.340015,0.4552355991758553
41,44.940062,-93.171879,2025-03-21T00:41:43Z,-0.077753,-0.014108,0.084112,0.11540967557791679
42,44.94006,-93.171719,2025-03-21T00:41:44Z,-0.115246,-0.087506,-0.051879,0.15372173298854006
43,44.940058,-93.171561,2025-03-21T00:41:45Z,-0.12402,-0.094066,-0.063499,0.1681115574759808
44,44.940059,-93.171402,2025-03-21T00:41:46Z,-0.220343,0.113547,-0.040284,0.25113096088296244
45,44.94006,-93.17124,2025-03-21T00:41:47Z,-0.070741,-0.134293,0.145478,0.21024449437262321
46,44.94006,-93.17108,2025-03-21T00:41:48Z,-0.074291,-0.005694,-0.01989,0.07711800319640025
47,44.940062,-93.17092,2025-03-21T00:41:49Z,-0.226837,-0.038897,0.030732,0.23219056182799508
48,44.940061,-93.170763,2025-03-21T00:41:50Z,-0.30372,-0.132179,0.066749,0.33789429625550055
49,44.94006,-93.170606,2025-03-21T00:41:51Z,-0.213488,-0.113215,0.036648,0.24441325306333125
50,44.94006,-93.170455,2025-03-21T00:41:52Z,-0.370117,-0.126945,0.171325,0.42714620721598356
51,44.940059,-93.170308,2025-03-21T00:41:53Z,-0.330171,-0.053171,0.003025,0.3344386268166403
52,44.940059,-93.170164,2025-03-21T00:41:54Z,-0.315524,-0.098652,0.117184,0.3507416449981382
53,44.940061,-93.170024,2025-03-21T00:41:55Z,-0.284576,-0.147223,0.103889,0.3368249334981008
54,44.94006,-93.16989,2025-03-21T00:41:56Z,-0.291657,-0.07273,0.013941,0.30091163159638745
55,44.940059,-93.169759,2025-03-21T00:41:57Z,-0.182049,-0.07124,0.086657,0.21383734858532077
56,44.940058,-93.16963,2025-03-21T00:41:58Z,0.270389,0.066106,-0.174214,0.328375900993054
57,44.940059,-93.169498,2025-03-21T00:41:59Z,0.40417,0.098485,-0.072908,0.4223366673508233
58,44.940058,-93.16936,2025-03-21T00:42:00Z,0.394339,0.171394,-0.013318,0.4301819606643216
59,44.940057,-93.169219,2025-03-21T00:42:01Z,-0.06132,-0.052969,-0.019111,0.08325315418649314
60,44.940057,-93.169082,2025-03-21T00:42:02Z,-0.429738,-0.108263,0.038338,0.44482066954785277
61,44.940057,-93.168953,2025-03-21T00:42:03Z,-0.381935,-0.027334,0.148165,0.4105780790617054
62,44.940056,-93.168827,2025-03-21T00:42:04Z,-0.339523,-0.193194,0.076763,0.39811097364177245
63,44.940056,-93.16871,2025-03-21T00:42:05Z,-0.31779,-0.114266,0.082866,0.3477268709950383
64,44.940056,-93.168597,2025-03-21T00:42:06Z,-0.255808,-0.086133,0.04011,0.2728835624455969
65,44.940056,-93.168489,2025-03-21T00:42:07Z,-0.243344,-0.060962,0.050541,0.2559043971114994
66,44.940057,-93.168386,2025-03-21T00:42:08Z,0.035676,4.54e-4,-0.059831,0.06966155075075489
67,44.940056,-93.168281,2025-03-21T00:42:09Z,0.754945,0.195294,-0.203684,0.8059583558205721
68,44.940056,-93.168169,2025-03-21T00:42:10Z,0.20641,-0.018015,-0.040157,0.21105026172454752
69,44.940053,-93.168054,2025-03-21T00:42:11Z,-0.231457,-0.067611,0.098311,0.2604009272084107
70,44.940054,-93.167952,2025-03-21T00:42:12Z,-0.351094,-0.124008,0.106164,0.3871895863733941
71,44.940054,-93.167855,2025-03-21T00:42:13Z,-0.280627,-0.055217,0.029753,0.2875511627989009
72,44.940055,-93.167764,2025-03-21T00:42:14Z,-0.252859,-0.115207,0.066303,0.2856683646100842
73,44.940055,-93.16768,2025-03-21T00:42:15Z,-0.197186,-0.05576,0.021727,0.20606687925282896
74,44.940056,-93.1676,2025-03-21T00:42:16Z,-0.12418,-0.062879,0.012695,0.13976982530575047
75,44.940057,-93.167523,2025-03-21T00:42:17Z,-0.195573,-0.060459,0.047143,0.2100632082469465
76,44.940057,-93.167453,2025-03-21T00:42:18Z,-0.466624,-0.11235,0.144053,0.5011105134448887
77,44.940057,-93.167392,2025-03-21T00:42:19Z,-0.530357,-0.200521,0.14771,0.5859227448990182
78,44.940057,-93.167344,2025-03-21T00:42:20Z,-0.818075,-0.233713,0.149109,0.8637719408935439
79,44.940058,-93.167312,2025-03-21T00:42:21Z,-0.683215,-0.227385,0.175117,0.7410483372486575
80,44.940059,-93.16729,2025-03-21T00:42:22Z,-0.391984,-0.090108,0.087615,0.4116397650191244
1,44.941452,-93.167083,2025-03-21T00:16:08Z,-0.398676,-0.140683,0.713477,0.8293272508449243
2,44.941415,-93.16705,2025-03-21T00:16:09Z,-0.494171,-0.117636,0.540618,0.7418295138783574
3,44.941407,-93.167052,2025-03-21T00:16:10Z,-0.40086,-0.087508,0.411464,0.5810757377141124
4,44.94139,-93.167061,2025-03-21T00:16:11Z,-0.145627,-0.029524,0.266111,0.3047850948225651
5,44.94139,-93.167041,2025-03-21T00:16:12Z,0.81935,0.18681,0.313875,0.8970785440667947
6,44.941358,-93.167076,2025-03-21T00:16:13Z,1.141972,0.289089,0.325392,1.222109836458655
7,44.941332,-93.167079,2025-03-21T00:16:14Z,0.860721,0.156798,-0.416476,0.9689574351956849
8,44.941284,-93.167091,2025-03-21T00:16:15Z,0.714387,0.025467,-0.339522,0.791373832232277
9,44.941223,-93.167104,2025-03-21T00:16:16Z,0.433416,0.401786,-0.436838,0.7349209869747904
10,44.941173,-93.167097,2025-03-21T00:16:17Z,0.318,-0.009111,-0.272101,0.41862389387372523
11,44.941101,-93.16711,2025-03-21T00:16:18Z,0.315378,0.040337,-0.263603,0.4130095617077164
12,44.941008,-93.167105,2025-03-21T00:16:19Z,0.40109,0.095291,-0.327951,0.5267878331757483
13,44.940932,-93.167106,2025-03-21T00:16:20Z,0.336119,0.125088,-0.284195,0.4575912891762692
14,44.940842,-93.167107,2025-03-21T00:16:21Z,0.06163,-0.05273,-0.22223300000000001,0.23657179901459094
15,44.940729,-93.167106,2025-03-21T00:16:22Z,-0.028524,-0.051085,-0.210279,0.21826716116264488
16,44.940625,-93.167108,2025-03-21T00:16:23Z,-0.00215,-0.04377,-0.153332,0.15947143199959044
17,44.940509,-93.167117,2025-03-21T00:16:24Z,-0.181139,-0.016533,-0.144285,0.23216984867764376
18,44.940394,-93.16711,2025-03-21T00:16:25Z,-0.700686,-0.03565,0.092477,0.7076607864118232
19,44.94027,-93.167099,2025-03-21T00:16:26Z,-0.688838,-0.220252,0.05147,0.7250226856092159
20,44.94015,-93.167095,2025-03-21T00:16:27Z,-0.674342,-0.238315,0.013817,0.7153475251079016
21,44.940037,-93.1671,2025-03-21T00:16:28Z,-0.456424,-0.138339,-0.044978,0.4790444313223983
22,44.939923,-93.167103,2025-03-21T00:16:29Z,-0.579665,-0.047462,-0.00865,0.5816691294619304
23,44.939808,-93.167104,2025-03-21T00:16:30Z,-0.211011,-0.084452,0.018743,0.22805499879195806
24,44.939693,-93.167099,2025-03-21T00:16:31Z,-0.326401,-0.058873,-0.05447,0.33611102902166123
25,44.93958,-93.167103,2025-03-21T00:16:32Z,-0.246594,-0.054445,-0.028644,0.2541521937678288
26,44.939468,-93.167092,2025-03-21T00:16:33Z,-0.137251,-0.068158,-0.014933,0.15396864763321136
27,44.939346,-93.167099,2025-03-21T00:16:34Z,-0.230582,-0.07604,0.032841,0.24500749295684815
28,44.939229,-93.167101,2025-03-21T00:16:35Z,-0.026571,-0.010359,-0.032082,0.04292530309735739
29,44.939107,-93.167098,2025-03-21T00:16:36Z,-0.121981,-0.083643,0.040209,0.15327191357518832
30,44.938983,-93.167097,2025-03-21T00:16:37Z,-0.108306,0.004282,0.066058,0.12693378007449396
31,44.93886,-93.167097,2025-03-21T00:16:38Z,-0.068263,-0.007152,-0.049643,0.0847078256243188
32,44.938735,-93.167104,2025-03-21T00:16:39Z,-0.070575,-0.081881,-0.020457,0.11001735151784013
33,44.938608,-93.167103,2025-03-21T00:16:40Z,-0.086762,-0.007239,-0.05257,0.10170374951298503
34,44.938482,-93.167107,2025-03-21T00:16:41Z,-0.059405,-0.019525,-0.029604,0.06918508846565133
35,44.938353,-93.167105,2025-03-21T00:16:42Z,-0.155661,-0.015816,-7.87e-4,0.15646441175551712
36,44.938218,-93.16711,2025-03-21T00:16:43Z,-0.333934,-0.10818,0.049154,0.35444455768427313
37,44.938085,-93.167107,2025-03-21T00:16:44Z,-0.228879,-0.105051,0.028706,0.2534666520037695
38,44.937959,-93.167106,2025-03-21T00:16:45Z,-0.105005,-0.311404,0.164199,0.3673687695517952
39,44.93783,-93.167106,2025-03-21T00:16:46Z,-0.083703,-0.01434,-0.048069,0.09758307522311438
40,44.9377,-93.167111,2025-03-21T00:16:47Z,-0.121437,-0.09483,-0.047834,0.1613312289205038
41,44.93757,-93.167107,2025-03-21T00:16:48Z,-0.096085,-0.074308,-0.060816,0.13584031781838557
42,44.937435,-93.167116,2025-03-21T00:16:49Z,-0.0998,-0.006832,-0.024648,0.10302543437423596
43,44.937305,-93.167119,2025-03-21T00:16:50Z,-0.347653,-0.01907,0.084088,0.35818579683315194
44,44.937172,-93.167124,2025-03-21T00:16:51Z,-0.247825,-0.196015,0.032926,0.31768417071991484
45,44.93704,-93.167123,2025-03-21T00:16:52Z,-0.26206,0.042817,0.05895,0.271999708803153
46,44.93691,-93.167122,2025-03-21T00:16:53Z,-0.095387,-0.132743,0.032272,0.16661592301457864
47,44.936784,-93.167121,2025-03-21T00:16:54Z,-0.215492,0.0515,-0.027203,0.22322422644731013
48,44.936653,-93.167124,2025-03-21T00:16:55Z,-0.290737,-0.107024,0.01607,0.3102263442149941
49,44.936525,-93.167126,2025-03-21T00:16:56Z,-0.419987,-0.085555,0.107319,0.44184398372615646
50,44.936402,-93.167121,2025-03-21T00:16:57Z,-0.155951,-0.052345,0.079163,0.18255819344800714
51,44.936278,-93.167122,2025-03-21T00:16:58Z,-0.092559,-0.087024,0.048465,0.13597500241588525
52,44.936149,-93.167127,2025-03-21T00:16:59Z,0.093707,0.078596,-0.006656,0.12248524564615935
53,44.936026,-93.167132,2025-03-21T00:17:00Z,0.241883,-0.032452,-0.057632,0.25076276720637775
54,44.935908,-93.167125,2025-03-21T00:17:01Z,0.204259,0.147802,-0.186662,0.3137034786689494
55,44.935782,-93.167129,2025-03-21T00:17:02Z,0.112285,-0.042161,-0.080364,0.14437397148378234
56,44.935653,-93.167125,2025-03-21T00:17:03Z,-0.027305,-6.57e-4,0.052787,0.059434518951531866
57,44.935525,-93.167124,2025-03-21T00:17:04Z,-0.338476,-0.182643,0.123341,0.40390279809132296
58,44.935398,-93.167125,2025-03-21T00:17:05Z,-0.102901,-7.53e-4,0.05861,0.11842430033569969
59,44.93527,-93.167125,2025-03-21T00:17:06Z,-0.214633,0.003644,-0.001272,0.21466769996671597
60,44.935145,-93.167124,2025-03-21T00:17:07Z,-0.176058,-0.018851,-0.004996,0.17713480623807393
61,44.935022,-93.16713,2025-03-21T00:17:08Z,-0.294413,-0.161784,0.017903,0.33641283363450925
62,44.934903,-93.167133,2025-03-21T00:17:09Z,-0.792157,-0.154013,0.150162,0.8208418502135475
63,44.934788,-93.16714,2025-03-21T00:17:10Z,-1.269782,-0.371222,0.226907,1.342251424829566
64,44.934683,-93.167133,2025-03-21T00:17:11Z,-0.79824,-0.33262,0.224111,0.8933358284100106
65,44.934594,-93.167133,2025-03-21T00:17:12Z,-0.903103,-0.014455,0.292908,0.9495257090242476
66,44.934513,-93.167131,2025-03-21T00:17:13Z,-0.99587,-0.304533,0.227589,1.0659709929965262
67,44.934439,-93.16713,2025-03-21T00:17:14Z,-0.962618,-0.246202,0.36358,1.0580355642075554
1,44.941366,-93.167064,2025-03-21T00:21:42Z,0.491438,0.105523,1.90059,1.9659320332791264
2,44.941306,-93.167047,2025-03-21T00:21:43Z,0.479404,0.104987,0.831003,0.9650991925154637
3,44.941238,-93.167049,2025-03-21T00:21:44Z,0.221099,0.176554,0.277578,0.3963655242336296
4,44.941166,-93.167049,2025-03-21T00:21:45Z,0.010549,-0.028499,-0.050328,0.05879100259393439
5,44.941089,-93.167053,2025-03-21T00:21:46Z,-0.248505,-0.046743,-0.107608,0.27480743210109876
6,44.941009,-93.167053,2025-03-21T00:21:47Z,-0.431429,-0.130945,-0.024869,0.4515484937711563
7,44.940927,-93.167053,2025-03-21T00:21:48Z,-0.824685,-0.19502,0.096301,0.8528845362802635
8,44.940849,-93.167054,2025-03-21T00:21:49Z,-0.794149,-0.181075,-0.003367,0.8145379834697705
9,44.940773,-93.167054,2025-03-21T00:21:50Z,-0.758297,-0.231295,0.031313,0.793405458263932
10,44.940699,-93.167056,2025-03-21T00:21:51Z,-0.924304,-0.211268,0.04856,0.9493840770941969
11,44.940633,-93.167056,2025-03-21T00:21:52Z,-1.047098,-0.25373,0.162292,1.0895557937838707
12,44.940573,-93.167054,2025-03-21T00:21:53Z,-1.104145,-0.317877,0.153576,1.1592098843307022
13,44.94052,-93.167053,2025-03-21T00:21:54Z,-1.255288,-0.270612,0.147316,1.292548189176713
14,44.940475,-93.167051,2025-03-21T00:21:55Z,-1.248406,-0.355384,0.18269,1.3107978350577176
15,44.940441,-93.167047,2025-03-21T00:21:56Z,-0.678023,-0.169541,0.065372,0.7019493126957246
16,44.940415,-93.167043,2025-03-21T00:21:57Z,-0.16706,-0.060595,-0.052275,0.18523896255917652
17,44.940389,-93.16704,2025-03-21T00:21:58Z,0.558583,0.133031,-0.239412,0.6221176099372209
18,44.940362,-93.167039,2025-03-21T00:21:59Z,1.308551,0.291933,-0.420216,1.4050309899592963
19,44.940326,-93.167035,2025-03-21T00:22:00Z,1.04389,0.242281,-0.342428,1.1250170444242167
20,44.940275,-93.167033,2025-03-21T00:22:01Z,1.070814,0.24931,-0.352799,1.154671049735378
21,44.940215,-93.167036,2025-03-21T00:22:02Z,0.954495,0.206971,-0.240547,1.005863091615852
22,44.940144,-93.167035,2025-03-21T00:22:03Z,0.624286,0.124929,-0.209339,0.6701963009133965
23,44.940066,-93.167032,2025-03-21T00:22:04Z,0.159237,-0.040178,-0.089188,0.18688283280440715
24,44.939987,-93.167036,2025-03-21T00:22:05Z,-2.58e-4,0.072588,-0.002605,0.07263518660401445
25,44.939905,-93.167036,2025-03-21T00:22:06Z,0.006071,0.013137,-0.042964,0.04533589202828152
26,44.939819,-93.16704,2025-03-21T00:22:07Z,-0.151681,-0.019639,-0.004159,0.15300363839791523
27,44.939729,-93.167043,2025-03-21T00:22:08Z,-0.429601,-0.090713,0.056326,0.44267198448286743
28,44.939643,-93.167046,2025-03-21T00:22:09Z,-0.352714,-0.083841,0.023239,0.3632857418038864
29,44.939555,-93.167046,2025-03-21T00:22:10Z,-0.247293,-0.034814,0.041556,0.25316544705192295
30,44.939467,-93.167048,2025-03-21T00:22:11Z,-0.533715,-0.161564,0.137624,0.574364860256092
31,44.939382,-93.167049,2025-03-21T00:22:12Z,-0.124321,-0.067468,0.028631,0.14431692979688834
32,44.939298,-93.16705,2025-03-21T00:22:13Z,0.353885,0.090181,-0.109298,0.38119976231629527
33,44.93921,-93.167053,2025-03-21T00:22:14Z,0.401789,0.077381,-0.260959,0.48530590287261083
34,44.939116,-93.167055,2025-03-21T00:22:15Z,0.418177,0.079768,-0.204438,0.4722603445103135
35,44.939014,-93.167056,2025-03-21T00:22:16Z,0.356979,0.062291,-0.121488,0.3821956426570036
36,44.938907,-93.167056,2025-03-21T00:22:17Z,0.269809,0.087003,-0.047638,0.2874644282933108
37,44.938794,-93.167055,2025-03-21T00:22:17Z,0.122194,0.01777,-0.055814,0.13550774565315446
38,44.938678,-93.167058,2025-03-21T00:22:18Z,0.07212,0.017364,-0.025447,0.07842418443949545
39,44.938558,-93.16706,2025-03-21T00:22:19Z,0.001393,-0.027289,-0.00483,0.027748132729969417
40,44.938433,-93.167062,2025-03-21T00:22:20Z,-0.075578,-0.011024,-0.013431,0.07754969001227537
41,44.938305,-93.167065,2025-03-21T00:22:21Z,-0.142815,-0.03595,0.043081,0.1534421691908714
42,44.938176,-93.167066,2025-03-21T00:22:22Z,-0.16128,-0.037992,0.044347,0.1715263445450873
43,44.938044,-93.167067,2025-03-21T00:22:23Z,-0.084442,-0.144199,0.008977,0.16734512091483275
44,44.937911,-93.167067,2025-03-21T00:22:24Z,-0.080061,-0.182524,-0.077978,0.21402182781436102
45,44.937776,-93.167067,2025-03-21T00:22:25Z,-0.165971,-0.165155,-0.033331,0.23650264782238697
46,44.937641,-93.167065,2025-03-21T00:22:26Z,-0.306096,-0.065445,0.116431,0.3339670447843619
47,44.937505,-93.167067,2025-03-21T00:22:27Z,-0.238805,-0.063222,0.112039,0.27125188815932694
48,44.937369,-93.167067,2025-03-21T00:22:28Z,-0.269018,-0.065918,0.068744,0.28537975503528623
49,44.937233,-93.16707,2025-03-21T00:22:29Z,-0.382123,-0.117201,0.098237,0.4115878638869227
50,44.937096,-93.167075,2025-03-21T00:22:30Z,-0.349449,-0.017313,0.06019,0.355017154050336
51,44.936962,-93.167078,2025-03-21T00:22:31Z,-0.283264,-0.159879,0.022804,0.3260671874828867
52,44.936827,-93.167078,2025-03-21T00:22:32Z,-0.294928,-0.025545000000000002,-0.016714,0.29650367620823864
53,44.936693,-93.167076,2025-03-21T00:22:33Z,-0.224808,-0.066161,-0.04106,0.23791140869029379
54,44.936558,-93.16708,2025-03-21T00:22:34Z,-0.303137,-0.074221,0.039665,0.314601509587923
55,44.936425,-93.167081,2025-03-21T00:22:35Z,-0.30806,-0.149996,0.101841,0.3574511895308225
56,44.936293,-93.167079,2025-03-21T00:22:36Z,-0.346061,-0.094283,0.127959,0.38081623585530067
57,44.936163,-93.167077,2025-03-21T00:22:37Z,-0.31676,-0.008885,0.087498,0.32874266657828277
58,44.936034,-93.167076,2025-03-21T00:22:38Z,-0.236383,-0.086647,0.026826,0.25318819003658133
59,44.935907,-93.167075,2025-03-21T00:22:39Z,-0.251985,-0.087712,0.066759,0.275039268559964
60,44.935785,-93.167074,2025-03-21T00:22:40Z,-0.194171,-0.082845,0.080507,0.22593593852019206
61,44.935662,-93.167075,2025-03-21T00:22:41Z,-0.19392,-0.022053,-0.004404,0.19521961075926772
62,44.935541,-93.167074,2025-03-21T00:22:42Z,-0.215336,-0.077602,-0.001573,0.22889765754371538
63,44.935419,-93.167074,2025-03-21T00:22:43Z,-0.253729,-0.085871,-0.006701,0.26794987867696446
64,44.935299,-93.167074,2025-03-21T00:22:44Z,-0.579209,-0.125806,0.129009,0.6065917386496457
65,44.935185,-93.167077,2025-03-21T00:22:45Z,-1.031172,-0.264,0.300731,1.1060971150604273
66,44.935081,-93.167076,2025-03-21T00:22:46Z,-1.474071,-0.361204,0.402056,1.570032697045829
67,44.934994,-93.167077,2025-03-21T00:22:48Z,-0.905537,-0.269645,0.247316,0.9766631395982958
68,44.934921,-93.167074,2025-03-21T00:22:49Z,-0.815538,-0.178394,0.134832,0.845639590430817
69,44.934855,-93.167076,2025-03-21T00:22:50Z,-0.492696,-0.105858,-0.038645,0.5054193314516175
70,44.934797,-93.167078,2025-03-21T00:22:51Z,-0.226791,-0.0696,-0.223861,0.3261779652306391
71,44.934744,-93.167075,2025-03-21T00:22:52Z,0.026243,-0.005728,-0.448547,0.449350549395458
72,44.934696,-93.167066,2025-03-21T00:22:53Z,0.10843,0.036601,-0.208055,0.23745227125887844
73,44.934649,-93.167055,2025-03-21T00:22:54Z,0.481731,0.106614,0.171661,0.5223971671802978
74,44.934603,-93.167063,2025-03-21T00:22:55Z,0.499055,0.163695,0.35819,0.6357295196465239
75,44.934557,-93.167063,2025-03-21T00:22:56Z,0.379203,0.133504,0.276563,0.48796037358990535
76,44.93451,-93.167063,2025-03-21T00:22:57Z,-0.163574,-0.059764,0.248704,0.30361467156249217
77,44.934467,-93.167042,2025-03-21T00:22:58Z,-0.523446,-0.123692,0.130979,0.5535800973851932
1,44.934407,-93.166975,2025-03-21T00:08:17Z,0.675214,0.161623,-0.614571,0.9272181264222566
2,44.934475,-93.16698,2025-03-21T00:08:18Z,0.751906,0.227019,0.154725,0.8005248808263238
3,44.934553,-93.166991,2025-03-21T00:08:19Z,0.544842,0.220263,0.417154,0.7206844343046408
4,44.934642,-93.166989,2025-03-21T00:08:20Z,0.457225,0.118205,0.443963,0.6481745660074916
5,44.934736,-93.166989,2025-03-21T00:08:21Z,0.426793,0.147088,0.345885,0.5687034181522035
6,44.934835,-93.16699,2025-03-21T00:08:22Z,0.403713,0.13671,0.36607,0.5618550127648592
7,44.934943,-93.166986,2025-03-21T00:08:23Z,0.325186,0.144859,0.437472,0.5640140204471871
8,44.935048,-93.16699,2025-03-21T00:08:24Z,0.278527,0.001233,0.433489,0.5152586953550614
9,44.935148,-93.166989,2025-03-21T00:08:25Z,0.258079,0.131656,0.459807,0.5434708362239873
10,44.935278,-93.166947,2025-03-21T00:08:26Z,0.090153,0.106516,0.378163,0.4030886704361709
11,44.935426,-93.16699,2025-03-21T00:08:27Z,0.060143,0.047667,0.423896,0.4307866550323953
12,44.935552,-93.166989,2025-03-21T00:08:28Z,-0.027786,-0.041486,0.328702,0.3324727880533984
13,44.935688,-93.166989,2025-03-21T00:08:29Z,-0.043045,0.060954,0.394333,0.4013312559843801
14,44.935828,-93.16699,2025-03-21T00:08:30Z,-0.216128,-0.036,0.347737,0.41100892150049495
15,44.935971,-93.166992,2025-03-21T00:08:31Z,-0.146829,-0.098585,0.328385,0.37298051650320824
16,44.936117,-93.166991,2025-03-21T00:08:32Z,-0.333038,0.029145,0.497954,0.5997682273887139
17,44.936261,-93.166996,2025-03-21T00:08:33Z,-0.268083,-0.039983,0.442587,0.5189897761488178
18,44.936409,-93.166997,2025-03-21T00:08:34Z,-0.129193,-0.120095,0.316627,0.3624448887803496
19,44.936559,-93.166994,2025-03-21T00:08:35Z,-0.224196,0.009043,0.218626,0.31327775238755784
20,44.936711,-93.166993,2025-03-21T00:08:37Z,-0.220039,0.015127,0.201871,0.2989947964279646
21,44.936865,-93.166993,2025-03-21T00:08:38Z,-0.317777,-0.08749,0.308696,0.4515860297274485
22,44.93702,-93.166995,2025-03-21T00:08:39Z,-0.421238,-0.051879,0.26607,0.5009252720566212
23,44.937174,-93.166994,2025-03-21T00:08:40Z,-0.308545,-0.103237,0.201406,0.38265163272877856
24,44.937318,-93.166996,2025-03-21T00:08:41Z,-0.485766,-0.115275,0.162045,0.5248957176487535
25,44.937472,-93.166998,2025-03-21T00:08:42Z,-0.642332,-0.168625,0.314364,0.7347445225008485
26,44.937627,-93.167002,2025-03-21T00:08:43Z,-0.658843,-0.195105,0.367378,0.77917049132908
27,44.937776,-93.167,2025-03-21T00:08:44Z,-0.440583,-0.162846,0.208361,0.5138545571715795
28,44.937923,-93.166999,2025-03-21T00:08:45Z,-0.362116,-0.419353,0.127354,0.5685103142256963
29,44.938066,-93.166998,2025-03-21T00:08:46Z,-0.519743,-0.183568,0.181086,0.5801914650087503
30,44.938206,-93.166998,2025-03-21T00:08:47Z,-0.52109,-0.075709,0.252224,0.5838523674328983
31,44.938342,-93.166999,2025-03-21T00:08:48Z,-0.250685,-0.122738,0.173806,0.3288101450761518
32,44.938478,-93.166998,2025-03-21T00:08:49Z,-0.119663,-0.047095,0.088231,0.15595474329112277
33,44.938613,-93.166999,2025-03-21T00:08:50Z,-0.091522,-0.054264,0.08394,0.13552410036594967
34,44.938748,-93.166999,2025-03-21T00:08:51Z,-0.373603,-0.05995,0.199776,0.42788275763928607
35,44.938882,-93.167001,2025-03-21T00:08:52Z,-0.519049,-0.123609,0.185226,0.5648006022996079
36,44.939015,-93.167001,2025-03-21T00:08:53Z,-0.485849,-0.222959,0.179571,0.5639199504566228
37,44.93914,-93.167001,2025-03-21T00:08:54Z,-1.325508,-0.382021,0.390807,1.4337508897134117
38,44.939263,-93.167001,2025-03-21T00:08:55Z,-1.904268,-0.522662,0.662397,2.082830278173668
39,44.939368,-93.167,2025-03-21T00:08:56Z,-1.144701,-0.32721,0.40389,1.2571928633272622
40,44.939455,-93.167,2025-03-21T00:08:57Z,-1.007324,-0.293483,0.297736,1.0906331362841495
41,44.93953,-93.167001,2025-03-21T00:08:58Z,-1.033605,-0.262765,0.266158,1.0991928048408979
42,44.939596,-93.167001,2025-03-21T00:08:59Z,-0.891812,-0.20107,0.238761,0.9448622139576754
43,44.939647,-93.167001,2025-03-21T00:09:00Z,-0.791897,-0.231289,0.199503,0.8487619849751754
44,44.939689,-93.167001,2025-03-21T00:09:01Z,-0.569079,-0.138341,0.193373,0.6167513742595147
45,44.939719,-93.167002,2025-03-21T00:09:02Z,-0.446896,-0.115691,0.134843,0.48091899208286626
46,44.93974,-93.167002,2025-03-21T00:09:03Z,-0.141051,-0.02313,0.052904,0.15241133395190792
47,44.939755,-93.167003,2025-03-21T00:09:04Z,0.102962,0.051323,-0.001127,0.11504996263363149
48,44.939765,-93.167003,2025-03-21T00:09:05Z,0.06543,0.029151,0.001488,0.07164551517715537
49,44.939772,-93.167004,2025-03-21T00:09:06Z,0.047581,0.029341,-7.42e-4,0.055905244888114027
50,44.939776,-93.167005,2025-03-21T00:09:07Z,0.496813,0.145479,-0.116345,0.5305878395091618
51,44.939776,-93.167004,2025-03-21T00:09:08Z,0.497707,0.151682,-0.117297,0.5333650468319048
52,44.939777,-93.167003,2025-03-21T00:09:09Z,0.546452,0.162993,-0.138581,0.5868400121958284
53,44.939777,-93.167003,2025-03-21T00:09:10Z,1.043329,0.288528,-0.26142,1.113608650031509
54,44.939776,-93.167003,2025-03-21T00:09:11Z,1.501847,0.398831,-0.403757,1.6055000133973838
55,44.939784,-93.167002,2025-03-21T00:09:12Z,1.950655,0.511435,-0.507794,2.079537312645772
56,44.939808,-93.167002,2025-03-21T00:09:13Z,1.377207,0.384791,-0.36483,1.475758843249804
57,44.939847,-93.167002,2025-03-21T00:09:14Z,1.123919,0.269617,-0.273894,1.1878152922428638
58,44.939894,-93.167003,2025-03-21T00:09:15Z,0.732744,0.242917,-0.209335,0.7998397218505717
59,44.939948,-93.167003,2025-03-21T00:09:16Z,0.445829,0.140546,-0.062221,0.471580457820296
60,44.940007,-93.167003,2025-03-21T00:09:17Z,-0.192816,-0.039791,0.063175,0.2067665692562509
61,44.940068,-93.167002,2025-03-21T00:09:18Z,0.414339,0.034168,-0.086979,0.42474651921587303
62,44.940124,-93.167001,2025-03-21T00:09:19Z,0.704753,0.11203,-0.175925,0.7349674261720719
63,44.94019,-93.167,2025-03-21T00:09:20Z,0.431333,0.113256,-0.181296,0.4813972559549961
64,44.940262,-93.166999,2025-03-21T00:09:21Z,-0.111782,-0.013369,0.02488,0.11529510000429334
65,44.940335,-93.166998,2025-03-21T00:09:22Z,-0.200014,-0.062029,0.042906,0.21376183446303038
66,44.940408,-93.166995,2025-03-21T00:09:23Z,-0.954256,-0.265924,0.258794,1.0238625013877596
67,44.940478,-93.166993,2025-03-21T00:09:24Z,-0.94359,-0.212713,0.270678,1.004427940746871
68,44.940539,-93.166991,2025-03-21T00:09:25Z,-0.283387,-0.09089,0.074148,0.3067036187804115
69,44.940596,-93.166989,2025-03-21T00:09:26Z,-0.025907,-0.063682,-0.006819,0.06908739779438794
70,44.940653,-93.166988,2025-03-21T00:09:27Z,0.601778,0.167214,-0.21491,0.6605176690899344
71,44.940711,-93.166988,2025-03-21T00:09:28Z,0.488552,0.061153,-0.261181,0.5573493167430996
72,44.940779,-93.166989,2025-03-21T00:09:29Z,0.344615,0.121756,-0.298636,0.47198250206654907
73,44.94085,-93.166994,2025-03-21T00:09:30Z,-0.194129,-0.087466,-0.290689,0.36032827327036104
74,44.940923,-93.167,2025-03-21T00:09:31Z,-0.182397,-0.062528,0.14129,0.23904242404435241
75,44.940994,-93.167012,2025-03-21T00:09:32Z,-0.21563,-0.063394,0.259094,0.3429938730823045
76,44.941066,-93.166993,2025-03-21T00:09:33Z,-0.412318,-0.115934,0.440097,0.6141108978751314
77,44.941135,-93.166993,2025-03-21T00:09:34Z,-1.030816,-0.27704,0.404527,1.1414792513160281
1,44.934431,-93.177231,2025-03-21T00:18:59Z,0.92944,0.242112,0.081659,0.9639217428946191
2,44.934471,-93.177246,2025-03-21T00:19:00Z,1.0263,0.194851,-0.500037,1.1581431705838445
3,44.934563,-93.177208,2025-03-21T00:19:01Z,0.745067,0.2466,-0.442809,0.9011194177077754
4,44.934651,-93.177209,2025-03-21T00:19:02Z,0.794475,0.161325,-0.301845,0.8650587756187438
5,44.934751,-93.177205,2025-03-21T00:19:03Z,0.576477,0.205591,-0.272964,0.6701512785229914
6,44.934859,-93.177204,2025-03-21T00:19:04Z,0.251361,-0.053277,-0.164019,0.3048327794234078
7,44.934978,-93.177196,2025-03-21T00:19:05Z,0.11207,0.142823,-0.212258,0.2793054829268484
8,44.935104,-93.177191,2025-03-21T00:19:06Z,-0.157286,0.030725,-0.022879,0.16188378566737313
9,44.935235,-93.177189,2025-03-21T00:19:07Z,-0.239675,-0.394243,0.063721,0.4657596102229132
10,44.93537,-93.177188,2025-03-21T00:19:08Z,-0.494635,0.021027,-0.12548,0.5107358890405098
11,44.9355,-93.177183,2025-03-21T00:19:09Z,-0.769709,-0.141418,0.147871,0.796440096960217
12,44.935635,-93.177188,2025-03-21T00:19:10Z,-0.522967,-0.246255,0.104231,0.5873670994148378
13,44.935764,-93.177187,2025-03-21T00:19:11Z,-0.958917,-0.162353,0.073266,0.9753195457151467
14,44.935877,-93.177189,2025-03-21T00:19:12Z,-0.66463,-0.190626,0.094735,0.6978868310843815
15,44.936018,-93.177204,2025-03-21T00:19:13Z,-0.785508,0.021436,0.106736,0.7930163263489598
16,44.936144,-93.177203,2025-03-21T00:19:14Z,-0.525799,-0.436178,0.098677,0.6902557398631322
17,44.93627,-93.1772,2025-03-21T00:19:15Z,-0.593839,-0.031773,0.139147,0.6107504965687708
18,44.936392,-93.177201,2025-03-21T00:19:17Z,-0.272454,-0.125335,0.061461,0.30613313911107365
19,44.93651,-93.177193,2025-03-21T00:19:18Z,0.113937,0.017458,-0.091125,0.14693599748870254
20,44.936621,-93.177188,2025-03-21T00:19:19Z,0.081369,0.06442,-0.057834000000000003,0.11880918363914467
21,44.936762,-93.177196,2025-03-21T00:19:20Z,-0.416905,-0.070834,0.039661,0.42473548180249787
22,44.936893,-93.177198,2025-03-21T00:19:21Z,-0.247243,-0.214395,0.011837,0.3274666878370989
23,44.937018,-93.177195,2025-03-21T00:19:22Z,-0.326425,0.020867,0.00662,0.32715827471424286
24,44.937143,-93.177196,2025-03-21T00:19:23Z,-0.157134,-0.106033,0.020049,0.19062018110892667
25,44.937276,-93.17719,2025-03-21T00:19:24Z,-0.259849,-0.063907,0.027319,0.2689831504221036
26,44.937402,-93.177193,2025-03-21T00:19:25Z,0.00256,-0.071412,-0.003745,0.0715559387402611
27,44.93753,-93.177193,2025-03-21T00:19:26Z,-0.069716,0.041361,0.046159,0.09328293658542273
28,44.937661,-93.177188,2025-03-21T00:19:27Z,-0.166716,-0.075134,0.042177,0.187665239032166
29,44.937792,-93.177194,2025-03-21T00:19:28Z,-0.39113,-0.054043,0.012341,0.39503876142728067
30,44.937917,-93.177192,2025-03-21T00:19:29Z,-0.062731,-0.181396,-0.035239,0.1951447521661805
31,44.938048,-93.177185,2025-03-21T00:19:30Z,-0.102313,0.003005,-0.021913,0.1046764518074624
32,44.938174,-93.177184,2025-03-21T00:19:31Z,-0.152677,-0.001469,0.071501,0.16859661114921617
33,44.938302,-93.177188,2025-03-21T00:19:32Z,-0.187558,-0.093649,0.056858,0.21721181074932366
34,44.938421,-93.177196,2025-03-21T00:19:33Z,-0.321818,-0.022787,0.078819,0.33211219076390436
35,44.938551,-93.177185,2025-03-21T00:19:34Z,-0.252278,-0.079725,0.048504,0.26898494925367106
36,44.938676,-93.177181,2025-03-21T00:19:35Z,-0.204453,-0.114638,0.006832,0.23449856391244703
37,44.938798,-93.177181,2025-03-21T00:19:36Z,-0.257601,-0.065765,0.032852,0.2678853566919999
38,44.938915,-93.177181,2025-03-21T00:19:37Z,-0.241571,0.138899,0.07137,0.2876511031475458
39,44.939032,-93.177182,2025-03-21T00:19:38Z,-0.157739,-0.395794,0.041298,0.4280654241596721
40,44.939148,-93.177179,2025-03-21T00:19:39Z,-0.772655,-0.066435,0.143503,0.7886713315817939
41,44.939256,-93.177178,2025-03-21T00:19:40Z,-0.805958,-0.25576,0.174814,0.8634473984904929
42,44.93935,-93.177178,2025-03-21T00:19:41Z,-0.768532,-0.169364,0.175425,0.8062874984427081
43,44.939441,-93.177181,2025-03-21T00:19:42Z,-1.118431,-0.308878,0.235684,1.1839934410717823
44,44.939517,-93.177182,2025-03-21T00:19:43Z,-1.48128,-0.362676,0.360315,1.5670198526505654
45,44.939574,-93.17718,2025-03-21T00:19:44Z,-1.212566,-0.317683,0.337324,1.29808561883298
46,44.939617,-93.17718,2025-03-21T00:19:45Z,-1.043582,-0.27106,0.250614,1.1069527050962926
47,44.939648,-93.177181,2025-03-21T00:19:46Z,-0.72666,-0.159496,0.207128,0.7722536746432482
48,44.939668,-93.177179,2025-03-21T00:19:47Z,-0.335356,-0.077215,0.085456,0.35458219201900143
49,44.939682,-93.177178,2025-03-21T00:19:48Z,0.029358,0.028747,-0.009084,0.04208088911845851
50,44.939691,-93.177181,2025-03-21T00:19:49Z,0.261281,0.072665,-0.083001,0.28361440229120943
51,44.939708,-93.177179,2025-03-21T00:19:50Z,0.660904,0.184632,-0.168081,0.706494370254286
52,44.939724,-93.177179,2025-03-21T00:19:51Z,0.924346,0.234263,-0.249227,0.9856007195685279
53,44.939747,-93.177182,2025-03-21T00:19:52Z,1.521966,0.381001,-0.402676,1.6197809197953283
54,44.93978,-93.177179,2025-03-21T00:19:53Z,1.588001,0.396112,-0.410175,1.6872745547687251
55,44.939819,-93.17718,2025-03-21T00:19:54Z,1.347855,0.311126,-0.35141,1.4272356066890288
56,44.939873,-93.177179,2025-03-21T00:19:55Z,1.265924,0.302929,-0.323907,1.3413594959838322
57,44.939932,-93.177173,2025-03-21T00:19:56Z,1.012086,0.229807,-0.270032,1.0724022611263928
58,44.940004,-93.177177,2025-03-21T00:19:57Z,0.779618,0.361615,-0.292853,0.9079275927947118
59,44.940085,-93.177179,2025-03-21T00:19:58Z,0.799859,0.018796,-0.204796,0.8258747551009172
60,44.940171,-93.17718,2025-03-21T00:19:59Z,0.747925,0.081067,-0.225626,0.7854112018490695
61,44.940264,-93.177181,2025-03-21T00:20:00Z,0.64659,0.201586,-0.10068,0.6847276874028098
62,44.940367,-93.177179,2025-03-21T00:20:01Z,0.357768,0.064243,-0.098929,0.37671216056028767
63,44.940472,-93.177179,2025-03-21T00:20:02Z,0.386471,0.066532,-0.071182,0.39856394466760287
64,44.940585,-93.17718,2025-03-21T00:20:03Z,-0.241904,-0.036172,0.088614,0.26015072514986387
65,44.940697,-93.17718,2025-03-21T00:20:04Z,-0.431654,-0.08494,0.187201,0.4781047936561607
66,44.940805,-93.177174,2025-03-21T00:20:05Z,-0.581714,-0.151832,0.121858,0.6134276698878197
67,44.940911,-93.177173,2025-03-21T00:20:06Z,-0.364597,-0.149143,0.136436,0.4168805451853085
68,44.941014,-93.17718,2025-03-21T00:20:07Z,-1.143523,-0.321902,0.184286,1.2021759766893532
1,44.941485,-93.177275,2025-03-21T00:05:42Z,-0.881466,-0.236904,0.296203,0.9596051435778156
2,44.941476,-93.177262,2025-03-21T00:05:43Z,-0.699082,-0.185434,0.630199,0.9592977591347746
3,44.941467,-93.177262,2025-03-21T00:05:44Z,-0.796065,-0.205498,0.653678,1.0503541497575948
4,44.941462,-93.177262,2025-03-21T00:05:45Z,-0.487486,-0.121844,0.554597,0.7483758366896942
5,44.941465,-93.177264,2025-03-21T00:05:46Z,0.042219,0.019605,0.390782,0.39354462454720435
6,44.941464,-93.177259,2025-03-21T00:05:47Z,0.041458,0.02116,0.373245,0.3761360676523856
7,44.941463,-93.177258,2025-03-21T00:05:48Z,0.039723,0.014515,0.345446,0.3480252014869038
8,44.941462,-93.177259,2025-03-21T00:05:49Z,0.027363,0.012998,0.315534,0.31698483706480346
9,44.941462,-93.177258,2025-03-21T00:05:50Z,0.029815,0.009689,0.289402,0.29109505071368014
10,44.941461,-93.177257,2025-03-21T00:05:51Z,0.078255,0.022163,0.254069,0.26676975157427424
11,44.941462,-93.17724,2025-03-21T00:05:52Z,0.590534,0.156167,0.08992,0.6174173170919326
12,44.941461,-93.177224,2025-03-21T00:05:53Z,1.671297,0.422006,-0.264721,1.7439609898406558
13,44.941461,-93.177224,2025-03-21T00:05:54Z,1.486147,0.387496,-0.234356,1.5536115313555703
14,44.941417,-93.177199,2025-03-21T00:05:55Z,0.994424,0.214924,-0.031254,1.0178645440666454
15,44.941334,-93.177247,2025-03-21T00:05:56Z,0.92058,0.22253,-0.022308,0.9473567354296901
16,44.941267,-93.177258,2025-03-21T00:05:57Z,0.820448,0.211408,-0.037708,0.8480861727631219
17,44.941191,-93.177252,2025-03-21T00:05:58Z,0.67953,0.226866,0.045747,0.7178593113312663
18,44.941116,-93.177252,2025-03-21T00:05:59Z,0.646389,0.243243,0.185421,0.7150991844569534
19,44.941026,-93.177247,2025-03-21T00:06:00Z,0.484419,0.061909,0.028415,0.489184938512011
20,44.940922,-93.17725,2025-03-21T00:06:01Z,0.226307,0.056206,0.093409,0.2511955691607637
21,44.940812,-93.177243,2025-03-21T00:06:02Z,0.318529,0.080174,0.045096,0.33154523572658984
22,44.940705,-93.177244,2025-03-21T00:06:03Z,-0.148234,-0.032225,0.082559,0.17270714479140695
23,44.940595,-93.177241,2025-03-21T00:06:04Z,-0.153023,0.007489,0.029102,0.15594566378710245
24,44.940477,-93.177235,2025-03-21T00:06:05Z,-0.317072,-0.096289,0.259262,0.420741024086076
25,44.94036,-93.177231,2025-03-21T00:06:06Z,-0.318673,-0.046397,0.194406,0.37616333603103846
26,44.940237,-93.177225,2025-03-21T00:06:07Z,-0.399261,-0.105951,0.220192,0.46810199464005703
27,44.940119,-93.177242,2025-03-21T00:06:08Z,-0.418401,-0.102233,0.243909,0.49497735642249335
28,44.939999,-93.177245,2025-03-21T00:06:09Z,-0.203058,-0.460253,0.167611,0.5302441161333146
29,44.939879,-93.177254,2025-03-21T00:06:10Z,-0.522382,0.307236,0.184447,0.633480551736989
30,44.939753,-93.177268,2025-03-21T00:06:11Z,-0.39802,-0.245024,0.116233,0.4816293089763122
31,44.939633,-93.177263,2025-03-21T00:06:12Z,-0.26782,-0.037084,0.109871,0.2918465557394845
32,44.939515,-93.177254,2025-03-21T00:06:13Z,-0.321006,-0.080182,0.114323,0.350062499404035
33,44.939379,-93.177251,2025-03-21T00:06:14Z,-0.213694,-0.049424,0.113627,0.2470201460225461
34,44.939257,-93.177248,2025-03-21T00:06:15Z,-0.147048,-0.073624,0.059913,0.175023356295667
35,44.939133,-93.177246,2025-03-21T00:06:16Z,-0.207515,-0.031875,0.071612,0.22182598899587938
36,44.939007,-93.177245,2025-03-21T00:06:17Z,-0.135984,-0.159841,0.043464,0.2143126520600219
37,44.938888,-93.177241,2025-03-21T00:06:18Z,-0.119517,-0.036893,0.069838,0.14325764545740657
38,44.938752,-93.177245,2025-03-21T00:06:19Z,-0.173536,-0.014839,0.04911,0.18096057945585828
39,44.938619,-93.177242,2025-03-21T00:06:20Z,-0.295858,-0.058516,0.07179,0.31001593913861913
40,44.93849,-93.177245,2025-03-21T00:06:21Z,-0.509672,-0.178517,0.075805,0.5453258336976161
41,44.938365,-93.177237,2025-03-21T00:06:22Z,-0.574225,-0.119127,0.184149,0.6146840220430331
42,44.938247,-93.177248,2025-03-21T00:06:23Z,-0.451929,-0.157138,0.096347,0.4880726549336687
43,44.938128,-93.177244,2025-03-21T00:06:24Z,-0.488846,-0.162438,0.148364,0.5360675256495211
44,44.938009,-93.177252,2025-03-21T00:06:25Z,-0.462892,-0.094752,0.178049,0.5049241443712116
45,44.937898,-93.177244,2025-03-21T00:06:26Z,-0.471222,-0.105237,0.089291,0.4910171912815273
46,44.937784,-93.177248,2025-03-21T00:06:27Z,-0.265593,-0.368513,0.112518,0.4679762527543465
47,44.937675,-93.177248,2025-03-21T00:06:28Z,-0.312979,0.126801,0.063824,0.3436682281183409
48,44.937568,-93.177252,2025-03-21T00:06:29Z,-0.306362,-0.144921,0.082835,0.34888595344324197
49,44.937462,-93.177248,2025-03-21T00:06:30Z,-0.345447,-0.108005,0.003602,0.36195536221749774
50,44.937362,-93.17726,2025-03-21T00:06:31Z,-0.319715,-0.070634,0.04809,0.3309372920675457
51,44.937262,-93.177254,2025-03-21T00:06:32Z,-0.281094,-0.086146,0.043904,0.2972583579447347
52,44.937166,-93.177253,2025-03-21T00:06:33Z,-0.23567,-0.086174,0.059054,0.25778611694969145
53,44.93707,-93.177255,2025-03-21T00:06:34Z,-0.214023,0.030482,-0.016768,0.21683210711746542
54,44.936983,-93.177259,2025-03-21T00:06:35Z,0.127627,-0.201346,0.070942,0.24871998353369196
55,44.936891,-93.177256,2025-03-21T00:06:36Z,0.074548,0.055252,-0.038497,0.10045997619450246
56,44.93679,-93.177254,2025-03-21T00:06:37Z,0.006131,0.045246,0.007594,0.046286699093800156
57,44.936694,-93.177257,2025-03-21T00:06:38Z,0.034772,-0.009203,-0.03246,0.048450374539316
58,44.936604,-93.177254,2025-03-21T00:06:39Z,0.029165,-0.001905,-0.037976,0.047920797426587135
59,44.936513,-93.177253,2025-03-21T00:06:40Z,0.071297,-0.006088,-0.081172,0.10820914719652863
60,44.936421,-93.177256,2025-03-21T00:06:41Z,-0.016942,0.041541,-0.004698,0.04510828359625314
61,44.936326,-93.177255,2025-03-21T00:06:42Z,0.091622,0.011112,0.018168,0.09406457171539133
62,44.936235,-93.177253,2025-03-21T00:06:43Z,0.202748,-0.018327,-0.111502,0.23211059096258405
63,44.936138,-93.17725,2025-03-21T00:06:44Z,0.294585,0.124081,-0.134038,0.34661592899057597
64,44.936038,-93.177253,2025-03-21T00:06:45Z,0.378427,-0.148949,-0.06428,0.4117337942530343
65,44.93594,-93.17725,2025-03-21T00:06:46Z,0.309374,0.245502,-0.222769,0.45344187195383706
66,44.935839,-93.177243,2025-03-21T00:06:47Z,0.190074,0.046031999999999997,-8.41e-4,0.19557039085965952
67,44.935738,-93.177242,2025-03-21T00:06:48Z,-0.048596,-0.0128,-0.021496,0.05465792926922863
68,44.935636,-93.177244,2025-03-21T00:06:49Z,-0.026439,-0.026022,-0.0015790000000000001,0.037130290141608104
69,44.935533,-93.177245,2025-03-21T00:06:50Z,0.031461,-0.030695,0.064387,0.07795936964214116
70,44.935431,-93.177247,2025-03-21T00:06:51Z,0.070669,0.025074,-0.028855,0.08034565365967221
71,44.935328,-93.177248,2025-03-21T00:06:52Z,-0.227565,-0.047387,-0.168351,0.2870076936163907
72,44.935229,-93.177245,2025-03-21T00:06:53Z,-0.395337,-0.04678,-0.159222,0.42875559151222736
73,44.935132,-93.177235,2025-03-21T00:06:54Z,-0.032028,-0.21717,0.007212,0.21963746180467483
74,44.935035,-93.177232,2025-03-21T00:06:55Z,0.103048,0.06463,-0.049131,0.1311860601016739
75,44.934935,-93.177221,2025-03-21T00:06:56Z,-0.041791,-0.01314,0.055706,0.07086822783871487
76,44.934837,-93.177217,2025-03-21T00:06:57Z,-0.245057,-0.048109,0.193084,0.3156720453033496
77,44.934739,-93.177218,2025-03-21T00:06:58Z,-0.24914,-0.093054,0.208245,0.3377806485590908
78,44.93465,-93.177217,2025-03-21T00:06:59Z,-0.73026,-0.172951,0.263296,0.7953090591820264
79,44.934569,-93.177218,2025-03-21T00:07:00Z,-1.289727,-0.384806,0.367918,1.3952903091790612
80,44.934504,-93.177213,2025-03-21T00:07:01Z,-1.46913,-0.38946,0.399737,1.5715634628194308
81,44.934451,-93.17721,2025-03-21T00:07:02Z,-1.380974,-0.366127,0.382998,1.4791300270121623
82,44.93442,-93.177216,2025-03-21T00:07:03Z,-1.140335,-0.306518,0.299355,1.2181669066979288
1,44.934259,-93.167257,2025-03-21T00:17:19Z,0.608291,0.246014,-0.040712,0.6574179004415684
2,44.934265,-93.16733,2025-03-21T00:17:20Z,0.958106,0.169092,-0.739969,1.2223392870479948
3,44.934266,-93.167425,2025-03-21T00:17:21Z,0.650701,0.165808,-0.680391,0.9559476958212724
4,44.934269,-93.167532,2025-03-21T00:17:22Z,0.603457,0.100489,-0.655234,0.8964318070695617
5,44.934272,-93.167649,2025-03-21T00:17:23Z,0.347248,0.135459,-0.69096900000000006,0.7850913788508953
6,44.934274,-93.167775,2025-03-21T00:17:25Z,-0.014926,-8.48e-4,-0.592855,0.5930434685628028
7,44.934276,-93.167913,2025-03-21T00:17:26Z,0.040352,0.023401,-0.596942,0.5987617573534569
8,44.934278,-93.168053,2025-03-21T00:17:27Z,-0.073747,-0.009095,-0.55288,0.5578509060976777
9,44.934274,-93.168206,2025-03-21T00:17:28Z,-0.216549,-0.020266,-0.472263,0.5199389592307927
10,44.934282,-93.16837,2025-03-21T00:17:29Z,-0.33461,-0.114996,-0.416645,0.5466086242834081
11,44.934284,-93.168532,2025-03-21T00:17:30Z,-0.462562,-0.134852,-0.363699,0.6036767581653281
12,44.934283,-93.168686,2025-03-21T00:17:31Z,-0.453809,-0.05669,-0.329098,0.563437537074874
13,44.934287,-93.168849,2025-03-21T00:17:32Z,-0.43595,-0.10719,-0.241438,0.5097395476554669
14,44.934283,-93.169014,2025-03-21T00:17:33Z,-0.443741,-0.136312,-0.289296,0.5469727708405602
15,44.934288,-93.169188,2025-03-21T00:17:34Z,-0.440471,-0.060056,-0.276792,0.5236747427946091
16,44.934289,-93.169357,2025-03-21T00:17:35Z,-0.443378,-0.085519,-0.239711,0.5112327393330752
17,44.934292,-93.169521,2025-03-21T00:17:36Z,-0.362861,-0.112889,-0.13508,0.40330960569021906
18,44.934294,-93.169709,2025-03-21T00:17:37Z,-0.252887,-0.246504,-0.147373,0.3826680779918806
19,44.934295,-93.169879,2025-03-21T00:17:38Z,-0.360763,-0.060951,-0.132854,0.389249472557125
20,44.934296,-93.170055,2025-03-21T00:17:39Z,-0.459522,-0.12312,-0.091024,0.48435975417038934
21,44.934291,-93.17023,2025-03-21T00:17:40Z,-0.466555,-0.186422,-0.055554,0.5054829146717028
22,44.934299,-93.170418,2025-03-21T00:17:41Z,-0.479383,-0.06385,-0.078495,0.48994525022087926
23,44.934299,-93.170587,2025-03-21T00:17:42Z,-0.356587,-0.105972,-0.097478,0.38455989629315224
24,44.934301,-93.17076,2025-03-21T00:17:43Z,-0.323861,-0.089745,-0.075103,0.3443553004601498
25,44.934304,-93.170939,2025-03-21T00:17:44Z,-0.261505,-0.072927,-0.064184,0.27896737839754665
26,44.934308,-93.171111,2025-03-21T00:17:45Z,-0.159083,-0.098948,-0.083223,0.20499798858037607
27,44.934298,-93.171287,2025-03-21T00:17:46Z,-0.115621,-0.04043,-0.080545,0.14659569422735444
28,44.934298,-93.171458,2025-03-21T00:17:47Z,-0.1601,-0.075383,-0.083528,0.19568222574623378
29,44.934295,-93.171635,2025-03-21T00:17:48Z,-0.094746,-0.022469,-0.119001,0.153762474219167
30,44.934295,-93.171817,2025-03-21T00:17:49Z,-0.143963,-0.006323,-0.129761,0.19391555589740603
31,44.934294,-93.171996,2025-03-21T00:17:50Z,-0.235996,-0.064232,0.116578,0.2709433371094407
32,44.93429,-93.172174,2025-03-21T00:17:51Z,-0.135564,-0.124879,0.20083,0.2725895295806499
33,44.934283,-93.172346,2025-03-21T00:17:52Z,-0.10488,0.029351,0.008858,0.10926920776229687
34,44.934296,-93.17253,2025-03-21T00:17:53Z,-0.165962,-0.01908,-0.02169,0.16845737723234325
35,44.934285,-93.17271,2025-03-21T00:17:54Z,-0.213249,-0.133681,-0.051864,0.256973968055132
36,44.9343,-93.17289,2025-03-21T00:17:55Z,-0.221766,-0.014596,-0.104565,0.24561563711824214
37,44.9343,-93.173061,2025-03-21T00:17:56Z,-0.090213,-0.013479,-0.123889,0.1538458745985735
38,44.934297,-93.173242,2025-03-21T00:17:57Z,-0.311601,0.053116,-0.012416,0.3163394532981936
39,44.934296,-93.17342,2025-03-21T00:17:58Z,-0.252305,-0.126988,-0.039943,0.28527041279810283
40,44.934305,-93.1736,2025-03-21T00:17:59Z,-0.231565,-0.055025,-0.113127,0.263529539101407
41,44.9343,-93.173765,2025-03-21T00:18:00Z,-0.160078,-0.095859,0.025442,0.18831146892581982
42,44.934304,-93.173941,2025-03-21T00:18:01Z,-0.143083,0.023875,0.143545,0.20407823876886041
43,44.934302,-93.174105,2025-03-21T00:18:02Z,-0.109558,-0.022058,0.073148,0.13356698930499258
44,44.934294,-93.174261,2025-03-21T00:18:03Z,-0.119875,-0.04637,0.059675,0.14170849709879785
45,44.934298,-93.174436,2025-03-21T00:18:04Z,-0.094283,0.020317,0.004133,0.09653572534041478
46,44.934296,-93.174606,2025-03-21T00:18:05Z,-0.019375,0.011557,0.062881,0.0668055015324337
47,44.934292,-93.174761,2025-03-21T00:18:05Z,-0.053549,-0.047213,0.052214000000000003,0.08844695905456558
48,44.9343,-93.174922,2025-03-21T00:18:06Z,-0.089539,-0.102081,-0.030794,0.1392337369964622
49,44.934305,-93.175083,2025-03-21T00:18:07Z,-0.154867,0.049801,-0.039337,0.1673658473494518
50,44.934301,-93.175231,2025-03-21T00:18:08Z,-0.104755,-0.093587,0.031897,0.14404705898767944
51,44.934298,-93.175389,2025-03-21T00:18:09Z,-0.160846,-0.014134,-0.027617,0.16381057463118795
52,44.934301,-93.175539,2025-03-21T00:18:10Z,-0.622759,-0.194687,0.110849,0.6618302658922451
53,44.934298,-93.175688,2025-03-21T00:18:11Z,-0.845289,-0.219618,0.203699,0.8967936451860037
54,44.934306,-93.175801,2025-03-21T00:18:12Z,-0.877998,-0.191253,0.23688,0.9292848499857296
55,44.934306,-93.175926,2025-03-21T00:18:13Z,-0.914535,-0.228111,0.246819,0.9743349081845523
56,44.934292,-93.176038,2025-03-21T00:18:14Z,-0.926152,-0.260069,0.203613,0.9832861565353191
57,44.934294,-93.176131,2025-03-21T00:18:15Z,-0.899064,-0.229376,0.17311000000000001,0.9438731363758585
58,44.934297,-93.1762,2025-03-21T00:18:16Z,-0.909553,-0.168393,0.206416,0.9477607437080309
59,44.934297,-93.176261,2025-03-21T00:18:17Z,-1.15315,-0.322952,0.265387,1.226573755048183
60,44.934299,-93.176309,2025-03-21T00:18:18Z,-0.787086,-0.21077,0.204077,0.8399855869150374
61,44.934301,-93.176328,2025-03-21T00:18:19Z,-0.194908,-0.027082,0.020254,0.1978200892326156
62,44.9343,-93.176337,2025-03-21T00:18:20Z,-0.095183,-0.0166,0.028786,0.10081665182399185
63,44.934303,-93.176345,2025-03-21T00:18:21Z,0.153714,0.049283,-0.052741,0.16981878861303892
64,44.934306,-93.176345,2025-03-21T00:18:22Z,0.40733,0.113051,-0.112386,0.43741155734273873
65,44.934306,-93.176344,2025-03-21T00:18:23Z,0.360623,0.096599,-0.103069,0.3873028965693389
66,44.934306,-93.176345,2025-03-21T00:18:24Z,0.345951,0.093756,-0.097849,0.371546374949346
67,44.934309,-93.176344,2025-03-21T00:18:25Z,0.48203,0.127636,-0.139492,0.5177855612703004
68,44.934308,-93.176345,2025-03-21T00:18:26Z,0.776373,0.200001,-0.20785,0.828225245709161
69,44.934309,-93.176351,2025-03-21T00:18:27Z,0.781157,0.199471,-0.2086,0.8327718165800281
70,44.934311,-93.176358,2025-03-21T00:18:28Z,0.635859,0.161031,-0.167447,0.6769683512919935
71,44.934309,-93.17638,2025-03-21T00:18:29Z,0.482819,0.122252,-0.129996,0.514741389710406
72,44.93431,-93.176401,2025-03-21T00:18:30Z,0.400051,0.089822,-0.105035,0.4232506887295046
73,44.934311,-93.176417,2025-03-21T00:18:31Z,0.309132,0.087996,-0.089649,0.33368073459671
74,44.934311,-93.176426,2025-03-21T00:18:32Z,0.800271,0.188609,-0.192351,0.844396787963455
75,44.934311,-93.176473,2025-03-21T00:18:33Z,0.670813,0.148405,-0.153102,0.7038851805500667
76,44.934316,-93.176503,2025-03-21T00:18:34Z,0.186984,0.055836,-0.072674,0.20823588890486674
77,44.934319,-93.176541,2025-03-21T00:18:35Z,0.936713,0.200886,-0.203553,0.9793979033947336
78,44.934319,-93.176578,2025-03-21T00:18:36Z,0.233573,0.083571,-0.051717,0.25340699765199853
79,44.934333,-93.176702,2025-03-21T00:18:37Z,-0.809795,-0.221481,0.266576,0.8808430843016253
80,44.934332,-93.176746,2025-03-21T00:18:38Z,-0.995481,-0.252653,0.772629,1.2852126405428013
81,44.934332,-93.176793,2025-03-21T00:18:39Z,-0.146296,-0.043136,0.119179,0.19356360234558562
82,44.934334,-93.176818,2025-03-21T00:18:40Z,-0.054098,-0.030801,-0.20136,0.21076324348661937
83,44.934341,-93.176853,2025-03-21T00:18:41Z,-0.03488,-0.002052,-0.192905,0.19604378115359844
84,44.934345,-93.176889,2025-03-21T00:18:42Z,-0.034557,-0.029855,-0.161836,0.16815587462232773
85,44.934351,-93.176918,2025-03-21T00:18:43Z,-0.028632,-0.008908,-0.13304,0.1363773642801473
86,44.934349,-93.176946,2025-03-21T00:18:44Z,-0.044817,-0.027562,-0.120273,0.13127765179953518
87,44.934348,-93.176984,2025-03-21T00:18:45Z,-0.239847,-0.070097,-0.020917,0.25075424962899434
88,44.934348,-93.177025,2025-03-21T00:18:46Z,-0.585073,-0.097645,-0.004054,0.5931790591971365
1,44.93426,-93.177123,2025-03-21T00:07:09Z,0.280353,0.088768,-1.922155,1.944519839563999
2,44.934255,-93.177038,2025-03-21T00:07:10Z,0.876936,0.229048,-0.024102,0.9066755984386037
3,44.934261,-93.176949,2025-03-21T00:07:11Z,0.940892,0.271383,0.373925,1.048211044579287
4,44.934265,-93.176836,2025-03-21T00:07:12Z,0.828936,0.236094,0.346472,0.9289338597101517
5,44.934264,-93.176718,2025-03-21T00:07:13Z,0.631121,0.169281,0.31385,0.7248941964880117
6,44.934263,-93.176589,2025-03-21T00:07:14Z,0.258181,0.070842,0.417938,0.49633475555213735
7,44.934262,-93.176457,2025-03-21T00:07:15Z,0.269273,0.118217,0.36664,0.47000861398276517
8,44.934262,-93.176311,2025-03-21T00:07:16Z,0.037197,0.020707,0.457695,0.4596706534933463
9,44.934268,-93.176161,2025-03-21T00:07:17Z,-0.079189,-0.042143,0.477649,0.4859994828917002
10,44.934266,-93.176005,2025-03-21T00:07:18Z,-0.154399,-0.002468,0.505127,0.5282030181227669
11,44.934264,-93.17586,2025-03-21T00:07:19Z,-0.219729,-0.05073,0.395999,0.4557077729664044
12,44.934262,-93.175706,2025-03-21T00:07:20Z,-0.229565,-0.060927,0.36446,0.43502101116382874
13,44.934264,-93.175564,2025-03-21T00:07:21Z,-0.398957,-0.103173,0.399152,0.5737017298928077
14,44.934268,-93.175395,2025-03-21T00:07:22Z,-0.44513200000000003,-0.098722,0.259677,0.5247100866545259
15,44.934265,-93.175254,2025-03-21T00:07:23Z,-0.325925,-0.166281,0.21211,0.42292685973581773
16,44.934265,-93.175098,2025-03-21T00:07:24Z,-0.372331,0.018083,0.438739,0.5757163177911496
17,44.934268,-93.174937,2025-03-21T00:07:25Z,-0.148343,-0.158971,0.536382,0.5787772234754924
18,44.934267,-93.174787,2025-03-21T00:07:26Z,-0.175872,-0.109419,0.251361,0.32570819803314743
19,44.934263,-93.174633,2025-03-21T00:07:27Z,-0.196396,0.070281,0.065306,0.21857648870132396
20,44.934262,-93.174477,2025-03-21T00:07:28Z,-0.17168,-0.018238,0.083799,0.19190862264369468
21,44.934261,-93.174315000000007,2025-03-21T00:07:29Z,-0.040058,0.027321,0.126542,0.13551368258961896
22,44.934262,-93.174156,2025-03-21T00:07:30Z,0.021039,-0.024751,0.105744,0.11062117816223077
23,44.934265,-93.173989,2025-03-21T00:07:31Z,-0.116963,0.006854,0.165292,0.2026049504553134
24,44.934265,-93.173821,2025-03-21T00:07:32Z,-0.079524,-0.110485,0.157388,0.20809128848897063
25,44.934258,-93.173659,2025-03-21T00:07:33Z,-0.273386,-0.075771,0.216132,0.35664294590107903
26,44.934262,-93.173493,2025-03-21T00:07:34Z,-0.032263,-0.091289,0.174457,0.1995240024132435
27,44.93426,-93.173327,2025-03-21T00:07:35Z,-0.23537,0.079889,0.005973,0.2486301790813014
28,44.93426,-93.173158,2025-03-21T00:07:36Z,-0.074484,0.004098,-0.010565,0.0753410849736052
29,44.934267,-93.172979,2025-03-21T00:07:37Z,-0.098494,0.021905,0.16996,0.19765449314650047
30,44.93426,-93.172807,2025-03-21T00:07:38Z,5.52e-4,-0.070717,0.077611,0.10499841005462893
31,44.934259,-93.172641,2025-03-21T00:07:39Z,-0.056785,-0.022747,-0.010818,0.06212078040398398
32,44.934261,-93.172466,2025-03-21T00:07:40Z,-0.118807,0.071018,0.038169,0.1435810995012923
33,44.934261,-93.172289,2025-03-21T00:07:41Z,-0.086979,-0.122069,0.072654,0.16656767669028708
34,44.934249,-93.172113,2025-03-21T00:07:42Z,-0.068385,-0.077622,0.11357,0.15362235517332756
35,44.934259,-93.171946,2025-03-21T00:07:43Z,-0.136818,0.05485,0.081061,0.1682217980673135
36,44.93426,-93.171765,2025-03-21T00:07:44Z,-0.030214,0.021855,0.037998,0.05323884695408043
37,44.934257,-93.171588,2025-03-21T00:07:45Z,6.17e-4,-0.120893,-0.028253,0.12415204447370169
38,44.934258,-93.171412,2025-03-21T00:07:46Z,-6.74e-4,0.02218,0.002873,0.0223754509451765
39,44.934256,-93.171235,2025-03-21T00:07:47Z,-0.078601,-0.058723,0.105525,0.14409036593402072
40,44.934259,-93.171054,2025-03-21T00:07:48Z,-0.079849,-0.075501,0.066523,0.12845844982327942
41,44.934256,-93.170882,2025-03-21T00:07:49Z,-0.048796,0.007541,0.050525,0.07064482940739542
42,44.934258,-93.170703,2025-03-21T00:07:50Z,0.07686,-0.007688,-0.018976,0.07954026351477596
43,44.934256,-93.170514,2025-03-21T00:07:51Z,-0.11972,-0.00645,0.037045,0.1254863057269597
44,44.934255,-93.17033,2025-03-21T00:07:52Z,-0.232787,-0.08322,0.049082,0.25204046995076007
45,44.934255,-93.170152,2025-03-21T00:07:53Z,-0.198319,-0.060845,0.04302,0.21185669728852094
46,44.934254,-93.169972,2025-03-21T00:07:54Z,-0.397204,-0.112272,0.084543,0.42133542273229296
47,44.934253,-93.169796,2025-03-21T00:07:55Z,-0.486106,-0.219857,0.110216,0.5447785883650348
48,44.93425,-93.169626,2025-03-21T00:07:56Z,-0.248194,-0.200927,0.074032,0.32779972237480615
49,44.934252,-93.169463,2025-03-21T00:07:57Z,-0.137595,-0.001322,0.003039,0.13763490556541244
50,44.934252,-93.169297,2025-03-21T00:07:58Z,-0.030501,0.008126,0.063184,0.07062974396810455
51,44.934252,-93.169135,2025-03-21T00:07:59Z,-0.107269,-0.065831,0.020969,0.12759333008821425
52,44.934251,-93.16897,2025-03-21T00:08:00Z,-0.297016,-0.05519,-0.009569,0.30225156098356215
53,44.934248,-93.168809,2025-03-21T00:08:01Z,-0.343306,-0.128574,-0.011225,0.36676461625543977
54,44.934251,-93.168654,2025-03-21T00:08:02Z,-0.295561,-0.064874,0.156484,0.3406643257709853
55,44.934249,-93.168497,2025-03-21T00:08:03Z,-0.35135,-0.129954,0.183069,0.41695218356185637
56,44.934249,-93.168352,2025-03-21T00:08:04Z,-0.504235,-0.172415,0.142751,0.5516862472918824
57,44.93425,-93.168212,2025-03-21T00:08:05Z,-0.64437,-0.160486,0.199416,0.6933507006933792
58,44.934249,-93.16808,2025-03-21T00:08:06Z,-0.679225,-0.187711,0.176646,0.7264886987847781
59,44.934248,-93.16796,2025-03-21T00:08:07Z,-0.325047,-0.069513,0.053569,0.33668568003257876
60,44.934247,-93.167849,2025-03-21T00:08:08Z,-0.069993,-0.038762,-0.041226,0.09000608739968648
61,44.934247,-93.167741,2025-03-21T00:08:09Z,0.036984,0.008887,-0.045816,0.05954746746084169
62,44.934247,-93.167633,2025-03-21T00:08:10Z,0.106438,-0.002974,2.3e-5,0.10647954286622384
63,44.934249,-93.167527,2025-03-21T00:08:11Z,0.065233,0.011776,0.011198,0.06722658454064136
64,44.93425,-93.167421,2025-03-21T00:08:12Z,-0.082139,0.017879,0.054329,0.1000905300365624
1,44.941505,-93.1673,2025-03-21T00:04:31Z,0.026353,0.072448,0.007644,0.07747014940607769
2,44.941553999999996,-93.167424,2025-03-21T00:04:33Z,-0.103567,-0.078447,-0.107838,0.16884634891521938
3,44.941505,-93.167537,2025-03-21T00:04:34Z,0.099265,-0.003734,-0.228214,0.2488957869812183
4,44.94151,-93.167642,2025-03-21T00:04:35Z,0.112434,0.048701,-0.067234,0.1397626649466874
5,44.941515,-93.167759,2025-03-21T00:04:36Z,0.233742,-0.02211,-0.063061,0.2431066934187539
6,44.941511,-93.167887,2025-03-21T00:04:36Z,0.204593,0.082862,0.011873,0.22105513977738675
7,44.941505,-93.168025,2025-03-21T00:04:37Z,0.1459,0.006091,-0.014371,0.14673253191436453
8,44.941504,-93.168174,2025-03-21T00:04:38Z,0.055018,-0.039504,0.070966,0.09810055808200074
9,44.941501,-93.16833,2025-03-21T00:04:39Z,0.008822,0.030912,0.033293,0.04627962053647371
10,44.941497,-93.168492,2025-03-21T00:04:40Z,-0.079394,-0.031704,0.075376,0.11397408577391617
11,44.941496,-93.168651,2025-03-21T00:04:41Z,-0.181354,-0.092952,0.086821,0.22151124951342763
12,44.941494,-93.168817,2025-03-21T00:04:42Z,-0.256037,0.068984,0.076153,0.27588587682953253
13,44.941491,-93.168982,2025-03-21T00:04:43Z,-0.248633,0.031163,0.025198,0.25184209430117116
14,44.941494,-93.169166,2025-03-21T00:04:44Z,-0.213,0.013049,0.054049,0.2201376178711853
15,44.941492,-93.169343,2025-03-21T00:04:45Z,-0.269486,-0.118009,0.087736,0.30699582077448545
16,44.941494,-93.169521,2025-03-21T00:04:46Z,-0.213786,-0.113282,0.065459,0.25064346391039205
17,44.941502,-93.169702,2025-03-21T00:04:47Z,-0.216354,-0.010306,0.029606,0.21861331658432887
18,44.941518,-93.169894,2025-03-21T00:04:48Z,-0.236635,0.006412,0.023502,0.23788564684108204
19,44.941504,-93.170085,2025-03-21T00:04:49Z,-0.228382,-0.152566,0.010308,0.27484718871401975
20,44.941507,-93.170274,2025-03-21T00:04:50Z,-0.250998,0.002499,0.052542,0.25645058543313953
21,44.941509,-93.170463,2025-03-21T00:04:51Z,-0.242685,-0.085988,0.044393,0.2612674564847295
22,44.94151,-93.170657,2025-03-21T00:04:52Z,-0.238888,-0.01571,0.047754,0.24412030878237065
23,44.941512,-93.170841,2025-03-21T00:04:53Z,-0.111652,-0.242889,0.056441,0.27321570581868093
24,44.941508,-93.171038,2025-03-21T00:04:54Z,-0.16547,0.03875,-0.026626,0.17201984558765307
25,44.941508,-93.171227,2025-03-21T00:04:55Z,-0.118692,-0.079292,0.067966,0.15809613937095365
26,44.941511,-93.171423,2025-03-21T00:04:56Z,-0.105794,-0.020347,0.040259,0.11500938190426031
27,44.941509,-93.171626,2025-03-21T00:04:57Z,-0.086311,0.015023,0.034402,0.09412107550384238
28,44.941512,-93.171826,2025-03-21T00:04:58Z,-0.102939,-0.091969,0.010014,0.13840164333561938
29,44.941511,-93.172025,2025-03-21T00:04:59Z,-0.191742,-0.016139,-0.042627,0.19708506542607432
30,44.941509,-93.172228,2025-03-21T00:05:00Z,-0.214367,-0.112131,-0.03747,0.24480721547781226
31,44.94151,-93.172436,2025-03-21T00:05:01Z,-0.357263,-0.121169,0.069859,0.3836652937274885
32,44.941508,-93.17264,2025-03-21T00:05:02Z,-0.27449,-0.060496,0.20687,0.34899817050523346
33,44.941509,-93.172845,2025-03-21T00:05:03Z,-0.411135,-0.091079,0.181837,0.45868515022289524
34,44.941506,-93.17306,2025-03-21T00:05:04Z,-0.309079,-0.106443,0.087112,0.33830229238655773
35,44.941506,-93.173252,2025-03-21T00:05:05Z,-0.353725,-0.100128,0.124473,0.38812436117564175
36,44.941504,-93.173438,2025-03-21T00:05:06Z,-0.53951,-0.305383,0.249886,0.6684106744995925
37,44.941507,-93.173629,2025-03-21T00:05:07Z,-0.838569,-0.19048,0.42889,0.9609512111761971
38,44.941508,-93.17381,2025-03-21T00:05:08Z,-0.631215,-0.237931,1.039241,1.2389775595494052
39,44.941511,-93.17398,2025-03-21T00:05:09Z,-0.364209,-0.002045,1.247811,1.299878713352519
40,44.941517,-93.174137,2025-03-21T00:05:10Z,-0.284475,-0.121396,0.635923,0.7071499673831569
41,44.941557,-93.174288,2025-03-21T00:05:11Z,-0.330856,-0.16174,-0.216148,0.427019294927056
42,44.941583,-93.174433,2025-03-21T00:05:12Z,-0.239778,-0.00865,-0.554861,0.6045155424842277
43,44.941603,-93.174576,2025-03-21T00:05:13Z,-0.073707,0.05874,-0.812153,0.8176035743916485
44,44.941622,-93.17472,2025-03-21T00:05:14Z,-0.051857,-0.093513,-0.877207,0.883700147372965
45,44.94163,-93.174867,2025-03-21T00:05:15Z,0.011608,0.054922,-0.646162,0.6485957924562878
46,44.941627,-93.175017,2025-03-21T00:05:16Z,0.148221,0.079143,-0.238713,0.29191946776294314
47,44.941626,-93.175171,2025-03-21T00:05:17Z,0.140328,0.034129,-0.109494,0.18123375033640945
48,44.941625,-93.175324,2025-03-21T00:05:18Z,0.061124,-0.008533,-0.037427,0.07217849952721378
49,44.941632,-93.175472,2025-03-21T00:05:19Z,-0.063199,-0.041,-0.02609,0.07972328205110475
50,44.941632,-93.175622,2025-03-21T00:05:20Z,-0.224782,-0.111088,0.009829,0.25092648427178826
51,44.941626,-93.175773,2025-03-21T00:05:21Z,-0.559831,-0.147518,0.223804,0.6206935953439507
52,44.941631,-93.17591,2025-03-21T00:05:22Z,-0.69398,-0.182793,0.182918,0.7405947042566535
53,44.941633,-93.176037,2025-03-21T00:05:23Z,-0.52163,-0.157648,0.133916,0.56114547477459
54,44.941631,-93.176153,2025-03-21T00:05:24Z,-0.20489,-0.078195,0.053969,0.2258473446512046
55,44.941633,-93.176261,2025-03-21T00:05:25Z,-0.187417,0.024745,0.061607,0.1988287438048131
56,44.941633,-93.176364,2025-03-21T00:05:26Z,-0.544902,-0.118711,0.206526,0.59469612391624
57,44.941643,-93.176453,2025-03-21T00:05:27Z,-0.851738,-0.330709,0.235283,0.9434957092716426
58,44.941637,-93.176549,2025-03-21T00:05:28Z,-0.243173,-0.066214,0.07278,0.26232485609449974
59,44.941632,-93.176616,2025-03-21T00:05:29Z,0.06421,0.019997,-0.025848,0.07204806182681114
60,44.941635,-93.176689,2025-03-21T00:05:31Z,0.320954,0.116042,-0.047197,0.3445355898728026
61,44.941633,-93.17676,2025-03-21T00:05:32Z,0.417285,0.098351,0.007509,0.42878441611956936
62,44.941627,-93.176836,2025-03-21T00:05:33Z,0.508934,0.07862,-0.117899,0.5282945153576744
1,44.941358,-93.177028,2025-03-21T00:20:12Z,1.362126,0.29373,0.740053,1.577765190256459
2,44.941359,-93.176938,2025-03-21T00:20:13Z,1.037447,0.245158,0.787998,1.3256468499479792
3,44.941369,-93.176826,2025-03-21T00:20:14Z,0.846417,0.192254,0.034434,0.8686593341241433
4,44.941364,-93.176709,2025-03-21T00:20:15Z,0.668612,0.190652,-0.236258,0.7343078606497414
5,44.941367,-93.176579,2025-03-21T00:20:16Z,0.475604,0.203681,-0.33342,0.6155111785962949
6,44.941369,-93.176439,2025-03-21T00:20:17Z,0.128133,-0.019418,-0.392798,0.4136247009270602
7,44.941366,-93.176293,2025-03-21T00:20:18Z,0.16601,0.046233,-0.461213,0.4923558080880127
8,44.941364,-93.17614,2025-03-21T00:20:19Z,0.09367,0.073389,-0.411685,0.42853769197819697
9,44.941366,-93.175976,2025-03-21T00:20:20Z,-0.031888,-0.036146,-0.359209,0.36242859095413543
10,44.941357000000004,-93.175804,2025-03-21T00:20:21Z,-0.152622,0.006111,-0.294937,0.3321425193708267
11,44.94136,-93.175636,2025-03-21T00:20:22Z,-0.346452,-0.071408,-0.237949,0.4263189150964334
12,44.941358,-93.175456,2025-03-21T00:20:23Z,-0.578442,-0.165501,-0.320248,0.6815750214532513
13,44.94136,-93.17528,2025-03-21T00:20:24Z,-0.706829,-0.158705,-0.360386,0.8091183975550179
14,44.94136,-93.175106,2025-03-21T00:20:25Z,-0.756183,-0.157567,-0.363684,0.8537600018939749
15,44.941362,-93.174936,2025-03-21T00:20:26Z,-0.717755,-0.171007,-0.396503,0.8376337284774295
16,44.941374,-93.174764,2025-03-21T00:20:27Z,-0.744417,-0.181723,-0.818749,1.1213963811333618
17,44.94138,-93.174595,2025-03-21T00:20:28Z,-0.844476,-0.217657,-1.093518,1.398676481731569
18,44.941392,-93.174418,2025-03-21T00:20:29Z,-0.73451,-0.054293,-0.652966,0.984285155381813
19,44.941437,-93.174273,2025-03-21T00:20:30Z,-0.199574,-0.040665,0.271334,0.33927210798561086
20,44.941461,-93.174116,2025-03-21T00:20:31Z,0.032862,-0.025359,0.78949,0.7905804513299073
21,44.941475,-93.173952,2025-03-21T00:20:32Z,-0.021339,0.032299,1.051052,1.051764652869643
22,44.941481,-93.173783,2025-03-21T00:20:33Z,0.006889,-0.008451,0.676949,0.6770367983522019
23,44.941479,-93.173618,2025-03-21T00:20:34Z,-0.038784,0.006611,0.235391,0.23865629440264088
24,44.94148,-93.173452,2025-03-21T00:20:35Z,0.064059,-0.074167,-0.113314,0.14981442509317985
25,44.941476,-93.17328,2025-03-21T00:20:36Z,-7.26e-4,-0.058941,-0.175858,0.18547400012131077
26,44.941477,-93.173107,2025-03-21T00:20:37Z,0.082045,0.00431,-0.21579,0.23090102257244338
27,44.941475,-93.172929,2025-03-21T00:20:38Z,0.019372,0.023333,-0.197991,0.20030012320016183
28,44.941476,-93.172748,2025-03-21T00:20:39Z,0.048387,-0.032125,-0.183826,0.1927830793145498
29,44.941474,-93.172563,2025-03-21T00:20:41Z,-0.092904,0.013716,-0.134548,0.16408060877507738
30,44.941474,-93.172378,2025-03-21T00:20:42Z,-0.119035,-0.072436,0.015833,0.14023904310141308
31,44.941473,-93.172194,2025-03-21T00:20:43Z,-0.206781,-0.050258,-0.016059,0.2134060449143838
32,44.941471,-93.172008,2025-03-21T00:20:44Z,-0.12209,-0.05213,-0.093141,0.1621688961576788
33,44.94147,-93.171821,2025-03-21T00:20:45Z,-0.143282,-0.07471,-0.10238,0.19129291681607033
34,44.941468,-93.171633,2025-03-21T00:20:46Z,-0.063561,0.039354,-0.130304,0.15022606449281695
35,44.941467,-93.171444,2025-03-21T00:20:47Z,-0.416017,-0.152461,-0.016536,0.44338238587702156
36,44.941468,-93.171261,2025-03-21T00:20:48Z,-0.359586,-0.125382,-0.057862,0.3851892370822425
37,44.941467,-93.17108,2025-03-21T00:20:49Z,-0.142563,0.005226,0.03921,0.14794912688150613
38,44.941465,-93.170898,2025-03-21T00:20:50Z,-0.154912,-0.082333,-0.020325,0.17660565182915294
39,44.941465,-93.170716,2025-03-21T00:20:51Z,0.054734,-0.029716,-0.032456,0.07022993199484105
40,44.941466,-93.170536,2025-03-21T00:20:52Z,-0.174002,-0.019507,-0.088376,0.1961314264186135
41,44.941466,-93.17035,2025-03-21T00:20:53Z,0.047631,-0.119388,-0.043549,0.1357155927150598
42,44.941464,-93.170166,2025-03-21T00:20:54Z,-0.178494,0.011423,-0.016943,0.17965984029270426
43,44.941464,-93.169984,2025-03-21T00:20:55Z,-0.228928,-0.056114,-0.014047,0.23612312125033413
44,44.941466,-93.169805,2025-03-21T00:20:56Z,-0.230635,-0.017153,0.012054,0.2315858966992593
45,44.941467,-93.169628,2025-03-21T00:20:57Z,-0.225964,0.057879,-0.055782,0.23983606789013198
46,44.941466,-93.169452,2025-03-21T00:20:58Z,-0.098838,-0.179227,-0.006739,0.20478447669196023
47,44.941467,-93.169275,2025-03-21T00:20:59Z,-0.164376,-0.045568,-0.022974,0.17211541672958874
48,44.941465,-93.169101,2025-03-21T00:21:00Z,-0.14096,0.036676,0.033216,0.14939261438237167
49,44.941465,-93.168931,2025-03-21T00:21:01Z,-0.141142,0.047065,0.087167,0.17243626149392127
50,44.94147,-93.168765,2025-03-21T00:21:02Z,-0.137512,0.063155,0.011511,0.15175838457890886
51,44.941473,-93.168598,2025-03-21T00:21:03Z,-0.289873,-0.074896,0.091657,0.31310824421276423
52,44.941467,-93.16844,2025-03-21T00:21:04Z,-0.415905,-0.124711,0.194446,0.4757510372684436
53,44.941467,-93.168286,2025-03-21T00:21:05Z,-0.438762,-0.064777,0.126309,0.4611530286726956
54,44.941463,-93.168141,2025-03-21T00:21:06Z,-0.406312,-0.172528,0.03973,0.443208557033819
55,44.941461,-93.167997,2025-03-21T00:21:07Z,-0.502894,-0.146991,0.114053,0.5362059456272374
56,44.941463,-93.167867,2025-03-21T00:21:08Z,-0.704217,-0.184455,0.165263,0.746496543383156
57,44.94146,-93.167751,2025-03-21T00:21:09Z,-0.977426,-0.263776,0.220774,1.0361855638484836
58,44.941458,-93.16765,2025-03-21T00:21:10Z,-1.154405,-0.304053,0.261214,1.2220195925720667
59,44.941455,-93.167573,2025-03-21T00:21:11Z,-1.177597,-0.287648,0.26673,1.2412175309803677
60,44.941458,-93.167519,2025-03-21T00:21:12Z,-0.795928,-0.220277,0.187288,0.846817650298457
61,44.941458,-93.167474,2025-03-21T00:21:13Z,-0.796691,-0.200075,0.195029,0.8442646895061999
62,44.941459,-93.167451,2025-03-21T00:21:14Z,-0.316216,-0.09731,0.070684,0.33831645335691257
63,44.94146,-93.167439,2025-03-21T00:21:15Z,0.054543,0.008621,-0.025706,0.06091025304495131
64,44.941461,-93.167428,2025-03-21T00:21:16Z,0.309847,0.071757,-0.084283,0.3290256138160067
65,44.941462,-93.167423,2025-03-21T00:21:17Z,0.50558,0.122617,-0.139688,0.5386639048915381
66,44.941461,-93.167419,2025-03-21T00:21:18Z,0.521622,0.119019,-0.138644,0.5526999113271143
67,44.941461,-93.167414,2025-03-21T00:21:19Z,0.594025,0.139264,-0.159799,0.6307106172580259
68,44.941461,-93.167407,2025-03-21T00:21:20Z,0.534599,0.123115,-0.149692,0.5686484756771973
69,44.94146,-93.167403,2025-03-21T00:21:21Z,0.505594,0.115249,-0.129684,0.534533034239232
70,44.94146,-93.167397,2025-03-21T00:21:22Z,0.509176,0.114009,-0.138614,0.5398815537254444
71,44.941461,-93.167393,2025-03-21T00:21:23Z,0.489113,0.110808,-0.131585,0.5184829330440878
72,44.941464,-93.16739,2025-03-21T00:21:24Z,0.416274,0.09166,-0.115469,0.4416092035238849
73,44.941465,-93.167391,2025-03-21T00:21:25Z,0.299044,0.060178,-0.080735,0.31554214590922713
1,44.941667,-93.167214,2025-03-21T00:31:07Z,1.201634,0.175402,0.466163,1.3007682630388089
2,44.94167,-93.167292,2025-03-21T00:31:08Z,0.699766,0.115334,-0.488138,0.8609605643442677
3,44.94167,-93.167383,2025-03-21T00:31:09Z,0.547633,0.195722,-0.374769,0.6918531689123062
4,44.941672,-93.167481,2025-03-21T00:31:10Z,0.338405,0.178555,-0.365842,0.5293771821810986
5,44.941672,-93.167596,2025-03-21T00:31:11Z,0.056292,-0.026038,-0.491849,0.4957440927625865
6,44.941673,-93.16772,2025-03-21T00:31:12Z,-0.122139,-0.142764,-0.438193,0.4767731119369044
7,44.941673,-93.167851,2025-03-21T00:31:13Z,-0.426094,0.04602,-0.162962,0.45850905190628455
8,44.94167,-93.167983,2025-03-21T00:31:14Z,-0.400439,-0.17943,-0.095612,0.4490970631890171
9,44.941668,-93.168119,2025-03-21T00:31:15Z,-0.730126,-0.082141,-0.072313,0.7382819852373482
10,44.941668,-93.168252,2025-03-21T00:31:16Z,-0.687047,-0.333598,-0.083941,0.7683536277613323
11,44.941667,-93.168386,2025-03-21T00:31:17Z,-1.28499,-0.386115,0.086371,1.3445237234671616
12,44.941666,-93.168509,2025-03-21T00:31:18Z,-1.30536,-0.286059,0.135261,1.3431641817745141
13,44.941665,-93.168617,2025-03-21T00:31:19Z,-1.506379,-0.484886,0.24886,1.6019436395319904
14,44.941665,-93.16871,2025-03-21T00:31:20Z,-1.270019,-0.264542,0.29676,1.3307881979206908
15,44.941668,-93.168798,2025-03-21T00:31:21Z,-1.610549,-0.500641,0.216575,1.7004158970401917
16,44.94167,-93.168858,2025-03-21T00:31:22Z,-1.7065109999999999,-0.424565,0.290069,1.7822949411101967
17,44.941672,-93.168897,2025-03-21T00:31:23Z,-1.429303,-0.381683,0.232238,1.497505748550569
18,44.941674,-93.168915,2025-03-21T00:31:24Z,0.251685,0.073693,-0.223564,0.34461117156876964
19,44.941671,-93.168935,2025-03-21T00:31:25Z,0.866374,0.251664,-0.376793,0.9777073394533765
20,44.941672,-93.168968,2025-03-21T00:31:26Z,1.611997,0.513433,-0.510763,1.767208707444313
21,44.941674,-93.169018,2025-03-21T00:31:27Z,1.330256,0.199826,-0.444565,1.416739035615593
22,44.941675,-93.169088,2025-03-21T00:31:28Z,1.073807,0.376918,-0.397148,1.2053444262438018
23,44.941675,-93.169166,2025-03-21T00:31:29Z,1.374871,0.090598,-0.41868,1.4400594455247324
24,44.941675,-93.169267,2025-03-21T00:31:30Z,0.640863,0.347805,-0.283929,0.782489220267602
25,44.941676,-93.169378,2025-03-21T00:31:31Z,0.443867,0.068756,-0.144698,0.4718927976023792
26,44.941676,-93.169494,2025-03-21T00:31:32Z,0.332199,0.109862,-0.178637,0.3928574963189579
27,44.941677,-93.169621,2025-03-21T00:31:33Z,-0.186562,-0.030174,-0.09706,0.21245350954973655
28,44.941677,-93.169749,2025-03-21T00:31:34Z,-0.330337,-0.125497,0.112417,0.37082288557611975
29,44.941678,-93.169877,2025-03-21T00:31:35Z,-0.508189,-0.214471,0.181958,0.5808292204478008
30,44.941695,-93.169998,2025-03-21T00:31:36Z,-0.510337,-0.063346,0.131455,0.5307890224090924
31,44.941696,-93.170117,2025-03-21T00:31:37Z,-0.538048,-0.18117,0.116679,0.5795965909535701
32,44.941697,-93.170234,2025-03-21T00:31:38Z,-1.20088,-0.376057,0.274022,1.2878741002648513
33,44.941698,-93.17034,2025-03-21T00:31:39Z,-1.216928,-0.331376,0.231175,1.2822502451491284
34,44.941697,-93.170426,2025-03-21T00:31:40Z,-0.911682,-0.246184,0.096412,0.9492449129302721
35,44.941697,-93.170501,2025-03-21T00:31:41Z,-0.689103,-0.25006,0.090786,0.7386711352185085
36,44.941697,-93.17057,2025-03-21T00:31:42Z,-1.173284,-0.269111,0.334286,1.249305088748541
37,44.941693,-93.170617,2025-03-21T00:31:43Z,-1.431379,-0.343125,0.362898,1.5160064530436537
38,44.941694,-93.170649,2025-03-21T00:31:44Z,-0.966899,-0.312898,0.26497,1.0502418461978174
39,44.941695,-93.170664,2025-03-21T00:31:45Z,0.288258,0.093488,-0.115848,0.3244278653445169
40,44.941696,-93.170676,2025-03-21T00:31:46Z,0.96204,0.261987,-0.257043,1.0296743434785582
41,44.941697,-93.170699,2025-03-21T00:31:47Z,1.657372,0.492169,-0.40525,1.7757645771455741
42,44.941699,-93.170743,2025-03-21T00:31:48Z,1.273873,0.257628,-0.430458,1.3690941152006315
43,44.9417,-93.1708,2025-03-21T00:31:49Z,1.273166,0.214364,-0.398095,1.3510674361692683
44,44.9417,-93.170867,2025-03-21T00:31:50Z,1.078112,0.353202,-0.386752,1.1986051254904593
45,44.941699,-93.170948,2025-03-21T00:31:51Z,0.913369,0.07857,-0.27516,0.9571463841341092
46,44.941697,-93.171045,2025-03-21T00:31:52Z,0.761662,0.174764,-0.120987,0.7907650169987288
47,44.941695,-93.171149,2025-03-21T00:31:53Z,0.636876,0.24753,0.1742,0.7051438011327902
48,44.941697,-93.171266,2025-03-21T00:31:54Z,0.372342,0.050218,0.012013,0.3759052070096928
49,44.9417,-93.171387,2025-03-21T00:31:55Z,0.31504,0.05279,-0.049256,0.32320757917474646
50,44.941704,-93.171519,2025-03-21T00:31:56Z,0.266607,0.082975,-0.176008,0.33006508318511973
51,44.941705,-93.171658,2025-03-21T00:31:57Z,0.182796,-0.007955,-0.223868,0.2891272056811673
52,44.941706,-93.171805,2025-03-21T00:31:58Z,-0.033796,0.025091,-0.065848,0.07815169224655344
53,44.941706,-93.171955,2025-03-21T00:31:59Z,-0.132683,-0.229391,-0.095639,0.28173006174528126
54,44.941706,-93.17211,2025-03-21T00:32:00Z,-0.204577,0.130308,0.112808,0.267502464768084
55,44.941706,-93.172268,2025-03-21T00:32:01Z,-0.134303,-0.101722,0.087556,0.18987025630414048
56,44.941706,-93.17243,2025-03-21T00:32:02Z,-0.135207,-0.110961,0.041038,0.17965910445618946
57,44.941708,-93.172594,2025-03-21T00:32:03Z,-0.278293,-0.026561,0.119128,0.3038814916279042
58,44.94171,-93.17276,2025-03-21T00:32:04Z,-0.498303,-0.175595,-0.066581,0.5325152705744691
59,44.941707,-93.172924,2025-03-21T00:32:05Z,-0.458893,-0.081405,0.117677,0.48068434112523367
60,44.941707,-93.173087,2025-03-21T00:32:06Z,-1.013654,-0.366408,0.071578,1.0802188038837317
61,44.941706,-93.173239,2025-03-21T00:32:07Z,-1.32991,-0.059732,0.425051,1.3974608661873147
62,44.941703,-93.173379,2025-03-21T00:32:08Z,-0.399068,-0.497578,0.53761,0.834184420142213
63,44.941705,-93.173509,2025-03-21T00:32:09Z,-0.583141,-0.171996,0.593333,0.8495175682621283
64,44.941709,-93.173637,2025-03-21T00:32:10Z,-0.95146,-0.28665,0.144605,1.0041687906547385
65,44.941713,-93.17375,2025-03-21T00:32:11Z,-0.583513,-0.060111,-0.039028,0.5878978978309073
66,44.941716,-93.173858,2025-03-21T00:32:12Z,-1.414094,-0.443041,-0.136934,1.4881861741304412
67,44.941716,-93.173948,2025-03-21T00:32:13Z,-1.47649,-0.428418,0.07394,1.5391659515542826
68,44.941712,-93.174016,2025-03-21T00:32:14Z,-1.263669,-0.313597,0.077554,1.304307112181023
69,44.941707,-93.174063,2025-03-21T00:32:15Z,-1.217387,-0.36532,0.29554,1.3049267036002443
1,44.941312,-93.174031,2025-03-21T00:34:19Z,-0.430344,0.101933,-0.269751,0.5180269267383695
2,44.941312,-93.173907,2025-03-21T00:34:20Z,0.109498,0.070436,-0.342307,0.36623097131318644
3,44.941309,-93.17378,2025-03-21T00:34:21Z,0.096153,0.006566,-0.272805,0.2893286708744918
4,44.941309,-93.173647,2025-03-21T00:34:22Z,0.061318,-0.005317,0.04065,0.07376035597121261
5,44.941311,-93.173517,2025-03-21T00:34:23Z,0.171313,0.025421,0.065707,0.18523439491357968
6,44.941312,-93.173385,2025-03-21T00:34:24Z,-0.035953,-0.115645,0.069041,0.13940245304513116
7,44.941311,-93.173256,2025-03-21T00:34:25Z,0.07421,0.056177,0.066055,0.11413256526513368
8,44.941308,-93.173126,2025-03-21T00:34:26Z,-0.185346,-0.046881,-0.007423,0.19132712511821215
9,44.941307,-93.172994,2025-03-21T00:34:27Z,-0.281489,-0.103176,0.119758,0.3228363713415823
10,44.941307,-93.172873,2025-03-21T00:34:28Z,-0.228546,-0.182916,0.009897,0.2928984257059092
11,44.941306,-93.172751,2025-03-21T00:34:29Z,-0.29593,-0.084917,0.138757,0.3376965602993315
12,44.941305,-93.172632,2025-03-21T00:34:30Z,0.003411,-0.06994,0.127802,0.14572779324823387
13,44.941302,-93.17251,2025-03-21T00:34:31Z,0.018239,0.024181,-0.059535,0.06679669233577364
14,44.941302,-93.172394,2025-03-21T00:34:32Z,0.256005,-0.0432,-0.077412,0.27091957804669636
15,44.941301,-93.172269,2025-03-21T00:34:33Z,0.403204,0.201143,-0.037473,0.45214621284933926
16,44.941301,-93.172143,2025-03-21T00:34:34Z,0.286405,-0.024848,-0.12499,0.31347686873037384
17,44.941299,-93.172012,2025-03-21T00:34:35Z,0.243724,0.024218,-0.074628,0.25604147727272625
18,44.9413,-93.171879,2025-03-21T00:34:36Z,0.129227,0.109004,-0.121686,0.2083001971698539
19,44.941299,-93.171741,2025-03-21T00:34:37Z,-0.048028,-0.134881,0.11486,0.18355487611338467
20,44.941299,-93.171607,2025-03-21T00:34:38Z,-0.260862,-0.041606,-0.030128,0.26587165825638504
21,44.9413,-93.171477,2025-03-21T00:34:39Z,0.02567,-0.025274,0.04995,0.06158511570176677
22,44.941301,-93.171347,2025-03-21T00:34:40Z,-0.081353,0.079549,0.106851,0.15608808478227926
23,44.9413,-93.171218,2025-03-21T00:34:41Z,-0.183837,-0.244301,0.095097,0.3201912874814054
24,44.941301,-93.171095,2025-03-21T00:34:42Z,-0.674822,-0.153262,0.195891,0.7191990379644567
25,44.9413,-93.170979,2025-03-21T00:34:43Z,-0.674116,-0.223828,0.082094,0.7150320131826268
26,44.9413,-93.170877,2025-03-21T00:34:44Z,-1.719774,-0.446074,0.479872,1.8403482716420825
27,44.941301,-93.170807,2025-03-21T00:34:45Z,-1.745285,-0.461312,0.443923,1.8590040673699453
28,44.941302,-93.170759,2025-03-21T00:34:46Z,-1.318771,-0.357044,0.31356,1.4017693255229264
29,44.941303,-93.170736,2025-03-21T00:34:47Z,-0.850269,-0.212984,0.196483,0.8982901123278604
30,44.941303,-93.170718,2025-03-21T00:34:48Z,0.585793,0.165163,-0.1671,0.6311534404706989
31,44.941304,-93.170695,2025-03-21T00:34:49Z,1.503625,0.351165,-0.33153,1.5792774103209353
32,44.941303,-93.170652,2025-03-21T00:34:50Z,1.763322,0.471324,-0.459981,1.882294692395694
33,44.941303,-93.170592,2025-03-21T00:34:51Z,1.525532,0.436749,-0.356908,1.626462693236153
34,44.9413,-93.170521,2025-03-21T00:34:52Z,1.289499,0.220299,-0.36635,1.3585108181026753
35,44.941303,-93.170437,2025-03-21T00:34:53Z,1.148035,0.202856,-0.283923,1.1998946569970215
36,44.941305,-93.170339,2025-03-21T00:34:54Z,0.958722,0.469231,-0.238624,1.09373992247746
37,44.941305,-93.170233,2025-03-21T00:34:55Z,0.63852,-0.005071,-0.076457,0.6431012193193231
38,44.941305,-93.170124,2025-03-21T00:34:56Z,-0.180391,-0.028153,0.103981,0.21010843069948432
39,44.941305,-93.170019,2025-03-21T00:34:57Z,-0.461476,-0.166322,-0.019168,0.49090785131631376
40,44.941309,-93.169924,2025-03-21T00:34:58Z,-1.28666,-0.324946,0.138285,1.334243830692501
41,44.941313,-93.169852,2025-03-21T00:34:59Z,-1.80476,-0.511644,0.458851,1.9311868062248665
42,44.941314,-93.169802,2025-03-21T00:35:00Z,-1.781805,-0.476614,0.492298,1.909017360797172
43,44.941315,-93.169775,2025-03-21T00:35:01Z,-1.350189,-0.352289,0.336916,1.4354895563179833
44,44.941316,-93.169762,2025-03-21T00:35:02Z,0.480173,0.10854,-0.106195,0.5036113775065055
45,44.941319,-93.169737,2025-03-21T00:35:03Z,1.152895,0.287452,-0.273097,1.2191708267252788
46,44.941318,-93.169703,2025-03-21T00:35:04Z,1.523079,0.402444,-0.397449,1.6247142890299204
47,44.941319,-93.169652,2025-03-21T00:35:05Z,1.369691,0.267902,-0.24264,1.416580067163519
48,44.941319,-93.169588,2025-03-21T00:35:06Z,0.983832,0.278876,-0.461502,1.1219096771148738
49,44.94128,-93.169516,2025-03-21T00:35:07Z,0.783268,0.103158,-0.179208,0.8101023639343363
50,44.941319,-93.169432,2025-03-21T00:35:08Z,0.604774,0.137499,-0.246882,0.667538978637952
51,44.94132,-93.169347,2025-03-21T00:35:09Z,0.405754,0.210451,0.019429,0.45749690486166134
52,44.94132,-93.169253,2025-03-21T00:35:10Z,0.119699,-0.040601,0.078437,0.14875703267745025
53,44.94132,-93.169158,2025-03-21T00:35:11Z,0.218676,0.063101,0.045714,0.23214370328096345
54,44.941281,-93.169062,2025-03-21T00:35:12Z,0.135324,-0.043648,-0.022631,0.14397880066523683
55,44.94128,-93.16896,2025-03-21T00:35:13Z,-0.00322,0.09726,0.009576,0.09778331031418398
56,44.941284,-93.168855,2025-03-21T00:35:14Z,-0.116515,-0.102234,-0.03088,0.15805413750041472
57,44.941284,-93.168755,2025-03-21T00:35:15Z,-0.148616,-0.053774,-0.118567,0.19757654724435286
58,44.941285,-93.168649,2025-03-21T00:35:16Z,-0.267836,0.099433,0.019131,0.28633728284315335
59,44.941284,-93.16855,2025-03-21T00:35:17Z,-0.241754,-0.143144,0.077627,0.29148096401137413
60,44.941287,-93.168451,2025-03-21T00:35:18Z,-0.132903,-0.03831,0.050521,0.14725228334392645
61,44.941287,-93.168353,2025-03-21T00:35:19Z,-5.88e-4,0.040138,0.074734,0.08483263254196464
62,44.941288,-93.168249,2025-03-21T00:35:20Z,0.055234,-0.084975,-0.020135,0.10332939371737357
63,44.941287,-93.168147,2025-03-21T00:35:21Z,-0.196154,-0.074167,0.036211,0.21281064852586679
64,44.941288,-93.168042,2025-03-21T00:35:22Z,-0.05785,-0.006835,-0.059689,0.08340333594047662
65,44.941285,-93.167935,2025-03-21T00:35:23Z,-0.136375,0.027797,-0.049765,0.14780855543235646
66,44.941286,-93.167831,2025-03-21T00:35:24Z,-0.031723,-0.065595,0.052215,0.08964072165595277
67,44.941287,-93.167725,2025-03-21T00:35:25Z,-0.406445,-0.14369,0.076593,0.43784796650664026
68,44.941286,-93.167624,2025-03-21T00:35:26Z,-0.843492,-0.249674,0.252831,0.9152810360217238
69,44.941286,-93.167538,2025-03-21T00:35:27Z,-0.767474,-0.215833,0.186582,0.818787559314991
70,44.941286,-93.167464,2025-03-21T00:35:28Z,-0.614722,-0.112235,0.285418,0.6869812713844533
71,44.941285,-93.167398,2025-03-21T00:35:29Z,-0.455457,-0.147151,0.283176,0.5561323067634175
72,44.941284,-93.16734,2025-03-21T00:35:30Z,-0.368326,-0.089024,0.107915,0.3939986828366308
73,44.94128,-93.167296,2025-03-21T00:35:31Z,-1.188208,-0.34913,0.290056,1.271952236249459
1,44.934438,-93.17106,2025-03-21T00:12:58Z,0.981759,0.061769,0.878642,1.3189685013699153
2,44.934509,-93.171044,2025-03-21T00:12:59Z,0.953058,0.188676,0.24588,1.002185191838315
3,44.934581,-93.171044,2025-03-21T00:13:00Z,0.57173,0.286463,0.380857,0.7443039014528944
4,44.934657,-93.171044,2025-03-21T00:13:01Z,0.529404,0.098167,-0.163039,0.5625718359694164
5,44.934751,-93.171044,2025-03-21T00:13:02Z,0.138578,-0.052869,0.032856,0.15191612811350874
6,44.934838,-93.171044,2025-03-21T00:13:03Z,-0.07433,0.068901,0.045393,0.11105323565749896
7,44.934939,-93.171045,2025-03-21T00:13:04Z,-0.428255,-0.047875,-0.027504,0.4317995260140983
8,44.935032,-93.171045,2025-03-21T00:13:05Z,-0.497104,-0.127888,0.268641,0.5793407583115485
9,44.935129,-93.171045,2025-03-21T00:13:06Z,-0.806787,-0.296624,0.146523,0.8719862672508094
10,44.935219,-93.171045,2025-03-21T00:13:07Z,-0.960387,-0.273067,0.157803,1.010846458700331
11,44.935304,-93.171045,2025-03-21T00:13:08Z,-0.684158,-0.213531,-0.075223,0.7206428773352305
12,44.935386,-93.171046,2025-03-21T00:13:09Z,-0.649052,-0.380114,-0.178423,0.7730394030248393
13,44.935471,-93.171046,2025-03-21T00:13:10Z,-0.666444,-0.146026,-0.074282,0.6862863930867347
14,44.93555,-93.171046,2025-03-21T00:13:11Z,-0.541914,-0.107935,0.308102,0.6326512388551847
15,44.935631,-93.171045,2025-03-21T00:13:12Z,-0.568148,-0.105063,0.049144,0.5798668093700483
16,44.935701,-93.171045,2025-03-21T00:13:13Z,-0.485056,-0.190244,0.106739,0.5318508407373255
17,44.935785,-93.171044,2025-03-21T00:13:14Z,-0.341293,-0.095748,0.063231,0.36006492569257564
18,44.935847,-93.171044,2025-03-21T00:13:15Z,-0.378408,-0.070698,0.074274,0.392055415399405
19,44.935914,-93.171044,2025-03-21T00:13:16Z,-0.181927,-0.050463,0.013865,0.18930447940553335
20,44.935992,-93.171043,2025-03-21T00:13:17Z,-0.104172,-0.106402,-0.116675,0.1891725318670763
21,44.936054,-93.171044,2025-03-21T00:13:18Z,-0.147004,0.057855,0.007433,0.1581538065618403
22,44.936119,-93.171047,2025-03-21T00:13:19Z,-0.303723,-0.075747,-0.054496,0.31773429584166707
23,44.936205,-93.17105,2025-03-21T00:13:20Z,-0.204473,-0.154596,-0.115765,0.28126618383659274
24,44.936265,-93.17105,2025-03-21T00:13:21Z,-0.369322,-0.042221,-0.090262,0.3825291899567927
25,44.936329,-93.17105,2025-03-21T00:13:22Z,-0.679769,-0.224271,-0.003796,0.7158196591446758
26,44.936391,-93.17105,2025-03-21T00:13:23Z,-0.890259,-0.216342,-0.774441,1.1996348655011657
27,44.936444,-93.171056,2025-03-21T00:13:24Z,-1.020552,-0.316477,-1.886753,2.1682990935851074
28,44.936508,-93.171094,2025-03-21T00:13:25Z,-1.126723,-0.157424,-2.411926,2.666772218240808
29,44.936544,-93.171162,2025-03-21T00:13:26Z,-0.602905,-0.286997,-1.755231,1.8779503668614355
30,44.936509,-93.171292,2025-03-21T00:13:27Z,0.058581,-0.009923,-0.597208,0.6001563086013509
31,44.936523,-93.171373,2025-03-21T00:13:28Z,0.202372,0.029331,0.275853,0.34337969007208335
32,44.936523,-93.171459,2025-03-21T00:13:29Z,0.197224,0.034113,0.409818,0.4560831021524477
33,44.936527,-93.171534,2025-03-21T00:13:30Z,0.223068,0.073806,0.431159,0.4910241761267973
34,44.93653,-93.171631,2025-03-21T00:13:31Z,0.057572,0.066559,0.463244,0.4715290438573217
35,44.936531,-93.171739,2025-03-21T00:13:32Z,-0.19782,-0.093428,0.564331,0.6052528571968909
36,44.936523,-93.171842,2025-03-21T00:13:33Z,-0.313438,-0.078307,0.410043,0.5220255050684784
37,44.936523,-93.171948,2025-03-21T00:13:34Z,-0.367723,-0.048519,0.430937,0.5685780474649017
38,44.936525,-93.172045,2025-03-21T00:13:35Z,-0.35804,-0.190386,0.452476,0.6075969068156948
39,44.936526,-93.172146,2025-03-21T00:13:36Z,-0.814233,-0.123089,0.556378,0.9938222975431775
40,44.936529,-93.172235,2025-03-21T00:13:37Z,-1.278755,-0.273005,0.599925,1.438629933539199
41,44.936526,-93.172306,2025-03-21T00:13:38Z,-1.54149,-0.436252,0.735292,1.762714257294131
42,44.936527,-93.172362,2025-03-21T00:13:39Z,-1.62241,-0.409536,0.766525,1.8405147429512756
43,44.936528,-93.172392,2025-03-21T00:13:40Z,-1.460737,-0.313722,0.611174,1.6142204727759464
44,44.936529,-93.172409,2025-03-21T00:13:41Z,-0.273062,-0.094042,0.324886,0.43469261162803313
45,44.93653,-93.172411,2025-03-21T00:13:42Z,0.719112,0.168181,0.174069,0.7587535397386954
46,44.93653,-93.17244,2025-03-21T00:13:43Z,1.23271,0.351082,0.538365,1.390204800757428
47,44.93653,-93.172495,2025-03-21T00:13:44Z,0.807425,0.202994,1.194863,1.4563101604500328
48,44.93653,-93.172519,2025-03-21T00:13:45Z,0.374114,0.093679,1.752251,1.7941907944914888
49,44.936571,-93.172583,2025-03-21T00:13:46Z,-0.001092,0.00992,2.126418,2.1264414192702326
50,44.936604,-93.172597,2025-03-21T00:13:47Z,0.79371,0.262816,1.913471,2.088161651260984
51,44.936626,-93.172607,2025-03-21T00:13:48Z,0.713553,0.148683,0.333004,0.8013464808146349
52,44.936674,-93.172375,2025-03-21T00:13:49Z,0.306942,0.107955,-0.365376,0.4892517703238282
53,44.936734,-93.172313,2025-03-21T00:13:50Z,0.228612,-0.056661,-0.385005,0.4513344275479104
54,44.936779,-93.172237,2025-03-21T00:13:51Z,-0.460044,-0.153419,-0.325449,0.5840333236194661
55,44.936826,-93.172168,2025-03-21T00:13:52Z,-0.602233,-0.039023,-0.399404,0.7236925701110936
56,44.936856,-93.172092,2025-03-21T00:13:53Z,-0.342191,-0.172015,-0.282538,0.47593230836958317
57,44.936906,-93.172025,2025-03-21T00:13:54Z,-0.296102,-0.12859400000000001,-0.300433,0.4409907014087712
58,44.93696,-93.171958,2025-03-21T00:13:55Z,-0.465799,0.030251,-0.472886,0.664458426387987
59,44.937013,-93.171899,2025-03-21T00:13:56Z,-0.399145,-0.209664,-0.280901,0.5312072060147528
60,44.93707,-93.171839,2025-03-21T00:13:57Z,-0.355119,-0.005971,-0.389957,0.527457693896866
61,44.937128,-93.171783,2025-03-21T00:13:58Z,-0.472265,-0.159046,-0.327489,0.5963043731702795
62,44.9372,-93.171745,2025-03-21T00:13:59Z,-0.317233,-0.179157,-0.225092,0.42825274710385686
63,44.937252,-93.171694,2025-03-21T00:14:00Z,-0.40823,-0.166222,-0.175994,0.47461076075032266
64,44.937321,-93.171648,2025-03-21T00:14:01Z,-0.532849,-0.168417,-0.394955,0.6843111826610756
65,44.93738,-93.171606,2025-03-21T00:14:02Z,-0.399863,-0.019502,-0.351878,0.532999881479349
66,44.937439,-93.171549,2025-03-21T00:14:03Z,-0.006952,0.021141,-0.395145,0.39577120058185133
67,44.937515,-93.171533,2025-03-21T00:14:04Z,-0.157976,-0.064331,-0.469397,0.49942811068861553
68,44.937576,-93.171507,2025-03-21T00:14:05Z,-0.135447,-0.108387,-0.687082,0.7086432856536496
69,44.937637,-93.171473,2025-03-21T00:14:06Z,-0.357652,-0.061666,-0.178564,0.4044783687120982
70,44.937706,-93.171444,2025-03-21T00:14:07Z,-0.49156,-0.089673,0.15949,0.5245088565782279
71,44.937792,-93.17142,2025-03-21T00:14:08Z,0.009899,-0.188589,-0.003629,0.1888834846221342
72,44.937875,-93.1714,2025-03-21T00:14:09Z,-0.131297,0.049869,-0.171947,0.22201709433960257
73,44.937948,-93.171388,2025-03-21T00:14:10Z,-0.153824,-0.047274,-0.375016,0.40808535174397037
74,44.938026,-93.171386,2025-03-21T00:14:11Z,0.044163,-0.061118,-0.106593,0.13056740842185693
75,44.938126,-93.171388,2025-03-21T00:14:12Z,0.490253,-0.044906,-0.287522,0.5701170523050508
76,44.938195,-93.171394,2025-03-21T00:14:13Z,0.083248,-0.068083,-0.233512,0.2570863250680596
77,44.938278,-93.17143,2025-03-21T00:14:14Z,0.042035,0.014827,-0.241999,0.2460696997905268
78,44.938384,-93.171437,2025-03-21T00:14:15Z,-0.149822,-0.177129,0.035186,0.2346473288170995
79,44.938472,-93.171428,2025-03-21T00:14:16Z,-0.175784,-0.074139,0.305625,0.3602821763590311
80,44.938563,-93.171431,2025-03-21T00:14:17Z,-0.199243,-0.123006,0.157875,0.28240531990385737
81,44.938647,-93.171454,2025-03-21T00:14:18Z,-0.534237,-0.086705,0.269311,0.6045290265280899
82,44.938736,-93.171462,2025-03-21T00:14:19Z,-0.868104,-0.17899,0.537891,1.0368069747050315
83,44.938814,-93.171468,2025-03-21T00:14:20Z,-0.575856,-0.168077,0.835059,1.0281943124458528
84,44.93888,-93.171467,2025-03-21T00:14:21Z,-0.115798,-0.104773,0.250474,0.29516738134319653
85,44.938969,-93.171452,2025-03-21T00:14:22Z,0.195645,0.199187,0.009866,0.27937388022146953
86,44.939044,-93.171464,2025-03-21T00:14:23Z,0.583474,0.030062,0.075587,0.5891171590515761
87,44.939122,-93.171467,2025-03-21T00:14:24Z,0.30269,0.205783,0.137468,0.39097996139572166
88,44.939205,-93.171467,2025-03-21T00:14:25Z,0.194788,-0.106099,-0.181423,0.2865548249009254
89,44.939294,-93.171466,2025-03-21T00:14:26Z,0.017842,0.115408,0.046366,0.1256469234959615
90,44.939381,-93.17147,2025-03-21T00:14:27Z,-0.30675,-0.091153,0.064309,0.32640477844235066
91,44.939469,-93.171471,2025-03-21T00:14:28Z,-0.109327,-0.116852,0.044248,0.16602610739579482
92,44.939547,-93.171475,2025-03-21T00:14:29Z,-0.185952,-0.053908,0.119742,0.22764526204601757
93,44.939632,-93.171475,2025-03-21T00:14:31Z,-0.385426,-0.108765,0.170923,0.43542817849790105
94,44.939714,-93.171477,2025-03-21T00:14:32Z,-0.810938,-0.268972,0.301478,0.9060106848773916
95,44.939782,-93.171478,2025-03-21T00:14:33Z,-1.109831,-0.196241,0.309926,1.168883871100119
96,44.939842,-93.171477,2025-03-21T00:14:34Z,-0.761696,-0.176268,0.119922,0.7909693358936236
97,44.93989,-93.171479,2025-03-21T00:14:35Z,-0.688883,-0.235861,0.133031,0.740194194769859
98,44.93994,-93.171478,2025-03-21T00:14:36Z,-1.023511,-0.302344,0.229141,1.0915549731177079
99,44.939965,-93.171478,2025-03-21T00:14:37Z,-1.106682,-0.274854,0.299666,1.1790205604636417
100,44.939982,-93.171481,2025-03-21T00:14:38Z,-0.929812,-0.158466,0.30684,0.9918732853041259
101,44.939998,-93.171484,2025-03-21T00:14:39Z,-0.515616,-0.159472,0.137455,0.5569425960231449
102,44.939993,-93.171486,2025-03-21T00:14:40Z,0.023207,0.016377,0.006144,0.029060621362937165
103,44.939991,-93.171488,2025-03-21T00:14:41Z,0.345617,0.096763,-0.072187,0.366094457520187
104,44.93999,-93.171491,2025-03-21T00:14:42Z,0.363664,0.096577,-0.080145,0.3847100763562088
105,44.939988,-93.171492,2025-03-21T00:14:43Z,0.850411,0.210594,-0.234016,0.9068143084518462
106,44.939995,-93.171494,2025-03-21T00:14:44Z,2.253758,0.591588,-0.638665,2.416049351013551
107,44.940024,-93.171496,2025-03-21T00:14:45Z,1.783173,0.50443,-0.562747,1.9367084857659915
108,44.940067,-93.171476,2025-03-21T00:14:46Z,1.264409,0.116542,-0.335252,1.313280648052426
109,44.940118,-93.171475,2025-03-21T00:14:47Z,0.879095,0.026917,-0.164285,0.8947190090408272
110,44.940179,-93.171473,2025-03-21T00:14:48Z,0.711147,0.350109,-0.047474,0.7940781750973892
111,44.940241,-93.171472,2025-03-21T00:14:49Z,0.577751,0.188014,0.433712,0.7464928540455025
112,44.94031,-93.171467,2025-03-21T00:14:50Z,0.764094,0.138431,1.021877,1.2834466820737043
113,44.940379,-93.171445,2025-03-21T00:14:51Z,0.630571,0.038777,1.035236,1.2127806963610528
114,44.940454,-93.171411,2025-03-21T00:14:52Z,0.542514,0.123306,1.136491,1.265360661200197
115,44.940528,-93.17136,2025-03-21T00:14:53Z,0.020348,-0.005991,1.350021,1.350187629044941
116,44.940598,-93.171302,2025-03-21T00:14:54Z,-0.380996,-0.112764,1.146777,1.2136602322894987
117,44.940668,-93.171227,2025-03-21T00:14:55Z,-0.413726,-0.078384,1.043951,1.1256762167395207
118,44.940709,-93.171152,2025-03-21T00:14:56Z,-0.445431,-0.041137,0.710789,0.8398345259936626
119,44.940752,-93.171059,2025-03-21T00:14:57Z,-0.315869,-0.238153,0.24793,0.46686118008461575
120,44.940798,-93.17097,2025-03-21T00:14:58Z,-0.503451,-0.131664,-0.375701,0.6418329686904529
121,44.940848,-93.170881,2025-03-21T00:14:59Z,-0.513001,-0.122229,-0.582431,0.7857072127726715
122,44.940901,-93.1708,2025-03-21T00:15:00Z,-0.627827,-0.201053,-0.430429,0.7873107231449348
123,44.940955,-93.170725,2025-03-21T00:15:01Z,-0.829883,-0.108342,0.031088,0.8375023859052583
124,44.941011,-93.170664,2025-03-21T00:15:02Z,-1.177317,-0.346596,-0.078399,1.2297766093506577
125,44.941062,-93.170626,2025-03-21T00:15:03Z,-1.265485,-0.374793,-0.324817,1.359201295453694
126,44.941098,-93.170584,2025-03-21T00:15:04Z,-0.496694,-0.167203,-0.561004,0.7677156119690415
127,44.941136,-93.170542,2025-03-21T00:15:05Z,-0.915216,-0.229451,-0.374024,1.0149689850596422
128,44.941172,-93.17052,2025-03-21T00:15:06Z,-1.097066,-0.335865,-0.183385,1.1618903411277677
129,44.941192,-93.170503,2025-03-21T00:15:07Z,-0.971282,-0.21131,0.12364,1.0016623628868162
130,44.941209,-93.170489,2025-03-21T00:15:08Z,0.293868,0.04522,-0.10142,0.3141484779909016
131,44.941231,-93.170488,2025-03-21T00:15:09Z,0.800982,0.212099,-0.202353,0.8529389701109922
132,44.941259,-93.170479,2025-03-21T00:15:09Z,0.703373,0.161925,-0.270143,0.7706688803909237
133,44.94129,-93.170472,2025-03-21T00:15:10Z,0.258789,0.04464,-0.058574,0.2690639135911763
134,44.941319,-93.170467,2025-03-21T00:15:11Z,-0.443904,-0.09099,0.303853,0.5455791298473577
135,44.941347,-93.170465,2025-03-21T00:15:12Z,-0.713494,-0.20557,0.34349,0.8181186301729108
136,44.941355,-93.170433,2025-03-21T00:15:13Z,-0.409938,-0.08143,0.288895,0.5080751221709247
1,44.938995,-93.177036,2025-03-21T00:37:42Z,-0.109942,-0.042975,-0.697951,0.7078627638108957
2,44.938996,-93.176949,2025-03-21T00:37:43Z,0.672136,0.157561,-0.062312,0.693163080783303
3,44.938996,-93.176853,2025-03-21T00:37:44Z,0.354634,0.101927,-0.078287,0.3772045090584152
4,44.938997,-93.176743,2025-03-21T00:37:45Z,0.200803,0.061965,0.155706,0.26154514805287443
5,44.939,-93.176628,2025-03-21T00:37:46Z,0.036767,0.025379,0.273912,0.277531421057148
6,44.939003,-93.176503,2025-03-21T00:37:47Z,-0.124723,-0.02374,0.512129,0.5276319995697759
7,44.939005,-93.176378,2025-03-21T00:37:48Z,-0.708577,-0.221173,0.596668,0.9523715467620817
8,44.939011,-93.176273,2025-03-21T00:37:49Z,-0.72455,-0.199866,0.589735,0.9553567347755497
9,44.939013,-93.17616,2025-03-21T00:37:50Z,-0.319263,-0.075296,0.336416,0.4698660190320215
10,44.939014,-93.176042,2025-03-21T00:37:51Z,0.178947,0.027321,0.334199,0.38007556807955967
11,44.939014,-93.17592,2025-03-21T00:37:52Z,0.036085,-0.001179,0.173929,0.17763674818854344
12,44.939014,-93.175792,2025-03-21T00:37:53Z,-0.080325,0.013194000000000001,0.269197,0.28123515439930336
13,44.939015,-93.175661,2025-03-21T00:37:54Z,-0.259158,-0.004355,0.368102,0.45020097444696855
14,44.939012,-93.175529,2025-03-21T00:37:55Z,-0.291956,-0.142806,0.407755,0.5214364770487389
15,44.93901,-93.175398,2025-03-21T00:37:56Z,-0.347257,-0.190334,0.211426,0.4489046770540489
16,44.939005,-93.17527,2025-03-21T00:37:57Z,-0.522744,-0.110181,0.258606,0.5935302903247651
17,44.939004,-93.175146,2025-03-21T00:37:58Z,-0.594873,-0.280142,0.174022,0.6801743032318995
18,44.939004,-93.175026,2025-03-21T00:37:59Z,-0.44831,0.034985,0.159766,0.4772116732446934
19,44.939004,-93.17491,2025-03-21T00:38:00Z,-0.370976,-0.190154,0.171941,0.45093840352425074
20,44.939006,-93.1748,2025-03-21T00:38:01Z,-0.462857,-0.13768,0.31713,0.5777229628022414
21,44.939006,-93.174694,2025-03-21T00:38:02Z,-1.060191,-0.287855,0.308597,1.1410948978568787
22,44.939003,-93.174597,2025-03-21T00:38:03Z,-1.60923,-0.459447,0.459797,1.7355477578902863
23,44.939004,-93.174525,2025-03-21T00:38:04Z,-1.454637,-0.383207,0.442169,1.5679061933607508
24,44.939004,-93.17447,2025-03-21T00:38:05Z,-1.428756,-0.377701,0.420112,1.536390525055723
25,44.939006,-93.174439,2025-03-21T00:38:06Z,-1.035273,-0.305767,0.295834,1.119286111043106
26,44.939005,-93.174425,2025-03-21T00:38:07Z,-0.163696,-0.034838,0.09858,0.19423718248574345
27,44.939005,-93.174418,2025-03-21T00:38:08Z,0.964145,0.252898,-0.221833,1.021147814627246
28,44.939003,-93.174402,2025-03-21T00:38:09Z,1.910674,0.473416,-0.497726,2.0304011954310903
29,44.939004,-93.174367,2025-03-21T00:38:10Z,1.9307,0.484125,-0.564638,2.069008355872204
30,44.939008,-93.174312,2025-03-21T00:38:11Z,1.490578,0.27166,-0.429493,1.574828932529816
31,44.939011,-93.174237,2025-03-21T00:38:12Z,1.202299,0.319772,-0.101792,1.2482542323777637
32,44.939013,-93.174153,2025-03-21T00:38:13Z,0.951222,0.213167,-0.123565,0.9826147629656294
33,44.939013,-93.174059,2025-03-21T00:38:14Z,0.745335,0.306308,-0.062643,0.8082530535284107
34,44.939013,-93.173954,2025-03-21T00:38:15Z,0.556033,0.03494,0.02628,0.5577491721992961
35,44.939012,-93.173844,2025-03-21T00:38:16Z,0.267165,0.045909,-0.019886,0.271809172954115
36,44.93901,-93.17373,2025-03-21T00:38:17Z,0.23334,0.025077,-0.050139,0.23997985509204725
37,44.93901,-93.173613,2025-03-21T00:38:18Z,0.180491,0.041416,-0.063505,0.19576815665986133
38,44.939009,-93.173491,2025-03-21T00:38:19Z,-0.104891,0.067393,-0.052771,0.1353835912176952
39,44.939009,-93.173366,2025-03-21T00:38:20Z,0.037551,-0.072402,0.003951,0.08165621596669784
40,44.93901,-93.173239,2025-03-21T00:38:21Z,-0.325434,-0.006047,-0.058912,0.3307785940912743
41,44.939012,-93.173112,2025-03-21T00:38:22Z,-0.59278,-0.207085,0.212729,0.6629675354540371
42,44.939012,-93.172994,2025-03-21T00:38:23Z,-0.363966,-0.035815,4.27e-4,0.3657241388123021
43,44.939012,-93.172871,2025-03-21T00:38:24Z,-0.110086,-0.001654,0.115906,0.1598620153382285
44,44.939014,-93.172754,2025-03-21T00:38:25Z,-0.359839,-0.119284,0.16318,0.4127232619770783
45,44.939015,-93.172638,2025-03-21T00:38:26Z,-0.468011,-0.178084,0.219684,0.5468173982537498
46,44.939014,-93.17253,2025-03-21T00:38:27Z,-0.411196,-0.217054,0.136479,0.4845834363378509
47,44.939012,-93.172422,2025-03-21T00:38:28Z,-0.295717,-0.050422,0.094403,0.3144882328196081
48,44.939011,-93.172318,2025-03-21T00:38:29Z,-0.473769,-0.182598,0.027939,0.5085073083899582
49,44.939011,-93.172216,2025-03-21T00:38:30Z,-0.309313,-0.092559,0.178002,0.3686819936666286
50,44.939011,-93.172123,2025-03-21T00:38:31Z,-0.239287,-0.067711,0.123077,0.27747251362792674
51,44.939008,-93.172034,2025-03-21T00:38:32Z,-0.275814,-0.097368,0.13422,0.3218212212082976
52,44.939005,-93.171947,2025-03-21T00:38:33Z,-0.390911,-0.085817,0.02593,0.4010590135005072
53,44.939003,-93.171865,2025-03-21T00:38:34Z,-0.509876,-0.192931,0.030967,0.5460355860436205
54,44.939002,-93.171792,2025-03-21T00:38:35Z,-1.165414,-0.297817,0.20791,1.2207011612122765
55,44.939002,-93.171739,2025-03-21T00:38:36Z,-1.102609,-0.296242,0.274335,1.1742085086005807
56,44.939003,-93.171702,2025-03-21T00:38:37Z,-0.899863,-0.247028,0.201622,0.9546872170700726
57,44.939004,-93.171681,2025-03-21T00:38:38Z,-0.389903,-0.107914,0.113269,0.42011861083032254
58,44.939003,-93.171672,2025-03-21T00:38:39Z,0.654974,0.194717,-0.206503,0.7138271077606958
59,44.939003,-93.171654,2025-03-21T00:38:40Z,1.662645,0.382164,-0.496763,1.776854298216373
60,44.939002,-93.171619,2025-03-21T00:38:41Z,1.683585,0.421787,-0.534299,1.8159950845184025
61,44.939008,-93.171569,2025-03-21T00:38:42Z,1.47798,0.339719,-0.321577,1.550240512401221
62,44.939013,-93.171499,2025-03-21T00:38:43Z,1.29242,0.129437,-0.210001,1.3157521853943468
63,44.939018,-93.171418,2025-03-21T00:38:44Z,1.072858,0.425202,-0.16025,1.1651184881667618
64,44.939024,-93.171326,2025-03-21T00:38:45Z,0.775278,0.323559,-0.055496,0.8419181728535143
65,44.939029,-93.171227,2025-03-21T00:38:46Z,0.211034,-0.020367,0.223776,0.3082626510315513
66,44.939031,-93.171125,2025-03-21T00:38:47Z,0.002551,0.013118,0.115309,0.11608081239378022
67,44.939033,-93.171025,2025-03-21T00:38:48Z,-0.030863,-0.0985,0.161277,0.1914811883658549
68,44.939033,-93.170919,2025-03-21T00:38:49Z,-0.328558,-0.088592,0.040917,0.3427434940549565
69,44.939035,-93.170819,2025-03-21T00:38:50Z,-0.173581,-0.075992,-0.012761,0.18991574644036235
70,44.93902,-93.170718,2025-03-21T00:38:51Z,-0.258545,0.033141,0.110801,0.2832325978890848
71,44.939019,-93.170614,2025-03-21T00:38:52Z,-0.32877,-0.088065,0.127613,0.3634972281792531
72,44.939019,-93.170515,2025-03-21T00:38:53Z,-0.428385,-0.213415,0.140052,0.498672470820277
73,44.939019,-93.170417,2025-03-21T00:38:54Z,-0.41437,-0.264999,-0.017938,0.49218770682027396
74,44.939019,-93.170327,2025-03-21T00:38:55Z,-0.472823,-0.050177,0.144215,0.4968674741648924
75,44.939019,-93.170238,2025-03-21T00:38:56Z,-0.380799,-0.08396,0.046217,0.3926743830325579
76,44.939018,-93.170157,2025-03-21T00:38:57Z,-0.200747,-0.190278,0.005977,0.2766600799211914
77,44.939019,-93.170078,2025-03-21T00:38:58Z,-0.372955,0.034337,-0.02385,0.3752909326029607
78,44.939021,-93.170004,2025-03-21T00:38:59Z,-0.172302,-0.090032,0.011136,0.19472480767483122
79,44.939021,-93.169932,2025-03-21T00:39:00Z,-0.397365,-0.153035,0.272869,0.5057431617046345
80,44.93902,-93.169865,2025-03-21T00:39:01Z,-0.626751,-0.143864,0.420583,0.7683773333369484
81,44.939019,-93.169813,2025-03-21T00:39:02Z,-0.80024,-0.249637,0.185615,0.8585776712645163
82,44.939016,-93.169775,2025-03-21T00:39:03Z,-0.936228,-0.263101,0.1687,0.9870180819949551
1,44.941389,-93.169618,2025-03-21T00:10:09Z,-0.469537,-0.288382,-1.018234,1.1577692563930864
2,44.941318,-93.169585,2025-03-21T00:10:10Z,-0.007706,-0.095912,-0.364728,0.37720685063238185
3,44.941259,-93.169589,2025-03-21T00:10:11Z,0.365256,0.287299,-0.0556,0.46802138940116833
4,44.941187,-93.16958,2025-03-21T00:10:12Z,0.515356,0.17333200000000001,-0.042534,0.5453851209154867
5,44.941116,-93.169576,2025-03-21T00:10:13Z,0.130363,0.049559,0.127487,0.18895380763297678
6,44.941042,-93.169575,2025-03-21T00:10:13Z,-0.162289,-0.008928,0.292031,0.33421480168598156
7,44.940966,-93.169573,2025-03-21T00:10:14Z,-0.129245,-0.068958,0.246835,0.2870313450025972
8,44.940888,-93.169573,2025-03-21T00:10:15Z,-0.190296,-0.025128,0.277802,0.3376654190230323
9,44.940813,-93.169579,2025-03-21T00:10:16Z,-0.235153,-0.010636,0.245517,0.34013035029823496
10,44.940741,-93.169585,2025-03-21T00:10:17Z,-0.225245,-0.133766,0.378257,0.4601163014173699
11,44.940657,-93.169589,2025-03-21T00:10:18Z,-0.37566,-0.060233,0.336555,0.5079544447231463
12,44.940571,-93.169586,2025-03-21T00:10:19Z,-0.601451,-0.189867,0.439539,0.7687569938615192
13,44.940494,-93.169586,2025-03-21T00:10:20Z,-0.812283,-0.17138,0.45041,0.9444807804232969
14,44.940417,-93.169589,2025-03-21T00:10:21Z,-1.135984,-0.331591,0.537543,1.2997556371818513
15,44.940349,-93.169585,2025-03-21T00:10:22Z,-1.066351,-0.262623,0.541308,1.2243731646005642
16,44.940296,-93.169582,2025-03-21T00:10:23Z,-1.06573,-0.32522,0.529174,1.2335208160286555
17,44.940253,-93.169596,2025-03-21T00:10:24Z,-1.446409,-0.393621,0.532451,1.5907672847789522
18,44.940232,-93.169593,2025-03-21T00:10:25Z,-1.215058,-0.319432,0.496748,1.3509853150541644
19,44.940207,-93.169594,2025-03-21T00:10:26Z,-0.563595,-0.149435,0.285524,0.6492257679929224
20,44.940186,-93.169594,2025-03-21T00:10:27Z,-0.140546,-0.046492,0.178411,0.23183004356855907
21,44.940198,-93.169583,2025-03-21T00:10:28Z,0.031991,0.004688,0.11391,0.11840983711246292
22,44.940213,-93.16958,2025-03-21T00:10:29Z,0.498307,0.132329,-0.030192,0.5164614093560137
23,44.940213,-93.169588,2025-03-21T00:10:30Z,0.94941,0.246145,-0.162179,0.9941170641156906
24,44.94021,-93.169581,2025-03-21T00:10:31Z,2.30017,0.553469,-0.570914,2.4337322692229315
25,44.940203,-93.169597,2025-03-21T00:10:32Z,1.411454,0.496015,-0.322655,1.5304703601723229
26,44.940138,-93.169598,2025-03-21T00:10:33Z,1.134692,0.155012,-0.285204,1.1802101408749206
27,44.940124,-93.169598,2025-03-21T00:10:34Z,0.901263,0.001089,-0.230835,0.9303552968167591
28,44.940067,-93.169599,2025-03-21T00:10:35Z,0.726814,0.093228,-0.14832,0.7476288337002526
29,44.939984,-93.1696,2025-03-21T00:10:36Z,0.45722,0.458498,-0.036966,0.6485653625965544
30,44.939911,-93.169602,2025-03-21T00:10:37Z,0.418728,-0.030714,-0.031445,0.42102883013518205
31,44.939833,-93.169603,2025-03-21T00:10:38Z,0.183222,0.048009,0.140541,0.23585363691493078
32,44.939757,-93.169603,2025-03-21T00:10:39Z,-0.090794,-3.52e-4,0.151027,0.17621812922908925
33,44.939664,-93.169603,2025-03-21T00:10:40Z,-0.032251,-0.00247,0.061166,0.06919181640194164
34,44.939581,-93.169603,2025-03-21T00:10:41Z,-0.230568,-0.074415,0.077471,0.2543638156067014
35,44.939504,-93.169603,2025-03-21T00:10:42Z,-0.246141,-0.112293,0.058634,0.2768267611449442
36,44.939397,-93.169601,2025-03-21T00:10:43Z,-0.329197,-0.117329,0.128643,0.37240539805298206
37,44.93931,-93.1696,2025-03-21T00:10:44Z,-0.371689,-0.035675,0.118312,0.3916926699467326
38,44.939224,-93.169599,2025-03-21T00:10:45Z,-0.265065,-0.080658,-0.027312,0.27840817612455276
39,44.939134,-93.169598,2025-03-21T00:10:46Z,-0.344131,-0.143908,0.116312,0.39072258569092216
40,44.939056,-93.169597,2025-03-21T00:10:47Z,-0.534694,-0.12026,0.15083,0.5684275064913731
41,44.938978,-93.169597,2025-03-21T00:10:48Z,-0.4783,-0.219132,0.094733,0.5345690457864166
42,44.938897,-93.169598,2025-03-21T00:10:49Z,-0.509471,-0.147513,0.077518,0.5360315525545114
43,44.938822,-93.169598,2025-03-21T00:10:50Z,-0.763285,-0.195954,0.249563,0.8266097339797058
44,44.938756,-93.169598,2025-03-21T00:10:51Z,-1.071961,-0.282462,0.249337,1.1362456189284074
45,44.938693,-93.169599,2025-03-21T00:10:52Z,-0.580574,-0.175948,0.155245,0.6261987529570784
46,44.938639,-93.169599,2025-03-21T00:10:53Z,0.178772,0.032245,-0.043867,0.1868782536786985
47,44.938585,-93.169599,2025-03-21T00:10:54Z,0.634858,0.174713,-0.097236,0.6656005951236823
48,44.93852,-93.1696,2025-03-21T00:10:55Z,-0.092584,-0.05234,0.244572,0.26669596142424057
49,44.93845,-93.1696,2025-03-21T00:10:56Z,-0.02322,-0.031203,1.100258,1.100945258481547
50,44.938387,-93.1696,2025-03-21T00:10:57Z,-0.04971,0.085441,2.464621,2.466602505922266
51,44.938333,-93.169606,2025-03-21T00:10:58Z,-0.340246,0.196083,1.92881,1.9683810351415703
52,44.938305,-93.169625,2025-03-21T00:10:59Z,0.143949,-0.153715,1.713398,1.7262914939922516
53,44.938315,-93.169749,2025-03-21T00:11:00Z,0.279241,-0.02829,1.019911,1.0578252729548485
54,44.938319,-93.169824,2025-03-21T00:11:01Z,-0.059222,-0.158819,0.092979,0.19332825578792148
55,44.938319,-93.169907,2025-03-21T00:11:02Z,-0.202285,0.125488,0.244576,0.3412973471109906
56,44.938318,-93.16999,2025-03-21T00:11:03Z,-0.391107,-0.043275,-0.246243,0.4641907217114534
57,44.938318,-93.170074,2025-03-21T00:11:04Z,-0.382657,-0.140356,-0.354558,0.5402199198002606
58,44.938303,-93.170161,2025-03-21T00:11:05Z,-0.596034,-0.174366,-0.291185,0.6858926558412766
59,44.93831,-93.170247,2025-03-21T00:11:07Z,-0.80415,-0.268483,-0.18003,0.8666897626538576
60,44.938311,-93.17033,2025-03-21T00:11:08Z,-1.074013,-0.303394,-0.201737,1.1341294725797404
61,44.938313,-93.170404,2025-03-21T00:11:09Z,-1.071906,-0.277807,-1.413101,1.795275365587686
62,44.938311,-93.170473,2025-03-21T00:11:10Z,-1.172565,-0.423173,-2.236064,2.56007153791647
63,44.938316,-93.170532,2025-03-21T00:11:11Z,-0.768234,-0.329593,-2.336903,2.4819207593744808
64,44.938309,-93.17057,2025-03-21T00:11:12Z,-0.05773,-0.159418,-1.369774,1.3802273952867332
65,44.938233,-93.170581,2025-03-21T00:11:13Z,0.042473,0.094204,-1.017984,1.0232154091886028
66,44.938148,-93.170601,2025-03-21T00:11:14Z,0.100548,0.078028,-0.549844,0.5643816912551292
67,44.938085,-93.170608,2025-03-21T00:11:15Z,-0.543729,-0.102675,0.079676,0.559045298738841
68,44.938031,-93.170607,2025-03-21T00:11:16Z,-0.902816,-0.150984,0.455582,1.0224616652158651
69,44.937984,-93.17061,2025-03-21T00:11:17Z,-1.289809,-0.356027,0.555855,1.4489089903216834
70,44.937952,-93.170609,2025-03-21T00:11:18Z,-1.202385,-0.309196,0.519815,1.3459344296309534
71,44.937922,-93.170602,2025-03-21T00:11:19Z,-0.791242,-0.191265,0.436399,0.9236288702666239
72,44.93791,-93.170601,2025-03-21T00:11:20Z,0.311276,-0.12025,0.19514599999999999,0.38656793968460446
73,44.937898,-93.170602,2025-03-21T00:11:21Z,0.060332,0.159804,0.203368,0.2655857904030259
74,44.937875,-93.170601,2025-03-21T00:11:22Z,1.183409,0.286401,-0.06933,1.2195446047529381
75,44.937849,-93.170598,2025-03-21T00:11:23Z,1.073814,0.232705,-0.062889,1.1005376640269973
76,44.937813,-93.170597,2025-03-21T00:11:24Z,0.822619,0.201791,-0.016665,0.8471713811661723
77,44.937768,-93.170597,2025-03-21T00:11:25Z,0.70938,0.195806,0.016521,0.7360930087135729
78,44.937716,-93.170596,2025-03-21T00:11:26Z,0.323955,0.212658,-0.150352,0.4156633143458778
79,44.937658,-93.170604,2025-03-21T00:11:27Z,0.268567,0.210263,-0.117701,0.36082168457425057
80,44.937599,-93.170597,2025-03-21T00:11:28Z,-0.033694,0.028215,-0.014095,0.04615236598485499
81,44.937535,-93.170614,2025-03-21T00:11:29Z,-0.217219,-0.112406,-0.021209,0.24549750401582499
82,44.93747,-93.170612,2025-03-21T00:11:30Z,-0.820916,-0.18243,0.304927,0.8945190100187922
83,44.937415,-93.170581,2025-03-21T00:11:31Z,-0.635887,-0.211344,0.421824,0.7918043003678371
84,44.937368,-93.170573,2025-03-21T00:11:32Z,-0.900439,-0.256625,0.500472,1.0616586109150155
85,44.937328,-93.170566,2025-03-21T00:11:33Z,-1.344264,-0.593464,0.474562,1.5441678382986739
86,44.937294,-93.170566,2025-03-21T00:11:34Z,-1.115892,-0.300322,0.443303,1.2377099050896379
87,44.937273,-93.170585,2025-03-21T00:11:35Z,0.276829,-0.150993,0.011365,0.3155350131364188
88,44.93726,-93.170583,2025-03-21T00:11:36Z,0.387744,0.255081,-0.016628,0.464422454755366
89,44.937238,-93.170582,2025-03-21T00:11:37Z,1.55214,0.432587,-0.277458,1.6350085730457196
90,44.937203,-93.17058,2025-03-21T00:11:38Z,1.030746,0.252406,-0.275103,1.0962790547853225
91,44.937155,-93.170579,2025-03-21T00:11:39Z,0.927711,0.200123,-0.17130600000000001,0.964387194173585
92,44.937098,-93.17058,2025-03-21T00:11:40Z,0.527135,0.077467,-0.147957,0.5529590564978568
93,44.937036,-93.17058,2025-03-21T00:11:41Z,-0.154055,-0.008392,0.04436,0.1605340409041023
94,44.936974,-93.170581,2025-03-21T00:11:42Z,-0.303839,-0.095161,0.043897,0.32140426327446253
95,44.936917,-93.170583,2025-03-21T00:11:43Z,-1.006993,-0.285552,0.225777,1.070770797361415
96,44.936866,-93.170584,2025-03-21T00:11:44Z,-1.524083,-0.382167,0.462149,1.6378224277921585
97,44.936828,-93.170583,2025-03-21T00:11:45Z,-1.42476,-0.342428,0.364338,1.509947075571856
98,44.936802,-93.170578,2025-03-21T00:11:46Z,-0.59252,0.089871,0.152358,0.6183604993893126
99,44.936793,-93.170577,2025-03-21T00:11:47Z,0.529999,0.008846,-0.132735,0.5464391749700968
100,44.936777,-93.170573,2025-03-21T00:11:48Z,0.87,-0.018481,-0.486994,0.9971984272936857
101,44.936757,-93.170567,2025-03-21T00:11:49Z,1.283437,0.39388,-0.595003,1.468461970014205
102,44.93672,-93.170555,2025-03-21T00:11:50Z,1.006725,0.226848,-0.833075,1.326261360499506
103,44.93668,-93.170512,2025-03-21T00:11:51Z,0.537058,0.176455,-0.808662,0.9866619951295378
104,44.93663,-93.170485,2025-03-21T00:11:52Z,0.098543,0.040255,-0.743112,0.7506974306723049
105,44.936585,-93.170441,2025-03-21T00:11:53Z,-0.401206,-0.109212,-0.391171,0.5708837592899276
106,44.936534,-93.170415,2025-03-21T00:11:54Z,-0.512465,-0.150173,0.259092,0.5935494677093055
107,44.936498,-93.170351,2025-03-21T00:11:55Z,-0.621093,-0.21613,1.002503,1.198949939137577
108,44.936466,-93.170308,2025-03-21T00:11:56Z,-0.736517,-0.129732,1.372261,1.5628141077025124
109,44.936431,-93.170293,2025-03-21T00:11:57Z,-0.869937,-0.300523,1.042821,1.390891834593546
110,44.936401,-93.170288,2025-03-21T00:11:58Z,-0.872736,-0.22263,0.444838,1.0045462104054745
111,44.936379,-93.170316,2025-03-21T00:11:59Z,-0.41702,0.09567,0.090845,0.43739140746589894
112,44.936365,-93.170316,2025-03-21T00:12:00Z,0.430104,-0.005217,-0.080758,0.4376511424285329
113,44.936351,-93.170316,2025-03-21T00:12:01Z,1.085272,0.148684,-0.220889,1.1174588118409554
114,44.936326,-93.170315,2025-03-21T00:12:02Z,1.247943,0.318777,-0.363195,1.3382417999012735
115,44.93629,-93.170294,2025-03-21T00:12:03Z,1.082132,0.278288,-0.365566,1.1756242498026317
116,44.93624,-93.170299,2025-03-21T00:12:04Z,0.779456,0.184641,-0.306874,0.8577969495708176
117,44.936183,-93.170304,2025-03-21T00:12:05Z,0.393872,0.047258,-0.276129,0.4833380758733994
118,44.936122,-93.170308,2025-03-21T00:12:06Z,-0.05871,-0.014302,-0.096089,0.11350994328692089
119,44.936058,-93.170305,2025-03-21T00:12:07Z,-0.254421,-0.046099,-0.015637,0.2590360569708395
120,44.935991,-93.17031,2025-03-21T00:12:08Z,-0.177759,-0.001022,-0.120596,0.21480852352967747
121,44.935925,-93.170309,2025-03-21T00:12:09Z,-0.116845,-0.134189,-0.066037,0.18979021870212384
122,44.935859,-93.170308,2025-03-21T00:12:10Z,-0.071585,-0.074242,-0.069389,0.12430253460810846
123,44.935793,-93.170311,2025-03-21T00:12:11Z,0.089768,0.034288,-0.133089,0.16415432583090828
124,44.935726,-93.170314,2025-03-21T00:12:12Z,0.047603,0.05622,-0.016765,0.07554997838517229
125,44.935652,-93.170312,2025-03-21T00:12:13Z,0.043655,0.052558,-0.056038,0.08836492422335912
126,44.935578,-93.170313,2025-03-21T00:12:14Z,-0.018678,-0.017943,-0.050263,0.05654368313083257
127,44.9355,-93.170313,2025-03-21T00:12:15Z,8.43e-4,-0.038441,-0.05816,0.06972092031807957
