seconds_elapsed,location_altitude,location_speedAccuracy,location_bearingAccuracy,location_latitude,location_altitudeAboveMeanSeaLevel,location_bearing,location_horizontalAccuracy,location_verticalAccuracy,location_longitude,location_speed,location_local_time,accelerometerUncalibrated_z,accelerometerUncalibrated_y,accelerometerUncalibrated_x,accelerometerUncalibrated_local_time,accelerometer_z,accelerometer_y,accelerometer_x,accelerometer_local_time
0.000000,268.206043,0.270000,12.558009,44.934291,295.616043,8.825521,18.758834,6.283020,-93.167279,0.730000,2025-03-13T21:22:41.631-05:00,-0.264161,-0.965890,0.181173,2025-03-13T21:22:41.596-05:00,-0.137379,0.034175,1.657109,2025-03-13T21:22:41.611-05:00
1.000000,263.322876,0.970000,12.699455,44.934418,290.732876,4.570312,14.000000,4.000000,-93.167086,4.950000,2025-03-13T21:22:42.999-05:00,-0.189509,-0.977435,0.115502,2025-03-13T21:22:42.581-05:00,0.407528,-0.051254,0.854771,2025-03-13T21:22:42.586-05:00
2.000000,262.438477,0.520000,4.107502,44.934491,289.848476,0.150170,4.521960,4.000000,-93.167001,4.950000,2025-03-13T21:22:43.999-05:00,-0.175437,-0.986455,0.036655,2025-03-13T21:22:43.586-05:00,0.427601,-0.110275,0.095824,2025-03-13T21:22:43.581-05:00
3.000000,260.746826,1.960000,17.518689,44.934570,288.156826,0.150170,4.077203,3.000000,-93.167000,7.200000,2025-03-13T21:22:44.999-05:00,-0.177836,-0.991096,0.010700,2025-03-13T21:22:44.581-05:00,0.344012,-0.142995,-0.170608,2025-03-13T21:22:44.586-05:00
4.000000,260.580322,1.280000,6.566808,44.934659,287.990322,359.502319,3.735979,3.000000,-93.167001,8.190000,2025-03-13T21:22:45.999-05:00,-0.179845,-0.986344,0.012755,2025-03-13T21:22:45.585-05:00,0.297560,-0.093052,-0.204966,2025-03-13T21:22:45.590-05:00
5.000000,259.759399,0.260000,1.609681,44.934741,287.169399,359.502319,3.535534,3.000000,-93.167002,10.610000,2025-03-13T21:22:46.999-05:00,-0.187987,-0.986930,0.019364,2025-03-13T21:22:46.590-05:00,0.209336,-0.093327,-0.210012,2025-03-13T21:22:46.585-05:00
6.000000,259.400879,0.090000,0.552512,44.934830,286.810879,0.000000,3.535534,3.000000,-93.167001,10.710000,2025-03-13T21:22:47.999-05:00,-0.201931,-0.976684,0.018082,2025-03-13T21:22:47.585-05:00,0.064497,0.002389,-0.262404,2025-03-13T21:22:47.590-05:00
7.000000,259.428955,0.090000,0.537118,44.934931,286.838955,0.000000,3.535534,3.000000,-93.167001,10.710000,2025-03-13T21:22:48.999-05:00,-0.191239,-0.983385,0.032565,2025-03-13T21:22:48.589-05:00,0.149685,-0.064727,-0.147121,2025-03-13T21:22:48.584-05:00
8.000000,259.734131,0.300000,1.594513,44.935039,287.144131,0.000000,3.535534,3.000000,-93.167024,11.580000,2025-03-13T21:22:49.999-05:00,-0.193520,-0.983975,0.030251,2025-03-13T21:22:49.584-05:00,0.111129,-0.056043,-0.148486,2025-03-13T21:22:49.589-05:00
9.000000,260.060059,1.300000,5.264441,44.935153,287.470058,0.000000,3.535534,3.000000,-93.167001,12.790000,2025-03-13T21:22:50.999-05:00,-0.211734,-0.967062,0.015932,2025-03-13T21:22:50.589-05:00,-0.049749,0.100836,-0.226374,2025-03-13T21:22:50.584-05:00
10.000000,259.953369,1.890000,5.597370,44.935254,287.363369,0.000000,3.535534,3.000000,-93.167007,12.790000,2025-03-13T21:22:51.999-05:00,-0.221343,-0.984814,0.016107,2025-03-13T21:22:51.583-05:00,-0.143804,-0.076962,-0.249314,2025-03-13T21:22:51.588-05:00
11.000000,260.063660,0.590000,2.652059,44.935389,287.473660,0.000000,3.535534,3.000000,-93.167024,12.790000,2025-03-13T21:22:52.999-05:00,-0.225507,-0.973711,0.033029,2025-03-13T21:22:52.588-05:00,-0.195528,0.038736,-0.171919,2025-03-13T21:22:52.583-05:00
12.000000,260.844849,1.870000,5.769386,44.935517,288.254848,0.000000,3.535534,3.000000,-93.167003,14.360000,2025-03-13T21:22:53.999-05:00,-0.234288,-0.973302,0.020105,2025-03-13T21:22:53.583-05:00,-0.273631,0.039802,-0.206681,2025-03-13T21:22:53.588-05:00
13.000000,260.844865,1.870000,10.551758,44.935646,288.254865,0.000000,4.748652,4.029364,-93.167026,14.360000,2025-03-13T21:22:55.000-05:00,-0.240677,-0.966269,0.018948,2025-03-13T21:22:54.587-05:00,-0.317687,0.108132,-0.210926,2025-03-13T21:22:54.582-05:00
14.000000,259.961565,2.710000,14.887265,44.935785,287.371565,0.230500,4.748652,4.029364,-93.167002,14.750000,2025-03-13T21:22:56.000-05:00,-0.249892,-0.967182,0.015424,2025-03-13T21:22:55.582-05:00,-0.374228,0.097749,-0.204496,2025-03-13T21:22:55.587-05:00
15.000000,260.484558,0.150000,0.668880,44.935912,287.894558,0.230500,3.535534,3.000000,-93.167001,14.630000,2025-03-13T21:22:57.000-05:00,-0.253813,-0.958849,0.002527,2025-03-13T21:22:56.587-05:00,-0.405916,0.169840,-0.190107,2025-03-13T21:22:56.582-05:00
16.000000,260.484575,0.308016,7.258975,44.936044,287.894575,0.230500,4.748652,4.029364,-93.167001,14.630000,2025-03-13T21:22:57.999-05:00,-0.247381,-0.966817,0.006060,2025-03-13T21:22:57.581-05:00,-0.334053,0.099496,-0.106996,2025-03-13T21:22:57.586-05:00
17.000000,260.218384,0.550000,2.397970,44.936182,287.628384,0.230500,3.535534,3.000000,-93.167000,14.680000,2025-03-13T21:22:58.999-05:00,-0.230538,-0.976261,-0.026475,2025-03-13T21:22:58.586-05:00,-0.132415,0.002294,-0.318561,2025-03-13T21:22:58.581-05:00
18.000000,260.218401,0.550000,7.258975,44.936315,287.628401,359.878601,4.748652,4.029364,-93.167001,14.680000,2025-03-13T21:22:59.999-05:00,-0.235593,-0.972695,0.000188,2025-03-13T21:22:59.581-05:00,-0.152874,0.029475,-0.120317,2025-03-13T21:22:59.586-05:00
19.000000,260.342364,0.308018,7.258975,44.936457,287.752364,359.878601,4.748652,4.029364,-93.167001,15.220000,2025-03-13T21:23:00.999-05:00,-0.238651,-0.976804,0.001315,2025-03-13T21:23:00.585-05:00,-0.162833,-0.019326,-0.170594,2025-03-13T21:23:00.581-05:00
20.000000,260.650879,0.070000,0.314009,44.936597,288.060879,359.878601,3.535534,3.000000,-93.167002,15.360000,2025-03-13T21:23:01.999-05:00,-0.247911,-0.961095,0.001288,2025-03-13T21:23:01.590-05:00,-0.209240,0.119694,-0.192799,2025-03-13T21:23:01.585-05:00
21.000000,260.650897,0.308018,7.258975,44.936735,288.060897,0.133632,4.748652,4.029364,-93.167001,15.360000,2025-03-13T21:23:02.999-05:00,-0.260224,-0.962840,0.008436,2025-03-13T21:23:02.585-05:00,-0.298140,0.099723,-0.144277,2025-03-13T21:23:02.590-05:00
22.000000,260.899067,0.308017,7.258975,44.936875,288.309067,0.133632,4.748652,4.029364,-93.167024,15.600000,2025-03-13T21:23:03.999-05:00,-0.260539,-0.971009,-0.004985,2025-03-13T21:23:03.590-05:00,-0.328887,0.029541,-0.182189,2025-03-13T21:23:03.585-05:00
23.000000,260.975849,0.370000,7.258975,44.937017,288.385849,0.679109,4.748652,4.029364,-93.167018,15.680000,2025-03-13T21:23:04.999-05:00,-0.254053,-0.959952,-0.006532,2025-03-13T21:23:04.584-05:00,-0.252085,0.130293,-0.106786,2025-03-13T21:23:04.589-05:00
24.000000,260.697041,1.430000,7.389713,44.937160,288.107041,359.884857,4.748652,4.029364,-93.167015,15.680000,2025-03-13T21:23:05.999-05:00,-0.258152,-0.970168,0.010493,2025-03-13T21:23:05.589-05:00,-0.216896,0.012707,-0.107837,2025-03-13T21:23:05.584-05:00
25.000000,261.508320,0.540000,7.258975,44.937298,288.918320,359.884857,4.748652,4.029364,-93.167000,15.680000,2025-03-13T21:23:06.999-05:00,-0.254942,-0.960948,0.016132,2025-03-13T21:23:06.584-05:00,-0.164518,0.100279,-0.106214,2025-03-13T21:23:06.589-05:00
26.000000,261.465717,0.308018,7.258975,44.937433,288.875717,359.884857,4.748652,4.029364,-93.167023,15.610000,2025-03-13T21:23:07.999-05:00,-0.261660,-0.964864,0.016104,2025-03-13T21:23:07.588-05:00,-0.223365,0.062881,-0.102385,2025-03-13T21:23:07.583-05:00
27.000000,261.819355,0.308018,7.258975,44.937572,289.229355,0.565796,4.748652,4.029364,-93.167022,15.610000,2025-03-13T21:23:08.999-05:00,-0.257189,-0.966460,0.017949,2025-03-13T21:23:08.583-05:00,-0.167861,0.034982,-0.058978,2025-03-13T21:23:08.588-05:00
28.000000,262.714844,1.910000,5.066538,44.937717,290.124844,0.565796,3.535534,3.000000,-93.166997,16.440001,2025-03-13T21:23:09.999-05:00,-0.268204,-0.960528,0.006826,2025-03-13T21:23:09.588-05:00,-0.247337,0.089158,-0.103751,2025-03-13T21:23:09.583-05:00
29.000000,262.714865,1.910000,9.413891,44.937865,290.124865,0.000000,4.748652,4.029364,-93.166996,16.440001,2025-03-13T21:23:10.999-05:00,-0.269216,-0.952644,-0.008685,2025-03-13T21:23:10.582-05:00,-0.230759,0.170172,-0.183409,2025-03-13T21:23:10.587-05:00
30.000000,261.737328,2.950000,13.962265,44.938030,289.147328,0.000000,4.748652,4.029364,-93.166996,17.120001,2025-03-13T21:23:11.999-05:00,-0.250067,-0.937041,-0.004782,2025-03-13T21:23:11.587-05:00,0.040043,0.290537,-0.064804,2025-03-13T21:23:11.582-05:00
31.000000,262.182434,0.360000,1.522788,44.938131,289.592434,0.000000,3.535534,3.000000,-93.166996,15.450000,2025-03-13T21:23:12.999-05:00,-0.255899,-0.958886,0.008546,2025-03-13T21:23:12.582-05:00,0.121110,0.039815,-0.000416,2025-03-13T21:23:12.587-05:00
32.000000,262.182453,0.360000,7.258975,44.938270,289.592453,0.435837,4.748652,4.029364,-93.166996,15.450000,2025-03-13T21:23:13.999-05:00,-0.292659,-0.960526,-0.005314,2025-03-13T21:23:13.586-05:00,-0.215474,0.019022,-0.144079,2025-03-13T21:23:13.581-05:00
33.000000,264.630761,1.269785,7.258970,44.938409,292.040761,0.435837,2.000000,3.000000,-93.166994,15.730014,2025-03-13T21:23:14.999-05:00,-0.280754,-0.955677,0.001782,2025-03-13T21:23:14.581-05:00,-0.083257,0.071036,-0.106839,2025-03-13T21:23:14.586-05:00
34.000000,265.197423,1.273151,7.258971,44.938544,292.607423,0.435837,2.000000,3.000000,-93.167000,15.785266,2025-03-13T21:23:15.999-05:00,-0.285691,-0.955222,0.000210,2025-03-13T21:23:15.586-05:00,-0.123500,0.060832,-0.129576,2025-03-13T21:23:15.581-05:00
35.000000,265.217639,1.275305,7.258973,44.938686,292.627639,0.435837,2.000000,3.000000,-93.166999,15.748986,2025-03-13T21:23:16.999-05:00,-0.298253,-0.950265,0.009086,2025-03-13T21:23:16.590-05:00,-0.221588,0.105120,-0.053718,2025-03-13T21:23:16.585-05:00
36.000000,264.434259,1.277683,7.258900,44.938821,291.844259,0.435837,2.000000,3.000000,-93.167002,15.455879,2025-03-13T21:23:17.999-05:00,-0.296404,-0.961013,0.004732,2025-03-13T21:23:17.585-05:00,-0.212534,-0.001033,-0.067810,2025-03-13T21:23:17.590-05:00
37.000000,264.130690,1.273186,7.258893,44.938957,291.540690,0.283031,2.000000,3.000000,-93.166994,15.432335,2025-03-13T21:23:18.999-05:00,-0.279093,-0.962014,-0.006537,2025-03-13T21:23:18.590-05:00,-0.084804,0.009536,-0.029464,2025-03-13T21:23:18.585-05:00
38.000000,264.218651,1.270701,7.258950,44.939095,291.628651,0.283031,2.193988,3.000000,-93.166995,15.398451,2025-03-13T21:23:19.999-05:00,-0.264112,-0.952691,-0.019399,2025-03-13T21:23:19.584-05:00,0.089816,0.093904,-0.101118,2025-03-13T21:23:19.589-05:00
39.000000,263.967072,1.275025,7.258948,44.939233,291.377072,0.225607,2.181818,3.000000,-93.166996,15.273342,2025-03-13T21:23:20.999-05:00,-0.308476,-0.948582,-0.010925,2025-03-13T21:23:20.589-05:00,-0.236239,0.095790,-0.120661,2025-03-13T21:23:20.584-05:00
40.000000,263.439521,1.275980,7.258908,44.939371,290.849521,359.584412,2.882248,3.000000,-93.167002,15.405204,2025-03-13T21:23:21.999-05:00,-0.331003,-0.940670,-0.019164,2025-03-13T21:23:21.584-05:00,-0.479360,0.182911,-0.201678,2025-03-13T21:23:21.589-05:00
41.000000,263.675428,1.272284,7.258962,44.939510,291.085428,0.000000,3.197850,3.000000,-93.167001,15.333590,2025-03-13T21:23:22.999-05:00,-0.516026,-0.890304,-0.069081,2025-03-13T21:23:22.589-05:00,-2.179507,0.645682,-0.636264,2025-03-13T21:23:22.584-05:00
42.000000,262.258596,1.269387,7.258758,44.939634,289.668596,359.692200,2.579309,3.000000,-93.167006,14.489495,2025-03-13T21:23:23.999-05:00,-0.506009,-0.896948,-0.070839,2025-03-13T21:23:23.583-05:00,-1.997528,0.547765,-0.643392,2025-03-13T21:23:23.588-05:00
43.000000,262.084037,1.272493,8.101066,44.939738,289.494037,359.692200,2.383578,3.000000,-93.166989,12.701669,2025-03-13T21:23:24.999-05:00,-0.459782,-0.904791,-0.048304,2025-03-13T21:23:24.588-05:00,-1.380017,0.423263,-0.391770,2025-03-13T21:23:24.583-05:00
44.000000,262.201356,1.275345,9.915425,44.939817,289.611356,0.000000,2.207059,3.000000,-93.166997,10.413181,2025-03-13T21:23:25.999-05:00,-0.461209,-0.904474,-0.055692,2025-03-13T21:23:25.583-05:00,-1.239003,0.371160,-0.400684,2025-03-13T21:23:25.588-05:00
45.000000,262.134555,1.354956,9.679690,44.939918,289.544555,0.000000,3.018136,3.000000,-93.167010,11.333011,2025-03-13T21:23:26.999-05:00,-0.459488,-0.906586,-0.053980,2025-03-13T21:23:26.587-05:00,-1.154354,0.325092,-0.389439,2025-03-13T21:23:26.582-05:00
46.000000,262.021023,1.324020,16.201600,44.939941,289.431023,0.000000,3.282726,3.000000,-93.166977,6.609339,2025-03-13T21:23:27.999-05:00,-0.461670,-0.907029,-0.045095,2025-03-13T21:23:27.582-05:00,-1.152069,0.309223,-0.320326,2025-03-13T21:23:27.587-05:00
47.000000,261.728813,1.476471,25.604762,44.939964,289.138813,0.000000,2.962044,3.000000,-93.166985,4.646430,2025-03-13T21:23:28.999-05:00,-0.430104,-0.916149,-0.037728,2025-03-13T21:23:28.587-05:00,-0.809315,0.210677,-0.251469,2025-03-13T21:23:28.582-05:00
48.000000,262.886210,1.165066,29.730803,44.939972,290.296210,0.000000,2.804868,3.000000,-93.166993,3.172931,2025-03-13T21:23:29.999-05:00,-0.379087,-0.930185,-0.024758,2025-03-13T21:23:29.581-05:00,-0.293792,0.069124,-0.117434,2025-03-13T21:23:29.586-05:00
49.000000,262.719366,1.275866,56.231657,44.939979,290.129365,0.000000,2.717533,3.000000,-93.166993,1.836890,2025-03-13T21:23:30.999-05:00,-0.315746,-0.948438,-0.010068,2025-03-13T21:23:30.586-05:00,0.322090,-0.110470,0.042955,2025-03-13T21:23:30.581-05:00
50.000000,262.837412,1.257450,180.000000,44.939972,290.247412,0.000000,2.973333,3.000000,-93.166995,0.520186,2025-03-13T21:23:31.999-05:00,-0.289627,-0.955780,-0.003464,2025-03-13T21:23:31.581-05:00,0.599297,-0.194215,0.118823,2025-03-13T21:23:31.586-05:00
51.000000,262.603687,0.308016,180.000000,44.939972,290.013686,0.000000,3.145362,3.000000,-93.166995,0.208931,2025-03-13T21:23:32.999-05:00,-0.281320,-0.958005,0.000095,2025-03-13T21:23:32.585-05:00,0.700846,-0.217419,0.154629,2025-03-13T21:23:32.590-05:00
52.000000,263.035748,1.056330,180.000000,44.939968,290.445748,0.000000,3.313835,3.000000,-93.166997,0.085671,2025-03-13T21:23:33.999-05:00,-0.280966,-0.958176,-0.000414,2025-03-13T21:23:33.590-05:00,0.702258,-0.223593,0.157049,2025-03-13T21:23:33.585-05:00
53.000000,263.026161,0.308016,180.000000,44.939968,290.436161,0.000000,3.441487,3.000000,-93.166998,0.000000,2025-03-13T21:23:34.999-05:00,-0.281202,-0.958250,-0.000984,2025-03-13T21:23:34.585-05:00,0.689802,-0.215099,0.144865,2025-03-13T21:23:34.590-05:00
54.000000,263.026161,0.192561,180.000000,44.939968,290.436161,0.000000,3.397519,3.000000,-93.166998,0.000000,2025-03-13T21:23:35.999-05:00,-0.280727,-0.958134,-0.000452,2025-03-13T21:23:35.589-05:00,0.653943,-0.203753,0.143867,2025-03-13T21:23:35.584-05:00
55.000000,263.026161,0.192561,180.000000,44.939968,290.436161,0.000000,3.357054,3.000000,-93.166998,0.000000,2025-03-13T21:23:36.999-05:00,-0.281349,-0.958125,0.000213,2025-03-13T21:23:36.584-05:00,0.598473,-0.183339,0.133734,2025-03-13T21:23:36.589-05:00
56.000000,263.026161,0.192561,180.000000,44.939968,290.436161,0.000000,3.414800,3.000000,-93.166998,0.000000,2025-03-13T21:23:37.999-05:00,-0.281154,-0.958450,-0.000289,2025-03-13T21:23:37.589-05:00,0.533852,-0.160555,0.113953,2025-03-13T21:23:37.584-05:00
57.000000,263.026161,0.192561,180.000000,44.939968,290.436161,0.000000,3.473440,3.000000,-93.166998,0.000000,2025-03-13T21:23:38.999-05:00,-0.280904,-0.958102,-0.000756,2025-03-13T21:23:38.584-05:00,0.473599,-0.137476,0.097989,2025-03-13T21:23:38.589-05:00
58.000000,265.032374,0.308016,180.000000,44.939964,292.442374,0.000000,3.607807,3.000000,-93.167000,0.110983,2025-03-13T21:23:39.999-05:00,-0.281233,-0.958257,-0.000355,2025-03-13T21:23:39.588-05:00,0.435706,-0.127160,0.093902,2025-03-13T21:23:39.583-05:00
59.000000,265.052298,0.308016,180.000000,44.939962,292.462298,0.000000,3.665338,3.000000,-93.167002,0.052362,2025-03-13T21:23:40.999-05:00,-0.281223,-0.958183,-0.000344,2025-03-13T21:23:40.583-05:00,0.415962,-0.118064,0.078479,2025-03-13T21:23:40.588-05:00
60.000000,265.241756,0.327768,180.000000,44.939960,292.651756,0.000000,3.692906,3.000000,-93.167002,0.000000,2025-03-13T21:23:41.999-05:00,-0.280939,-0.958132,-0.001047,2025-03-13T21:23:41.588-05:00,0.394612,-0.108037,0.072166,2025-03-13T21:23:41.583-05:00
61.000000,265.241756,0.308016,180.000000,44.939960,292.651756,0.000000,3.690033,3.000000,-93.167002,0.000000,2025-03-13T21:23:42.999-05:00,-0.280988,-0.958100,-0.000642,2025-03-13T21:23:42.582-05:00,0.370614,-0.101138,0.068174,2025-03-13T21:23:42.587-05:00
62.000000,265.241756,0.590058,180.000000,44.939960,292.651756,0.000000,3.637624,3.000000,-93.167002,0.000000,2025-03-13T21:23:43.999-05:00,-0.281131,-0.958158,0.000043,2025-03-13T21:23:43.587-05:00,0.344224,-0.094521,0.063144,2025-03-13T21:23:43.582-05:00
63.000000,265.241756,0.590084,180.000000,44.939960,292.651756,0.000000,3.563530,3.000000,-93.167002,0.000000,2025-03-13T21:23:44.999-05:00,-0.281310,-0.958231,-0.000055,2025-03-13T21:23:44.582-05:00,0.323783,-0.085883,0.056811,2025-03-13T21:23:44.587-05:00
64.000000,265.241756,0.585170,180.000000,44.939960,292.651756,0.000000,3.489694,3.000000,-93.167002,0.000000,2025-03-13T21:23:45.999-05:00,-0.280931,-0.958260,-0.000823,2025-03-13T21:23:45.586-05:00,0.303938,-0.080507,0.045232,2025-03-13T21:23:45.581-05:00
65.000000,265.241756,0.641026,180.000000,44.939960,292.651756,0.000000,3.494091,3.000000,-93.167002,0.000000,2025-03-13T21:23:46.999-05:00,-0.280901,-0.958286,-0.000494,2025-03-13T21:23:46.581-05:00,0.282561,-0.072766,0.039677,2025-03-13T21:23:46.586-05:00
66.000000,265.241756,0.587119,180.000000,44.939960,292.651756,0.000000,3.451963,3.000000,-93.167002,0.000000,2025-03-13T21:23:47.999-05:00,-0.280813,-0.958070,-0.000417,2025-03-13T21:23:47.586-05:00,0.263668,-0.064873,0.036500,2025-03-13T21:23:47.581-05:00
67.000000,265.241756,0.558150,180.000000,44.939960,292.651756,0.000000,3.496959,3.000000,-93.167002,0.000000,2025-03-13T21:23:48.999-05:00,-0.281080,-0.958127,0.000292,2025-03-13T21:23:48.590-05:00,0.245414,-0.058319,0.030574,2025-03-13T21:23:48.585-05:00
68.000000,265.241756,0.558495,180.000000,44.939960,292.651756,0.000000,3.480176,3.000000,-93.167002,0.000000,2025-03-13T21:23:49.999-05:00,-0.281072,-0.958324,-0.000777,2025-03-13T21:23:49.585-05:00,0.223995,-0.056253,0.019339,2025-03-13T21:23:49.590-05:00
69.000000,265.241756,0.557383,180.000000,44.939960,292.651756,0.000000,3.436285,3.000000,-93.167002,0.000000,2025-03-13T21:23:50.999-05:00,-0.281109,-0.958093,-0.000609,2025-03-13T21:23:50.590-05:00,0.210950,-0.048669,0.017937,2025-03-13T21:23:50.585-05:00
70.000000,265.241756,0.557853,180.000000,44.939960,292.651756,0.000000,3.390100,3.000000,-93.167002,0.000000,2025-03-13T21:23:51.999-05:00,-0.280988,-0.958131,0.000116,2025-03-13T21:23:51.584-05:00,0.195076,-0.043416,0.021480,2025-03-13T21:23:51.589-05:00
71.000000,265.241756,0.554876,180.000000,44.939960,292.651756,0.000000,3.320595,3.000000,-93.167002,0.000000,2025-03-13T21:23:52.999-05:00,-0.280955,-0.958206,-0.000634,2025-03-13T21:23:52.589-05:00,0.182917,-0.040602,0.009722,2025-03-13T21:23:52.584-05:00
72.000000,265.241756,0.556046,180.000000,44.939960,292.651756,0.000000,3.324048,3.000000,-93.167002,0.000000,2025-03-13T21:23:53.999-05:00,-0.281057,-0.958302,-0.000590,2025-03-13T21:23:53.584-05:00,0.167502,-0.036892,0.006671,2025-03-13T21:23:53.589-05:00
73.000000,265.241756,0.553094,180.000000,44.939960,292.651756,0.000000,3.262087,3.000000,-93.167002,0.000000,2025-03-13T21:23:54.999-05:00,-0.281286,-0.958176,0.000184,2025-03-13T21:23:54.588-05:00,0.158411,-0.032747,0.006355,2025-03-13T21:23:54.584-05:00
74.000000,265.241756,0.556135,180.000000,44.939960,292.651756,0.000000,3.237240,3.000000,-93.167002,0.000000,2025-03-13T21:23:55.999-05:00,-0.281022,-0.958118,-0.000869,2025-03-13T21:23:55.583-05:00,0.144084,-0.029023,-0.002759,2025-03-13T21:23:55.588-05:00
75.000000,265.241756,0.568886,180.000000,44.939960,292.651756,0.000000,3.228007,3.000000,-93.167002,0.000000,2025-03-13T21:23:56.999-05:00,-0.280801,-0.958495,-0.000197,2025-03-13T21:23:56.588-05:00,0.141714,-0.028508,-0.003011,2025-03-13T21:23:56.583-05:00
76.000000,265.241756,0.566152,180.000000,44.939960,292.651756,0.000000,3.227256,3.000000,-93.167002,0.000000,2025-03-13T21:23:57.999-05:00,-0.281011,-0.958219,-0.000331,2025-03-13T21:23:57.583-05:00,0.125260,-0.023933,-0.000181,2025-03-13T21:23:57.588-05:00
77.000000,265.241756,0.566065,180.000000,44.939960,292.651756,0.000000,3.165893,3.000000,-93.167002,0.000000,2025-03-13T21:23:58.999-05:00,-0.272225,-0.960722,0.002164,2025-03-13T21:23:58.587-05:00,0.209625,-0.045747,0.017307,2025-03-13T21:23:58.582-05:00
78.000000,265.241756,0.563785,180.000000,44.939960,292.651756,0.000000,3.208317,3.000000,-93.167002,0.000000,2025-03-13T21:23:59.999-05:00,-0.230374,-0.972224,0.013400,2025-03-13T21:23:59.582-05:00,0.585468,-0.149359,0.124580,2025-03-13T21:23:59.587-05:00
79.000000,265.318840,1.035250,180.000000,44.939960,292.728840,0.000000,3.185120,3.000000,-93.166997,0.207995,2025-03-13T21:24:00.999-05:00,-0.138452,-0.996530,0.038515,2025-03-13T21:24:00.587-05:00,1.424275,-0.369141,0.361852,2025-03-13T21:24:00.582-05:00
80.000000,265.457129,0.665130,46.674757,44.939972,292.867129,0.000000,3.128003,3.000000,-93.166998,1.154115,2025-03-13T21:24:01.999-05:00,-0.069825,-1.016000,0.056216,2025-03-13T21:24:01.581-05:00,1.966336,-0.521979,0.525670,2025-03-13T21:24:01.586-05:00
81.000000,265.322321,0.676004,17.249296,44.940009,292.732321,0.000000,3.185234,3.000000,-93.166998,3.171564,2025-03-13T21:24:02.999-05:00,-0.101481,-1.011700,0.029583,2025-03-13T21:24:02.586-05:00,1.529589,-0.443884,0.300943,2025-03-13T21:24:02.581-05:00
82.000000,265.203511,0.673247,10.672656,44.940063,292.613511,0.000000,3.125972,3.000000,-93.166998,5.108484,2025-03-13T21:24:03.999-05:00,-0.136311,-0.998667,0.014825,2025-03-13T21:24:03.581-05:00,1.004729,-0.267673,0.194926,2025-03-13T21:24:03.586-05:00
83.000000,265.055194,0.666734,8.227438,44.940128,292.465194,0.000000,3.091544,3.000000,-93.166999,6.565256,2025-03-13T21:24:04.999-05:00,-0.141338,-0.982111,0.013677,2025-03-13T21:24:04.585-05:00,0.822033,-0.079419,0.195121,2025-03-13T21:24:04.590-05:00
84.000000,264.800764,0.672988,7.257009,44.940204,292.210764,0.195515,2.951995,3.000000,-93.167000,7.885778,2025-03-13T21:24:05.999-05:00,-0.161593,-0.985973,0.017030,2025-03-13T21:24:05.590-05:00,0.711490,-0.126092,0.160292,2025-03-13T21:24:05.585-05:00
85.000000,264.489507,0.674700,7.254975,44.940290,291.899507,0.195515,2.726943,3.000000,-93.167000,9.067319,2025-03-13T21:24:06.999-05:00,-0.171556,-0.995525,0.042382,2025-03-13T21:24:06.585-05:00,0.570441,-0.216399,0.216356,2025-03-13T21:24:06.590-05:00
86.000000,264.298887,0.695215,7.257077,44.940385,291.708887,0.195515,2.777961,3.000000,-93.167000,10.163939,2025-03-13T21:24:07.999-05:00,-0.197796,-0.982377,0.031015,2025-03-13T21:24:07.589-05:00,0.188209,-0.069094,0.092346,2025-03-13T21:24:07.584-05:00
87.000000,264.547408,0.694268,7.258946,44.940492,291.957408,0.195515,3.395028,3.000000,-93.166999,11.294727,2025-03-13T21:24:08.999-05:00,-0.243897,-0.968942,0.001472,2025-03-13T21:24:08.584-05:00,-0.302611,0.075346,-0.178657,2025-03-13T21:24:08.589-05:00
88.000000,264.492769,0.677364,7.258687,44.940604,291.902769,0.195515,3.212389,3.000000,-93.166997,11.958788,2025-03-13T21:24:09.999-05:00,-0.286411,-0.956163,-0.000552,2025-03-13T21:24:09.589-05:00,-0.665540,0.188321,-0.217255,2025-03-13T21:24:09.584-05:00
89.000000,264.411146,0.678780,7.258548,44.940713,291.821146,0.195515,4.036507,3.338812,-93.166995,12.052323,2025-03-13T21:24:10.999-05:00,-0.300264,-0.949243,0.019413,2025-03-13T21:24:10.583-05:00,-0.746829,0.238953,-0.097358,2025-03-13T21:24:10.588-05:00
90.000000,264.271465,0.680463,7.257367,44.940820,291.681465,359.438263,4.465479,3.708880,-93.166995,11.904056,2025-03-13T21:24:11.999-05:00,-0.337619,-0.943676,0.050868,2025-03-13T21:24:11.588-05:00,-1.081135,0.288509,0.191402,2025-03-13T21:24:11.583-05:00
91.000000,264.173083,0.711694,7.258483,44.940925,291.583083,359.107117,3.618006,3.000000,-93.167000,11.706488,2025-03-13T21:24:12.999-05:00,-0.364109,-0.924806,0.066062,2025-03-13T21:24:12.583-05:00,-1.282643,0.447823,0.317165,2025-03-13T21:24:12.588-05:00
92.000000,264.270028,0.690197,7.258974,44.941021,291.680028,359.107208,2.867462,3.000000,-93.166993,10.996764,2025-03-13T21:24:13.999-05:00,-0.330815,-0.955635,-0.051526,2025-03-13T21:24:13.587-05:00,-0.921082,0.178468,-0.586290,2025-03-13T21:24:13.583-05:00
93.000000,263.567295,0.858409,7.257382,44.941111,290.977295,0.206399,3.014922,3.000000,-93.166993,10.490442,2025-03-13T21:24:14.999-05:00,-0.339678,-0.937103,-0.073537,2025-03-13T21:24:14.582-05:00,-0.965316,0.327893,-0.730046,2025-03-13T21:24:14.587-05:00
94.000000,263.584618,0.975521,7.468978,44.941211,290.994618,0.206399,4.256776,3.000000,-93.166993,10.582024,2025-03-13T21:24:15.999-05:00,-0.338535,-0.939994,-0.085527,2025-03-13T21:24:15.587-05:00,-0.960034,0.289567,-0.700053,2025-03-13T21:24:15.582-05:00
