seconds_elapsed,location_altitude,location_speedAccuracy,location_bearingAccuracy,location_latitude,location_altitudeAboveMeanSeaLevel,location_bearing,location_horizontalAccuracy,location_verticalAccuracy,location_longitude,location_speed,location_local_time,accelerometerUncalibrated_z,accelerometerUncalibrated_y,accelerometerUncalibrated_x,accelerometerUncalibrated_local_time,accelerometer_z,accelerometer_y,accelerometer_x,accelerometer_local_time
0,262.213658,2.146006,29.371927,44.941415,289.623658,113.714825,2.830548,3,-93.167104,5.912536,2025-03-21T00:21:41Z,-0.168515,-0.985491,-0.253028,2025-03-21T00:21:40Z,0.271078,-0.049676,-2.687001,2025-03-21T00:21:40Z
1,262.220168,2.131887,29.128535,44.941366,289.630168,139.147175,2.789021,3,-93.167064,5.927006,2025-03-21T00:21:42Z,-0.15161,-0.989678,-0.168072,2025-03-21T00:21:41Z,0.491438,-0.105523,-1.90059,2025-03-21T00:21:41Z
2,262.168211,2.106725,26.774857,44.941306,289.578211,161.560355,2.746034,3,-93.167047,6.375523,2025-03-21T00:21:43Z,-0.154202,-0.988903,-0.04482,2025-03-21T00:21:42Z,0.479404,-0.104987,-0.831003,2025-03-21T00:21:42Z
3,261.986077,2.037457,23.230638,44.941238,289.396077,181.217865,2.678771,3,-93.167049,7.105232,2025-03-21T00:21:44Z,-0.181514,-0.994485,0.030021,2025-03-21T00:21:43Z,0.221099,-0.176554,-0.277578,2025-03-21T00:21:43Z
4,261.92166,1.994244,20.744851,44.941166,289.33166,181.253525,2.568665,3,-93.167049,7.783552,2025-03-21T00:21:45Z,-0.19378,-0.976957,0.067253,2025-03-21T00:21:44Z,0.010549,0.028499,0.050328,2025-03-21T00:21:44Z
5,261.927377,1.960356,18.986611,44.941089,289.337377,181.253525,2.561783,3,-93.167053,8.365679,2025-03-21T00:21:46Z,-0.215432,-0.975301,0.063215,2025-03-21T00:21:45Z,-0.248505,0.046743,0.107608,2025-03-21T00:21:45Z
6,262.078629,1.908994,17.739776,44.941009,289.488629,180.861145,2.387512,3,-93.167053,8.718338,2025-03-21T00:21:47Z,-0.232523,-0.968102,0.046047,2025-03-21T00:21:46Z,-0.431429,0.130945,0.024869,2025-03-21T00:21:46Z
7,262.094298,1.924547,17.423837,44.940927,289.504298,180.861145,2.251266,3,-93.167053,8.949936,2025-03-21T00:21:48Z,-0.274589,-0.960483,0.035236,2025-03-21T00:21:47Z,-0.824685,0.19502,-0.096301,2025-03-21T00:21:47Z
8,262.27043,1.922564,18.03521,44.940849,289.680429,180.861145,2.161826,3,-93.167054,8.636242,2025-03-21T00:21:49Z,-0.275564,-0.960954,0.052298,2025-03-21T00:21:48Z,-0.794149,0.181075,0.003367,2025-03-21T00:21:48Z
9,262.381769,1.946204,18.907041,44.940773,289.791769,180.112579,2.105186,3,-93.167054,8.339622,2025-03-21T00:21:50Z,-0.27697,-0.95546,0.039943,2025-03-21T00:21:49Z,-0.758297,0.231295,-0.031313,2025-03-21T00:21:49Z
10,262.344533,1.962578,19.842646,44.940699,289.754533,180.112579,2.220325,3,-93.167056,8.01426,2025-03-21T00:21:51Z,-0.302354,-0.95556,0.041971,2025-03-21T00:21:50Z,-0.924304,0.211268,-0.04856,2025-03-21T00:21:50Z
11,262.485064,1.995345,21.577472,44.940633,289.895064,180.112579,2.150192,3,-93.167056,7.492933,2025-03-21T00:21:52Z,-0.320239,-0.949612,0.03188,2025-03-21T00:21:51Z,-1.047098,0.25373,-0.162292,2025-03-21T00:21:51Z
12,262.818049,2.047937,24.56152,44.940573,290.228049,180.112579,2.49955,3,-93.167054,6.753882,2025-03-21T00:21:53Z,-0.333424,-0.942249,0.024185,2025-03-21T00:21:52Z,-1.104145,0.317877,-0.153576,2025-03-21T00:21:52Z
13,262.89012,2.120371,29.024456,44.94052,290.30012,180.112579,2.425648,3,-93.167053,5.911395,2025-03-21T00:21:54Z,-0.352074,-0.946049,0.024646,2025-03-21T00:21:53Z,-1.255288,0.270612,-0.147316,2025-03-21T00:21:53Z
14,263.034872,2.203315,35.632516,44.940475,290.444871,180.112579,2.340518,3,-93.167051,5.009851,2025-03-21T00:21:55Z,-0.357567,-0.936077,0.018767,2025-03-21T00:21:54Z,-1.248406,0.355384,-0.18269,2025-03-21T00:21:54Z
15,263.196647,2.317712,47.550772,44.940441,290.606647,180.112579,2.299551,3,-93.167047,3.946768,2025-03-21T00:21:56Z,-0.306634,-0.953337,0.026994,2025-03-21T00:21:55Z,-0.678023,0.169541,-0.065372,2025-03-21T00:21:55Z
16,263.390011,2.45271,67.355986,44.940415,290.800011,180.112579,2.296122,3,-93.167043,2.938964,2025-03-21T00:21:57Z,-0.261219,-0.963089,0.037534,2025-03-21T00:21:56Z,-0.16706,0.060595,0.052275,2025-03-21T00:21:56Z
17,263.677609,2.619468,73.808508,44.940389,291.087609,180.112579,2.294819,3,-93.16704,2.667043,2025-03-21T00:21:58Z,-0.188765,-0.982564,0.05745,2025-03-21T00:21:57Z,0.558583,-0.133031,0.239412,2025-03-21T00:21:57Z
18,263.754258,2.664697,69.465029,44.940362,291.164257,180.112579,2.262062,3,-93.167039,2.796681,2025-03-21T00:21:59Z,-0.108685,-0.999163,0.076974,2025-03-21T00:21:58Z,1.308551,-0.291933,0.420216,2025-03-21T00:21:58Z
19,263.881328,2.514642,49.721198,44.940326,291.291328,179.59111,2.32581,3,-93.167035,3.787808,2025-03-21T00:22:00Z,-0.134562,-0.994924,0.067601,2025-03-21T00:21:59Z,1.04389,-0.242281,0.342428,2025-03-21T00:21:59Z
20,264.03129,2.284519,34.530047,44.940275,291.44129,179.59111,2.311792,3,-93.167033,5.135242,2025-03-21T00:22:01Z,-0.123743,-0.997019,0.069417,2025-03-21T00:22:00Z,1.070814,-0.24931,0.352799,2025-03-21T00:22:00Z
21,264.343077,2.16713,27.30687,44.940215,291.753077,179.59111,2.28581,3,-93.167036,6.222692,2025-03-21T00:22:02Z,-0.11982,-0.996738,0.054507,2025-03-21T00:22:01Z,0.954495,-0.206971,0.240547,2025-03-21T00:22:01Z
22,264.443395,2.070834,21.997641,44.940144,291.853395,179.59111,2.253099,3,-93.167035,7.399943,2025-03-21T00:22:03Z,-0.148918,-0.989737,0.050203,2025-03-21T00:22:02Z,0.624286,-0.124929,0.209339,2025-03-21T00:22:02Z
23,264.671641,1.959983,18.625516,44.940066,292.081641,179.59111,2.235921,3,-93.167032,8.44897,2025-03-21T00:22:04Z,-0.196442,-0.972544,0.037757,2025-03-21T00:22:03Z,0.159237,0.040178,0.089188,2025-03-21T00:22:03Z
24,264.546395,1.927828,17.504845,44.939987,291.956395,180.917847,2.493294,3,-93.167036,8.872458,2025-03-21T00:22:05Z,-0.213989,-0.983601,0.031203,2025-03-21T00:22:04Z,-2.58e-4,-0.072588,0.002605,2025-03-21T00:22:04Z
25,264.68298,1.901254,16.7845,44.939905,292.09298,180.917847,2.362173,3,-93.167036,9.125355,2025-03-21T00:22:06Z,-0.207621,-0.978337,0.048299,2025-03-21T00:22:05Z,0.006071,-0.013137,0.042964,2025-03-21T00:22:05Z
26,264.776748,1.904479,15.94554,44.939819,292.186747,180.917847,2.230692,3,-93.16704,9.479506,2025-03-21T00:22:07Z,-0.220108,-0.97599,0.04621,2025-03-21T00:22:06Z,-0.151681,0.019639,0.004159,2025-03-21T00:22:06Z
27,264.823717,1.937233,15.198558,44.939729,292.233717,180.917847,2.195388,3,-93.167043,9.81443,2025-03-21T00:22:08Z,-0.251318,-0.967775,0.040235,2025-03-21T00:22:07Z,-0.429601,0.090713,-0.056326,2025-03-21T00:22:07Z
28,264.901249,1.960377,15.332444,44.939643,292.311248,180.917847,2.120651,3,-93.167046,9.650998,2025-03-21T00:22:09Z,-0.243321,-0.968487,0.043079,2025-03-21T00:22:08Z,-0.352714,0.083841,-0.023239,2025-03-21T00:22:08Z
29,264.907753,1.96163,14.989073,44.939555,292.317753,180.917847,2.074075,3,-93.167046,9.66879,2025-03-21T00:22:10Z,-0.235431,-0.973013,0.042146,2025-03-21T00:22:09Z,-0.247293,0.034814,-0.041556,2025-03-21T00:22:09Z
30,265.030832,1.912973,15.539869,44.939467,292.440832,180.398554,2.045781,3,-93.167048,9.718052,2025-03-21T00:22:11Z,-0.268146,-0.9594,0.032427,2025-03-21T00:22:10Z,-0.533715,0.161564,-0.137624,2025-03-21T00:22:10Z
31,265.005313,1.931773,16.046842,44.939382,292.415313,180.409878,2.16958,3,-93.167049,9.479992,2025-03-21T00:22:12Z,-0.228191,-0.968501,0.043377,2025-03-21T00:22:11Z,-0.124321,0.067468,-0.028631,2025-03-21T00:22:11Z
32,265.097603,1.919972,16.441341,44.939298,292.507603,180.402917,2.218924,3,-93.16705,9.362555,2025-03-21T00:22:13Z,-0.178022,-0.985351,0.049513,2025-03-21T00:22:12Z,0.353885,-0.090181,0.109298,2025-03-21T00:22:12Z
33,265.229198,1.884842,15.47653,44.93921,292.639197,180.637689,2.138503,3,-93.167053,9.813265,2025-03-21T00:22:14Z,-0.172205,-0.983928,0.064884,2025-03-21T00:22:13Z,0.401789,-0.077381,0.260959,2025-03-21T00:22:13Z
34,265.229336,1.844358,14.230454,44.939116,292.639335,180.55926,2.084895,3,-93.167055,10.455118,2025-03-21T00:22:15Z,-0.169802,-0.9848,0.060717,2025-03-21T00:22:14Z,0.418177,-0.079768,0.204438,2025-03-21T00:22:14Z
35,265.34528,1.811245,13.173328,44.939014,292.755279,179.57132,2.049945,3,-93.167056,11.138978,2025-03-21T00:22:16Z,-0.17156,-0.983811,0.047985,2025-03-21T00:22:15Z,0.356979,-0.062291,0.121488,2025-03-21T00:22:15Z
36,265.397512,1.789186,12.264608,44.938907,292.807512,180.472336,2.153109,3,-93.167056,11.81809,2025-03-21T00:22:17Z,-0.180201,-0.98644,0.041554,2025-03-21T00:22:16Z,0.269809,-0.087003,0.047638,2025-03-21T00:22:16Z
37,265.515348,1.765262,11.486995,44.938794,292.925348,180.472336,2.080665,3,-93.167055,12.450387,2025-03-21T00:22:17Z,-0.192554,-0.980085,0.04397,2025-03-21T00:22:17Z,0.122194,-0.01777,0.055814,2025-03-21T00:22:17Z
38,265.598775,1.751149,10.986682,44.938678,293.008775,180.219025,2.041405,3,-93.167058,12.913886,2025-03-21T00:22:18Z,-0.19572,-0.979934,0.041222,2025-03-21T00:22:18Z,0.07212,-0.017364,0.025447,2025-03-21T00:22:18Z
39,265.702747,1.740613,10.574838,44.938558,293.112747,180.219025,2.020815,3,-93.16706,13.335778,2025-03-21T00:22:19Z,-0.200563,-0.976241,0.039963,2025-03-21T00:22:19Z,0.001393,0.027289,0.00483,2025-03-21T00:22:19Z
40,265.889633,1.727785,10.181672,44.938433,293.29963299999997,179.689209,2.01019,3,-93.167062,13.748644,2025-03-21T00:22:20Z,-0.210622,-0.97717,0.038925,2025-03-21T00:22:20Z,-0.075578,0.011024,0.013431,2025-03-21T00:22:20Z
41,266.202979,1.718727,9.882641,44.938305,293.612978,179.689209,2.004889,3,-93.167065,14.090547,2025-03-21T00:22:21Z,-0.21656,-0.974996,0.034051,2025-03-21T00:22:21Z,-0.142815,0.03595,-0.043081,2025-03-21T00:22:21Z
42,266.484328,1.688172,9.558046,44.938176,293.894328,180,2.00232,3,-93.167066,14.307916,2025-03-21T00:22:22Z,-0.218881,-0.974782,0.035651,2025-03-21T00:22:22Z,-0.16128,0.037992,-0.044347,2025-03-21T00:22:22Z
43,266.795139,1.698779,9.50392,44.938044,294.205139,180.672775,2.001076,3,-93.167067,14.479331,2025-03-21T00:22:23Z,-0.216653,-0.963009,0.036839,2025-03-21T00:22:23Z,-0.084442,0.144199,-0.008977,2025-03-21T00:22:23Z
44,266.869251,1.716554,9.466202,44.937911,294.279251,180.672775,2.000498,3,-93.167067,14.692158,2025-03-21T00:22:24Z,-0.226424,-0.956654,0.048289,2025-03-21T00:22:24Z,-0.080061,0.182524,0.077978,2025-03-21T00:22:24Z
45,266.707578,1.676774,9.102333,44.937776,294.117578,181.013931,2.000229,3,-93.167067,14.926054,2025-03-21T00:22:25Z,-0.243593,-0.956325,0.0322,2025-03-21T00:22:25Z,-0.165971,0.165155,0.033331,2025-03-21T00:22:25Z
46,266.407019,1.69297,9.109251,44.937641,293.817019,180.398499,2.000104,3,-93.167065,15.056584,2025-03-21T00:22:26Z,-0.261668,-0.965799,0.02249,2025-03-21T00:22:26Z,-0.306096,0.065445,-0.116431,2025-03-21T00:22:26Z
47,266.11501,1.713278,9.175794,44.937505,293.52501,180.398499,2.000047,3,-93.167067,15.125969,2025-03-21T00:22:27Z,-0.257349,-0.965035,0.026136,2025-03-21T00:22:27Z,-0.238805,0.063222,-0.112039,2025-03-21T00:22:27Z
48,265.950685,1.705599,9.117482,44.937369,293.360685,180.398499,2.199079,3,-93.167067,15.154047,2025-03-21T00:22:28Z,-0.261724,-0.964649,0.030924,2025-03-21T00:22:28Z,-0.269018,0.065918,-0.068744,2025-03-21T00:22:28Z
49,265.649769,1.690772,9.020345,44.937233,293.059768,180,2.089268,3,-93.16707,15.183506,2025-03-21T00:22:29Z,-0.272445,-0.960185,0.022838,2025-03-21T00:22:29Z,-0.382123,0.117201,-0.098237,2025-03-21T00:22:29Z
50,265.411013,1.695802,9.090582,44.937096,292.821013,178.838898,2.070266,3,-93.167075,15.111946,2025-03-21T00:22:30Z,-0.269469,-0.97021,0.022828,2025-03-21T00:22:30Z,-0.349449,0.017313,-0.06019,2025-03-21T00:22:30Z
51,265.065639,1.708243,9.241909,44.936962,292.475639,178.838898,2.03164,3,-93.167078,14.972807,2025-03-21T00:22:31Z,-0.263413,-0.955139,0.025273,2025-03-21T00:22:31Z,-0.283264,0.159879,-0.022804,2025-03-21T00:22:31Z
52,264.960339,1.698892,9.22892,44.936827,292.370339,179.416733,2.014279,3,-93.167078,14.912061,2025-03-21T00:22:32Z,-0.268575,-0.967782,0.033281,2025-03-21T00:22:32Z,-0.294928,0.025545000000000002,0.016714,2025-03-21T00:22:32Z
53,265.089973,1.712007,9.309667,44.936693,292.499973,180.22464,2.006488,3,-93.167076,14.898988,2025-03-21T00:22:33Z,-0.260954,-0.964206,0.033038,2025-03-21T00:22:33Z,-0.224808,0.066161,0.04106,2025-03-21T00:22:33Z
54,264.650473,1.678003,9.109659,44.936558,292.060472,180.22464,2.00294,3,-93.16708,14.92237,2025-03-21T00:22:34Z,-0.27041,-0.963025,0.025353,2025-03-21T00:22:34Z,-0.303137,0.074221,-0.039665,2025-03-21T00:22:34Z
55,264.34504,1.703371,9.323437,44.936425,291.75504,180,2.461163,3,-93.167081,14.8012,2025-03-21T00:22:35Z,-0.27326,-0.954553,0.010582,2025-03-21T00:22:35Z,-0.30806,0.149996,-0.101841,2025-03-21T00:22:35Z
56,264.005447,1.70006,9.39379,44.936293,291.415447,180,2.46754,3,-93.167079,14.659231,2025-03-21T00:22:36Z,-0.276669,-0.960771,0.003652,2025-03-21T00:22:36Z,-0.346061,0.094283,-0.127959,2025-03-21T00:22:36Z
57,263.864175,1.710151,9.566718,44.936163,291.274175,180,2.215401,3,-93.167077,14.481452,2025-03-21T00:22:37Z,-0.278852,-0.967502,0.013513,2025-03-21T00:22:37Z,-0.31676,0.008885,-0.087498,2025-03-21T00:22:37Z
58,263.586397,1.712677,9.695219,44.936034,290.996397,180,2.100192,3,-93.167076,14.310488,2025-03-21T00:22:38Z,-0.27214699999999997,-0.960116,0.021723,2025-03-21T00:22:38Z,-0.236383,0.086647,-0.026826,2025-03-21T00:22:38Z
59,263.508932,1.731072,9.947988,44.935907,290.918931,180.326813,2.046896,3,-93.167075,14.095999,2025-03-21T00:22:39Z,-0.275617,-0.959016,0.01525,2025-03-21T00:22:39Z,-0.251985,0.087712,-0.066759,2025-03-21T00:22:39Z
60,263.166924,1.727391,10.118354,44.935785,290.576923,180.326813,2.022441,3,-93.167074,13.828109,2025-03-21T00:22:40Z,-0.272304,-0.959126,0.010181,2025-03-21T00:22:40Z,-0.194171,0.082845,-0.080507,2025-03-21T00:22:40Z
61,263.080774,1.748189,10.375557,44.935662,290.490773,180.110123,2.010755,3,-93.167075,13.648906,2025-03-21T00:22:41Z,-0.275015,-0.964376,0.020368,2025-03-21T00:22:41Z,-0.19392,0.022053,0.004404,2025-03-21T00:22:41Z
62,263.035629,1.764825,10.630787,44.935541,290.445629,180.110123,2.247301,3,-93.167074,13.447905,2025-03-21T00:22:42Z,-0.2778,-0.958375,0.017387,2025-03-21T00:22:42Z,-0.215336,0.077602,0.001573,2025-03-21T00:22:42Z
63,262.885263,1.738538,10.569098,44.935419,290.295263,180.110123,2.18974,3,-93.167074,13.323733,2025-03-21T00:22:43Z,-0.283555,-0.957802,0.018551,2025-03-21T00:22:43Z,-0.253729,0.085871,0.006701,2025-03-21T00:22:43Z
64,262.813408,1.743558,10.751801,44.935299,290.223408,180.110123,2.092781,3,-93.167074,13.136617,2025-03-21T00:22:44Z,-0.321073,-0.951868,0.004933,2025-03-21T00:22:44Z,-0.579209,0.125806,-0.129009,2025-03-21T00:22:44Z
65,262.765207,1.757421,11.29489,44.935185,290.175207,180,2.045914,3,-93.167077,12.605299,2025-03-21T00:22:45Z,-0.371621,-0.93655,-0.01044,2025-03-21T00:22:45Z,-1.031172,0.264,-0.300731,2025-03-21T00:22:45Z
66,262.647077,1.795751,12.477904,44.935081,290.057077,180,2.023501,3,-93.167076,11.660024,2025-03-21T00:22:46Z,-0.43005,-0.923063,-0.0251,2025-03-21T00:22:46Z,-1.474071,0.361204,-0.402056,2025-03-21T00:22:46Z
67,262.524651,1.834556,14.87244,44.934994,289.934651,180,2.012613,3,-93.167077,9.974309,2025-03-21T00:22:48Z,-0.374906,-0.931545,-0.011985,2025-03-21T00:22:47Z,-0.905537,0.269645,-0.247316,2025-03-21T00:22:47Z
68,262.365219,1.93588,17.889876,44.934921,289.775218,180,2.183573,3,-93.167074,8.64635,2025-03-21T00:22:49Z,-0.372695,-0.939028,0.002363,2025-03-21T00:22:48Z,-0.815538,0.178394,-0.134832,2025-03-21T00:22:48Z
69,262.419407,2.040852,21.526722,44.934855,289.829407,180,2.398622,3,-93.167076,7.421283,2025-03-21T00:22:50Z,-0.339632,-0.946295,0.016708,2025-03-21T00:22:49Z,-0.492696,0.105858,0.038645,2025-03-21T00:22:49Z
70,262.246927,2.084934,25.195903,44.934797,289.656927,180,2.394716,3,-93.167078,6.521894,2025-03-21T00:22:51Z,-0.313984,-0.949634,0.028204,2025-03-21T00:22:50Z,-0.226791,0.0696,0.223861,2025-03-21T00:22:50Z
71,262.230524,2.128498,29.016128,44.934744,289.640524,180,2.287126,3,-93.167075,5.852443,2025-03-21T00:22:52Z,-0.292156,-0.954781,0.056873,2025-03-21T00:22:51Z,0.026243,0.005728,0.448547,2025-03-21T00:22:51Z
72,262.210133,2.179842,31.19114,44.934696,289.620133,179.267517,2.311216,3,-93.167066,5.539128,2025-03-21T00:22:53Z,-0.283545,-0.959473,0.038129,2025-03-21T00:22:52Z,0.10843,-0.036601,0.208055,2025-03-21T00:22:52Z
73,262.297253,2.19399,33.345392,44.934649,289.707253,179.267517,2.259347,3,-93.167055,5.291397,2025-03-21T00:22:54Z,-0.246701,-0.965777,7.8e-5,2025-03-21T00:22:53Z,0.481731,-0.106614,-0.171661,2025-03-21T00:22:53Z
74,262.168198,2.222057,33.39076,44.934603,289.578198,179.267517,2.222297,3,-93.167063,5.272227,2025-03-21T00:22:55Z,-0.247305,-0.971047,-0.027502,2025-03-21T00:22:54Z,0.499055,-0.163695,-0.35819,2025-03-21T00:22:54Z
75,262.140313,2.227721,33.63471,44.934557,289.550312,180,2.19451,3,-93.167063,5.257971,2025-03-21T00:22:56Z,-0.251082,-0.97091,-0.027461,2025-03-21T00:22:55Z,0.379203,-0.133504,-0.276563,2025-03-21T00:22:55Z
76,262.367627,2.210312,33.98702,44.93451,289.777627,179.780197,2.172898,3,-93.167063,5.253957,2025-03-21T00:22:57Z,-0.304489,-0.951644,-0.028368,2025-03-21T00:22:56Z,-0.163574,0.059764,-0.248704,2025-03-21T00:22:56Z
77,262.557261,2.219702,36.676156,44.934467,289.967261,179.780197,2.213189,3,-93.167042,4.901876,2025-03-21T00:22:58Z,-0.341943,-0.94476,-0.019039,2025-03-21T00:22:57Z,-0.523446,0.123692,-0.130979,2025-03-21T00:22:57Z
