seconds_elapsed,location_altitude,location_speedAccuracy,location_bearingAccuracy,location_latitude,location_altitudeAboveMeanSeaLevel,location_bearing,location_horizontalAccuracy,location_verticalAccuracy,location_longitude,location_speed,location_local_time,accelerometerUncalibrated_z,accelerometerUncalibrated_y,accelerometerUncalibrated_x,accelerometerUncalibrated_local_time,accelerometer_z,accelerometer_y,accelerometer_x,accelerometer_local_time
0,259.922121,-1,-1,44.941487,287.332121,-1,30.094786,30,-93.167107,-1,2025-03-21T00:04:30Z,-0.21397,-0.969431,0.00683,2025-03-21T00:04:30Z,0.430437,-0.046374,0.137614,2025-03-21T00:04:30Z
1,257.814423,2.085,20.392659,44.941505,285.224422,279.140625,14,7.5,-93.1673,6.57,2025-03-21T00:04:31Z,-0.273051,-0.968809,0.013237,2025-03-21T00:04:31Z,0.026353,-0.072448,-0.007644,2025-03-21T00:04:31Z
2,258.042969,1.51,12.621582,44.941553999999996,285.452969,271.40625,14,3,-93.167424,6.76,2025-03-21T00:04:33Z,-0.278673,-0.955308,0.035869,2025-03-21T00:04:32Z,-0.103567,0.078447,0.107838,2025-03-21T00:04:32Z
3,261.740356,0.84,5.646545,44.941505,289.150356,268.945312,5.381476,4,-93.167537,7.76,2025-03-21T00:04:34Z,-0.258491,-0.961893,0.052357,2025-03-21T00:04:33Z,0.099265,0.003734,0.228214,2025-03-21T00:04:33Z
4,260.765625,0.99,5.346539,44.94151,288.175625,269.296875,3.535534,3,-93.167642,9.63,2025-03-21T00:04:35Z,-0.251355,-0.969682,0.031682,2025-03-21T00:04:34Z,0.112434,-0.048701,0.067234,2025-03-21T00:04:34Z
5,259.831787,0.97,5.095433,44.941515,287.241787,270.069122,3.535534,3,-93.167759,10.19,2025-03-21T00:04:36Z,-0.23707,-0.962478,0.031871,2025-03-21T00:04:35Z,0.233742,0.02211,0.063061,2025-03-21T00:04:35Z
6,258.872192,1.02,5.241966,44.941511,286.282192,270.069122,3.535534,3,-93.167887,10.59,2025-03-21T00:04:36Z,-0.238997,-0.974228,0.019148,2025-03-21T00:04:36Z,0.204593,-0.082862,-0.011873,2025-03-21T00:04:36Z
7,258.953308,1.42,7.519888,44.941505,286.363308,270.069122,3.535534,3,-93.168025,10.42,2025-03-21T00:04:37Z,-0.240419,-0.967393,0.016746,2025-03-21T00:04:37Z,0.1459,-0.006091,0.014371,2025-03-21T00:04:37Z
8,258.956055,0.88,4.4832090000000004,44.941504,286.366055,270.081268,3.535534,3,-93.168174,10.59,2025-03-21T00:04:38Z,-0.250819,-0.962116,0.005984,2025-03-21T00:04:38Z,0.055018,0.039504,-0.070966,2025-03-21T00:04:38Z
9,258.455811,1.24,5.569798,44.941501,285.86581,270.081268,3.535534,3,-93.16833,12.3,2025-03-21T00:04:39Z,-0.254681,-0.969913,0.009066,2025-03-21T00:04:39Z,0.008822,-0.030912,-0.033293,2025-03-21T00:04:39Z
10,258.070557,1,4.144552,44.941497,285.480556,270.081268,3.535534,3,-93.168492,12.9,2025-03-21T00:04:40Z,-0.261908,-0.963757,0.001769,2025-03-21T00:04:40Z,-0.079394,0.031704,-0.075376,2025-03-21T00:04:40Z
11,258.403931,1.43,5.40129,44.941496,285.813931,270.081268,3.535534,3,-93.168651,12.99,2025-03-21T00:04:41Z,-0.272064,-0.958118,-0.001853,2025-03-21T00:04:41Z,-0.181354,0.092952,-0.086821,2025-03-21T00:04:41Z
12,257.436279,0.78,3.671683,44.941494,284.846279,270.081268,3.535534,3,-93.168817,12.99,2025-03-21T00:04:42Z,-0.276436,-0.975283,0.007026,2025-03-21T00:04:42Z,-0.256037,-0.068984,-0.076153,2025-03-21T00:04:42Z
13,257.436293,0.78,7.258975,44.941491,284.846292,270.081268,4.748652,4.029364,-93.168982,12.99,2025-03-21T00:04:43Z,-0.264155,-0.973839,0.015023,2025-03-21T00:04:43Z,-0.248633,-0.031163,-0.025198,2025-03-21T00:04:43Z
14,257.217422,0.308016,7.258975,44.941494,284.627422,270.081268,4.748652,4.029364,-93.169166,13.65,2025-03-21T00:04:44Z,-0.261133,-0.972357,0.012718,2025-03-21T00:04:44Z,-0.213,-0.013049,-0.054049,2025-03-21T00:04:44Z
15,256.924026,0.308017,7.258975,44.941492,284.334026,270.155579,4.748652,4.029364,-93.169343,13.88,2025-03-21T00:04:45Z,-0.263984,-0.958931,0.018541,2025-03-21T00:04:45Z,-0.269486,0.118009,-0.087736,2025-03-21T00:04:45Z
16,256.680436,0.308016,7.258975,44.941494,284.090435,270.155579,4.748652,4.029364,-93.169521,14.09,2025-03-21T00:04:46Z,-0.260608,-0.959586,0.027216,2025-03-21T00:04:46Z,-0.213786,0.113282,-0.065459,2025-03-21T00:04:46Z
17,256.139969,1.42,8.166105,44.941502,283.549969,270.101074,4.748652,4.029364,-93.169702,14.09,2025-03-21T00:04:47Z,-0.263322,-0.968571,0.028914,2025-03-21T00:04:47Z,-0.216354,0.010306,-0.029606,2025-03-21T00:04:47Z
18,255.770646,2.03,11.534908,44.941518,283.180646,270.101074,4.748652,4.029364,-93.169894,14.26,2025-03-21T00:04:48Z,-0.265056,-0.969966,0.035017,2025-03-21T00:04:48Z,-0.236635,-0.006412,-0.023502,2025-03-21T00:04:48Z
19,255.858903,0.75,7.258975,44.941504,283.268903,270.101074,4.748652,4.029364,-93.170085,14.61,2025-03-21T00:04:49Z,-0.261997,-0.955279,0.031338,2025-03-21T00:04:49Z,-0.228382,0.152566,-0.010308,2025-03-21T00:04:49Z
20,255.779985,0.308016,7.258975,44.941507,283.189985,270.101074,4.748652,4.029364,-93.170274,14.77,2025-03-21T00:04:50Z,-0.265957,-0.970074,0.028848,2025-03-21T00:04:50Z,-0.250998,-0.002499,-0.052542,2025-03-21T00:04:50Z
21,255.536699,1.14,7.258975,44.941509,282.946699,270.101074,4.748652,4.029364,-93.170463,14.77,2025-03-21T00:04:51Z,-0.266477,-0.960821,0.034889,2025-03-21T00:04:51Z,-0.242685,0.085988,-0.044393,2025-03-21T00:04:51Z
22,255.410662,0.43,7.258975,44.94151,282.820662,270,4.748652,4.029364,-93.170657,14.81,2025-03-21T00:04:52Z,-0.263422,-0.969354,0.016886,2025-03-21T00:04:52Z,-0.238888,0.01571,-0.047754,2025-03-21T00:04:52Z
23,255.504229,1.17,7.258975,44.941512,282.914229,270.351429,4.748652,4.029364,-93.170841,14.88,2025-03-21T00:04:53Z,-0.252206,-0.945534,0.008028,2025-03-21T00:04:53Z,-0.111652,0.242889,-0.056441,2025-03-21T00:04:53Z
24,255.51015,0.43,7.258975,44.941508,282.92015,269.648302,4.748652,4.029364,-93.171038,15.17,2025-03-21T00:04:54Z,-0.264826,-0.971809,0.027939,2025-03-21T00:04:54Z,-0.16547,-0.03875,0.026626,2025-03-21T00:04:54Z
25,255.124774,0.30802,7.258975,44.941508,282.534774,270.351427,4.748652,4.029364,-93.171227,15.17,2025-03-21T00:04:55Z,-0.25673,-0.961518,0.01774,2025-03-21T00:04:55Z,-0.118692,0.079292,-0.067966,2025-03-21T00:04:55Z
26,254.842181,1.06,7.258975,44.941511,282.252181,270.351426,4.748652,4.029364,-93.171423,15.23,2025-03-21T00:04:56Z,-0.258456,-0.966515,0.017326,2025-03-21T00:04:56Z,-0.105794,0.020347,-0.040259,2025-03-21T00:04:56Z
27,254.742268,0.55,7.258975,44.941509,282.152268,270.052673,4.748652,4.029364,-93.171626,15.63,2025-03-21T00:04:57Z,-0.257342,-0.969928,0.01915,2025-03-21T00:04:57Z,-0.086311,-0.015023,-0.034402,2025-03-21T00:04:57Z
28,254.483296,0.308017,7.258975,44.941512,281.893296,270.052673,4.748652,4.029364,-93.171826,15.76,2025-03-21T00:04:58Z,-0.258711,-0.958843,0.020292,2025-03-21T00:04:58Z,-0.102939,0.091969,-0.010014,2025-03-21T00:04:58Z
29,254.435749,0.308016,7.258975,44.941511,281.845749,270.052673,4.748652,4.029364,-93.172025,15.76,2025-03-21T00:04:59Z,-0.273009,-0.96588,0.028599,2025-03-21T00:04:59Z,-0.191742,0.016139,0.042627,2025-03-21T00:04:59Z
30,254.403828,0.308017,7.258975,44.941509,281.813828,270.068512,4.748652,4.029364,-93.172228,15.84,2025-03-21T00:05:00Z,-0.270947,-0.956831,0.027714,2025-03-21T00:05:00Z,-0.214367,0.112131,0.03747,2025-03-21T00:05:00Z
31,254.223226,0.308017,7.258975,44.94151,281.633226,270.068512,4.748652,4.029364,-93.172436,16.17,2025-03-21T00:05:01Z,-0.289957,-0.95432,0.010141,2025-03-21T00:05:01Z,-0.357263,0.121169,-0.069859,2025-03-21T00:05:01Z
32,254.205587,0.308018,7.258975,44.941508,281.615587,270.068512,4.748652,4.029364,-93.17264,16.17,2025-03-21T00:05:02Z,-0.278058,-0.962658,-0.002728,2025-03-21T00:05:02Z,-0.27449,0.060496,-0.20687,2025-03-21T00:05:02Z
33,254.638756,1.266138,7.258963,44.941509,282.048756,270.068512,2.164221,3,-93.172845,16.012586,2025-03-21T00:05:03Z,-0.299869,-0.955364,-0.001015,2025-03-21T00:05:03Z,-0.411135,0.091079,-0.181837,2025-03-21T00:05:03Z
34,254.446154,1.157137,7.258952,44.941506,281.856154,270.068512,3.429431,3,-93.17306,16.70334,2025-03-21T00:05:04Z,-0.288765,-0.955761,0.013768,2025-03-21T00:05:04Z,-0.309079,0.106443,-0.087112,2025-03-21T00:05:04Z
35,254.419557,1.267185,7.258965,44.941506,281.829557,270.068512,2.861096,3,-93.173252,15.626141,2025-03-21T00:05:05Z,-0.289452,-0.957366,0.002602,2025-03-21T00:05:05Z,-0.353725,0.100128,-0.124473,2025-03-21T00:05:05Z
36,254.434544,0.659739,7.258098,44.941504,281.844544,270.068512,2.255905,3,-93.173438,15.131401,2025-03-21T00:05:06Z,-0.319028,-0.93293,-0.015797,2025-03-21T00:05:06Z,-0.53951,0.305383,-0.249886,2025-03-21T00:05:06Z
37,254.262446,0.648019,7.257945,44.941507,281.672445,270.530574,2.107443,3,-93.173629,14.985045,2025-03-21T00:05:07Z,-0.3542,-0.943178,-0.019768,2025-03-21T00:05:07Z,-0.838569,0.19048,-0.42889,2025-03-21T00:05:07Z
38,253.721949,0.679698,7.256681,44.941508,281.131949,270.547704,2.284301,3,-93.17381,14.408206,2025-03-21T00:05:08Z,-0.334054,-0.938708,-0.090981,2025-03-21T00:05:08Z,-0.631215,0.237931,-1.039241,2025-03-21T00:05:08Z
39,253.630014,0.698952,7.25787,44.941511,281.040014,271.454175,2.133816,3,-93.17398,13.671639,2025-03-21T00:05:09Z,-0.311886,-0.960482,-0.104185,2025-03-21T00:05:09Z,-0.364209,0.002045,-1.247811,2025-03-21T00:05:09Z
40,253.4804,0.722012,7.258658,44.941517,280.8904,273.167193,2.06628,3,-93.174137,12.859014,2025-03-21T00:05:10Z,-0.30414,-0.949249,-0.047048,2025-03-21T00:05:10Z,-0.284475,0.121396,-0.635923,2025-03-21T00:05:10Z
41,253.398149,0.685341,7.258878,44.941557,280.808149,282.14867,2.033493,3,-93.174288,12.498443,2025-03-21T00:05:11Z,-0.305405,-0.945142,-0.007276,2025-03-21T00:05:11Z,-0.330856,0.16174,0.216148,2025-03-21T00:05:11Z
42,253.243697,0.713918,7.25856,44.941583,280.653697,283.189991,2.017391,3,-93.174433,12.113524,2025-03-21T00:05:12Z,-0.293895,-0.960398,-0.001206,2025-03-21T00:05:12Z,-0.239778,0.00865,0.554861,2025-03-21T00:05:12Z
43,252.90999,0.684608,7.257656,44.941603,280.31999,281.22039,2.265272,3,-93.174576,11.737192,2025-03-21T00:05:13Z,-0.277989,-0.966886,0.030536,2025-03-21T00:05:13Z,-0.073707,-0.05874,0.812153,2025-03-21T00:05:13Z
44,252.866611,0.677478,7.258567,44.941622,280.276611,274.214722,2.726211,3,-93.17472,11.682524,2025-03-21T00:05:14Z,-0.278427,-0.952331,0.045938,2025-03-21T00:05:14Z,-0.051857,0.093513,0.877207,2025-03-21T00:05:14Z
45,252.793114,0.678815,7.258891,44.94163,280.203113,271.209137,2.654811,3,-93.174867,11.686388000000001,2025-03-21T00:05:15Z,-0.279077,-0.964082,0.024846,2025-03-21T00:05:15Z,0.011608,-0.054922,0.646162,2025-03-21T00:05:15Z
46,252.276596,0.679383,7.256992,44.941627,279.686595,270,2.347997,3,-93.175017,11.780788,2025-03-21T00:05:16Z,-0.261214,-0.968268,-0.016252,2025-03-21T00:05:16Z,0.148221,-0.079143,0.238713,2025-03-21T00:05:16Z
47,252.182651,0.681284,7.257583,44.941626,279.592651,270,2.592721,3,-93.175171,11.979824,2025-03-21T00:05:17Z,-0.260865,-0.963702,-0.030263,2025-03-21T00:05:17Z,0.140328,-0.034129,0.109494,2025-03-21T00:05:17Z
48,251.953919,0.687213,7.257164,44.941625,279.363919,270,2.59373,3,-93.175324,11.971798,2025-03-21T00:05:18Z,-0.269403,-0.959932,-0.035443,2025-03-21T00:05:18Z,0.061124,0.008533,0.037427,2025-03-21T00:05:18Z
49,251.976702,0.682235,7.258195,44.941632,279.386702,270,2.527085,3,-93.175472,11.777443,2025-03-21T00:05:19Z,-0.283633,-0.95585,-0.030588,2025-03-21T00:05:19Z,-0.063199,0.041,0.02609,2025-03-21T00:05:19Z
50,251.846646,0.676857,7.258387,44.941632,279.256646,270,2.278435,3,-93.175622,11.824231,2025-03-21T00:05:20Z,-0.303456,-0.948012,-0.032045,2025-03-21T00:05:20Z,-0.224782,0.111088,-0.009829,2025-03-21T00:05:20Z
51,251.454705,0.677196,7.256794,44.941626,278.864704,270,2.8611780000000002,3,-93.175773,11.796129,2025-03-21T00:05:21Z,-0.339946,-0.943461,-0.059708,2025-03-21T00:05:21Z,-0.559831,0.147518,-0.223804,2025-03-21T00:05:21Z
52,251.304736,0.680409,7.257501,44.941631,278.714735,270,2.460021,3,-93.17591,11.043732,2025-03-21T00:05:22Z,-0.353353,-0.939879,-0.054623,2025-03-21T00:05:22Z,-0.69398,0.182793,-0.182918,2025-03-21T00:05:22Z
53,250.98895,0.680392,7.254588,44.941633,278.39895,270,2.771046,3,-93.176037,10.340557,2025-03-21T00:05:23Z,-0.339925,-0.941344,-0.050293,2025-03-21T00:05:23Z,-0.52163,0.157648,-0.133916,2025-03-21T00:05:23Z
54,250.726674,0.688454,7.250111,44.941631,278.136674,270,2.565589,3,-93.176153,9.423862,2025-03-21T00:05:24Z,-0.310943,-0.948441,-0.042737,2025-03-21T00:05:24Z,-0.20489,0.078195,-0.053969,2025-03-21T00:05:24Z
55,251.013394,0.673461,7.257708,44.941633,278.423394,270,2.335432,3,-93.176261,8.917686,2025-03-21T00:05:25Z,-0.303999,-0.959255,-0.064126,2025-03-21T00:05:25Z,-0.187417,-0.024745,-0.061607,2025-03-21T00:05:25Z
56,250.497786,0.68972,7.24573,44.941633,277.907786,270,2.219957,3,-93.176364,8.334877,2025-03-21T00:05:26Z,-0.332456,-0.946582,-0.084434,2025-03-21T00:05:26Z,-0.544902,0.118711,-0.206526,2025-03-21T00:05:26Z
57,250.614607,0.844079,9.095588,44.941643,278.024606,269.798828,2.149865,3,-93.176453,7.502513,2025-03-21T00:05:27Z,-0.369202,-0.922437,-0.088884,2025-03-21T00:05:27Z,-0.851738,0.330709,-0.235283,2025-03-21T00:05:27Z
58,250.474362,0.690586,7.880336,44.941637,277.884362,269.798828,2.362952,3,-93.176549,7.076615,2025-03-21T00:05:28Z,-0.312694,-0.948926,-0.079275,2025-03-21T00:05:28Z,-0.243173,0.066214,-0.07278,2025-03-21T00:05:28Z
59,250.334015,0.6952,9.5939,44.941632,277.744015,269.798828,2.405019,3,-93.176616,5.810206,2025-03-21T00:05:29Z,-0.277301,-0.957979,-0.071401,2025-03-21T00:05:29Z,0.06421,-0.019997,0.025848,2025-03-21T00:05:29Z
60,250.280162,0.690252,9.940105,44.941635,277.690162,269.798828,2.719105,3,-93.176689,5.57961,2025-03-21T00:05:31Z,-0.251985,-0.967071,-0.073674,2025-03-21T00:05:30Z,0.320954,-0.116042,0.047197,2025-03-21T00:05:30Z
61,250.657671,0.678159,10.193436,44.941633,278.067671,269.798828,2.7178,3,-93.17676,5.388465,2025-03-21T00:05:32Z,-0.242055,-0.965987,-0.075897,2025-03-21T00:05:31Z,0.417285,-0.098351,-0.007509,2025-03-21T00:05:31Z
62,250.387987,0.69048,9.79218,44.941627,277.797987,269.798828,2.615257,3,-93.176836,5.648223,2025-03-21T00:05:33Z,-0.235307,-0.962951,-0.062343,2025-03-21T00:05:32Z,0.508934,-0.07862,0.117899,2025-03-21T00:05:32Z
