seconds_elapsed,location_altitude,location_speedAccuracy,location_bearingAccuracy,location_latitude,location_altitudeAboveMeanSeaLevel,location_bearing,location_horizontalAccuracy,location_verticalAccuracy,location_longitude,location_speed,location_local_time,accelerometerUncalibrated_z,accelerometerUncalibrated_y,accelerometerUncalibrated_x,accelerometerUncalibrated_local_time,accelerometer_z,accelerometer_y,accelerometer_x,accelerometer_local_time
0,257.758031,-0.3,4.914279,44.934364,285.168031,99.294271,124.150992,5.915444,-93.170874,0.75,2025-03-21T00:12:57Z,-0.202839,-0.988728,-0.180548,2025-03-21T00:12:57Z,-0.10923,-0.063712,-1.803318,2025-03-21T00:12:57Z
1,258.066162,1.24,15.618508,44.934438,285.476162,333.28125,5.204666,4,-93.17106,5.14,2025-03-21T00:12:58Z,-0.086237,-0.988437,-0.094474,2025-03-21T00:12:58Z,0.981759,-0.061769,-0.878642,2025-03-21T00:12:58Z
2,258.006836,0.98,7.858722,44.934509,285.416836,359.91333,3.946495,4,-93.171044,5.14,2025-03-21T00:12:59Z,-0.095625,-1.000285,-0.019041,2025-03-21T00:12:59Z,0.953058,-0.188676,-0.24588,2025-03-21T00:12:59Z
3,258.669312,0.39,2.944093,44.934581,286.079311,359.91333,3.535534,3,-93.171044,6.69,2025-03-21T00:13:00Z,-0.130253,-1.011619,-0.032588,2025-03-21T00:13:00Z,0.57173,-0.286463,-0.380857,2025-03-21T00:13:00Z
4,258.848145,0.17,1.205155,44.934657,286.258144,359.91333,3.535534,3,-93.171044,9.26,2025-03-21T00:13:01Z,-0.135128,-0.990764,0.032605,2025-03-21T00:13:01Z,0.529404,-0.098167,0.163039,2025-03-21T00:13:01Z
5,258.957825,0.07,0.462635,44.934751,286.367825,359.91333,3.535534,3,-93.171044,10.15,2025-03-21T00:13:02Z,-0.171866,-0.978274,0.007161,2025-03-21T00:13:02Z,0.138578,0.052869,-0.032856,2025-03-21T00:13:02Z
6,257.578796,1.64,7.668549,44.934838,284.988796,359.91333,3.535534,3,-93.171044,9.8,2025-03-21T00:13:03Z,-0.187253,-0.99075,0.005557,2025-03-21T00:13:03Z,-0.07433,-0.068901,-0.045393,2025-03-21T00:13:03Z
7,258.080566,0.79,4.72666,44.934939,285.490566,359.91333,3.535534,3,-93.171045,10.15,2025-03-21T00:13:04Z,-0.223704,-0.978704,0.022113,2025-03-21T00:13:04Z,-0.428255,0.047875,0.027504,2025-03-21T00:13:04Z
8,258.273193,0.22,1.360979,44.935032,285.683193,359.91333,3.535534,3,-93.171045,10.53,2025-03-21T00:13:05Z,-0.232759,-0.969793,-2.94e-4,2025-03-21T00:13:05Z,-0.497104,0.127888,-0.268641,2025-03-21T00:13:05Z
9,258.580444,0.11,0.751845,44.935129,285.990444,359.91333,3.535534,3,-93.171045,10.19,2025-03-21T00:13:06Z,-0.268831,-0.951404,-0.002471,2025-03-21T00:13:06Z,-0.806787,0.296624,-0.146523,2025-03-21T00:13:06Z
10,259.157593,0.17,1.162484,44.935219,286.567593,359.91333,3.535534,3,-93.171045,10.19,2025-03-21T00:13:07Z,-0.28916,-0.953242,-0.002126,2025-03-21T00:13:07Z,-0.960387,0.273067,-0.157803,2025-03-21T00:13:07Z
11,259.00354,0.1,0.713016,44.935304,286.41354,359.91333,3.535534,3,-93.171045,9.87,2025-03-21T00:13:08Z,-0.274727,-0.95621,0.025527,2025-03-21T00:13:08Z,-0.684158,0.213531,0.075223,2025-03-21T00:13:08Z
12,259.079346,0.49,3.530904,44.935386,286.489346,359.91333,3.535534,3,-93.171046,9.39,2025-03-21T00:13:09Z,-0.28163,-0.939935,0.031939,2025-03-21T00:13:09Z,-0.649052,0.380114,0.178423,2025-03-21T00:13:09Z
13,259.079353,0.49,7.258975,44.935471,286.489353,359.91333,4.748652,4.029364,-93.171046,9.39,2025-03-21T00:13:10Z,-0.275874,-0.961682,0.01086,2025-03-21T00:13:10Z,-0.666444,0.146026,0.074282,2025-03-21T00:13:10Z
14,259.253669,0.308016,7.258975,44.93555,286.663669,0.248368,4.748652,4.029364,-93.171046,9.12,2025-03-21T00:13:11Z,-0.265787,-0.966174,-0.037641,2025-03-21T00:13:11Z,-0.541914,0.107935,-0.308102,2025-03-21T00:13:11Z
15,259.184638,1.91,16.659244,44.935631,286.594638,0.248368,4.748652,4.029364,-93.171045,9.29,2025-03-21T00:13:12Z,-0.271238,-0.967286,-0.012653,2025-03-21T00:13:12Z,-0.568148,0.105063,-0.049144,2025-03-21T00:13:12Z
16,259.496155,1.13,6.442114,44.935701,286.906155,0.248368,3.535534,3,-93.171045,9.29,2025-03-21T00:13:13Z,-0.269094,-0.956158,-0.025871,2025-03-21T00:13:13Z,-0.485056,0.190244,-0.106739,2025-03-21T00:13:13Z
17,259.496162,1.13,9.855992,44.935785,286.906161,0.248368,4.748652,4.029364,-93.171044,9.29,2025-03-21T00:13:14Z,-0.261416,-0.964019,-0.020952,2025-03-21T00:13:14Z,-0.341293,0.095748,-0.063231,2025-03-21T00:13:14Z
18,259.12177,0.52,7.258975,44.935847,286.53177,0.248368,4.748652,4.029364,-93.171044,8.16,2025-03-21T00:13:15Z,-0.261743,-0.966108,-0.026794,2025-03-21T00:13:15Z,-0.378408,0.070698,-0.074274,2025-03-21T00:13:15Z
19,258.491704,0.308016,7.258975,44.935914,285.901704,0.248368,4.748652,4.029364,-93.171044,7.86,2025-03-21T00:13:16Z,-0.241568,-0.969701,-0.020265,2025-03-21T00:13:16Z,-0.181927,0.050463,-0.013865,2025-03-21T00:13:16Z
20,258.287236,0.74,7.523346,44.935992,285.697236,359.387695,4.748652,4.029364,-93.171043,7.97,2025-03-21T00:13:17Z,-0.241633,-0.962686,-0.007167,2025-03-21T00:13:17Z,-0.104172,0.106402,0.116675,2025-03-21T00:13:17Z
21,258.070928,1.92,19.793213,44.936054,285.480928,359.387695,4.748652,4.029364,-93.171044,7.86,2025-03-21T00:13:18Z,-0.247522,-0.979131,-0.020546,2025-03-21T00:13:18Z,-0.147004,-0.057855,-0.007433,2025-03-21T00:13:18Z
22,258.333378,1.96,21.666549,44.936119,285.743378,357.458191,4.748652,4.029364,-93.171047,7.33,2025-03-21T00:13:19Z,-0.26694,-0.962711,-0.005521,2025-03-21T00:13:19Z,-0.303723,0.075747,0.054496,2025-03-21T00:13:19Z
23,258.936529,0.58,7.258975,44.936205,286.346529,0,4.748652,4.029364,-93.17105,8.31,2025-03-21T00:13:20Z,-0.265862,-0.955974,-0.004288,2025-03-21T00:13:20Z,-0.204473,0.154596,0.115765,2025-03-21T00:13:20Z
24,259.263677,1.33,12.968455,44.936265,286.673677,0,4.748652,4.029364,-93.17105,8.31,2025-03-21T00:13:21Z,-0.270027,-0.966451,-0.005045,2025-03-21T00:13:21Z,-0.369322,0.042221,0.090262,2025-03-21T00:13:21Z
25,258.886845,0.54,7.258975,44.936329,286.296845,0,4.748652,4.029364,-93.17105,7.53,2025-03-21T00:13:22Z,-0.316767,-0.945403,-0.015542,2025-03-21T00:13:22Z,-0.679769,0.224271,0.003796,2025-03-21T00:13:22Z
26,258.940434,0.308016,7.258975,44.936391,286.350434,0,4.748652,4.029364,-93.17105,7.43,2025-03-21T00:13:23Z,-0.343594,-0.945941,0.071076,2025-03-21T00:13:23Z,-0.890259,0.216342,0.774441,2025-03-21T00:13:23Z
27,258.55939,0.308016,7.258975,44.936444,285.96939,355.084808,4.748652,4.029364,-93.171056,6.24,2025-03-21T00:13:24Z,-0.360989,-0.934427,0.179753,2025-03-21T00:13:24Z,-1.020552,0.316477,1.886753,2025-03-21T00:13:24Z
28,258.863528,0.55,7.258975,44.936508,286.273528,334.52417,4.748652,4.029364,-93.171094,6.24,2025-03-21T00:13:25Z,-0.374622,-0.949629,0.240121,2025-03-21T00:13:25Z,-1.126723,0.157424,2.411926,2025-03-21T00:13:25Z
29,258.400333,0.55,7.329878,44.936544,285.810332,315.161285,4.748652,4.029364,-93.171162,6.08,2025-03-21T00:13:26Z,-0.313024,-0.938215,0.195369,2025-03-21T00:13:26Z,-0.602905,0.286997,1.755231,2025-03-21T00:13:26Z
30,258.720706,0.48,7.258975,44.936509,286.130706,271.219482,4.748652,4.029364,-93.171292,6.08,2025-03-21T00:13:27Z,-0.249277,-0.965674,0.092065,2025-03-21T00:13:27Z,0.058581,0.009923,0.597208,2025-03-21T00:13:27Z
31,258.492313,0.31,7.258975,44.936523,285.902313,271.219482,4.748652,4.029364,-93.171373,6.38,2025-03-21T00:13:28Z,-0.228758,-0.970895,0.011086,2025-03-21T00:13:28Z,0.202372,-0.029331,-0.275853,2025-03-21T00:13:28Z
32,258.17786,0.308016,7.258975,44.936523,285.58786,269.578369,4.748652,4.029364,-93.171459,6.64,2025-03-21T00:13:29Z,-0.223273,-0.971687,0.004102,2025-03-21T00:13:29Z,0.197224,-0.034113,-0.409818,2025-03-21T00:13:29Z
33,259.219982,1.268422,15.236577,44.936527,286.629982,269.578369,2.264451,3,-93.171534,6.742341,2025-03-21T00:13:30Z,-0.221235,-0.975983,0.006578,2025-03-21T00:13:30Z,0.223068,-0.073806,-0.431159,2025-03-21T00:13:30Z
34,258.962379,1.271552,14.358178,44.93653,286.372379,269.578369,2.124978,3,-93.171631,7.17141,2025-03-21T00:13:31Z,-0.231363,-0.976618,0.01101,2025-03-21T00:13:31Z,0.057572,-0.066559,-0.463244,2025-03-21T00:13:31Z
35,258.744777,1.272899,13.506785,44.936531,286.154777,269.578369,2.062489,3,-93.171739,7.631392,2025-03-21T00:13:32Z,-0.26139,-0.958818,0.007125,2025-03-21T00:13:32Z,-0.19782,0.093428,-0.564331,2025-03-21T00:13:32Z
36,258.377222,0.670966,7.246018,44.936523,285.787222,269.578369,2.0385,3,-93.171842,7.830569,2025-03-21T00:13:33Z,-0.272545,-0.960624,0.019892,2025-03-21T00:13:33Z,-0.313438,0.078307,-0.410043,2025-03-21T00:13:33Z
37,258.279499,0.671675,7.252791,44.936523,285.689499,269.662048,2.026199,3,-93.171948,8.015741,2025-03-21T00:13:34Z,-0.282463,-0.962915,0.019881,2025-03-21T00:13:34Z,-0.367723,0.048519,-0.430937,2025-03-21T00:13:34Z
38,257.979631,0.668004,7.254197,44.936525,285.389631,269.599121,2.230329,3,-93.172045,7.85634,2025-03-21T00:13:35Z,-0.282009,-0.947565,0.018706,2025-03-21T00:13:35Z,-0.35804,0.190386,-0.452476,2025-03-21T00:13:35Z
39,257.725729,0.664359,7.25466,44.936526,285.135729,269.599121,2.156198,3,-93.172146,7.80529,2025-03-21T00:13:36Z,-0.332867,-0.954543,0.00333,2025-03-21T00:13:36Z,-0.814233,0.123089,-0.556378,2025-03-21T00:13:36Z
40,257.655298,0.680185,7.658159,44.936529,285.065298,268.258789,2.107772,3,-93.172235,7.189755,2025-03-21T00:13:37Z,-0.384069,-0.936946,-0.003708,2025-03-21T00:13:37Z,-1.278755,0.273005,-0.599925,2025-03-21T00:13:37Z
41,257.333571,0.675599,9.091656,44.936526,284.743571,268.258789,2.077307,3,-93.172306,5.966505,2025-03-21T00:13:38Z,-0.41991,-0.919571,-0.021046,2025-03-21T00:13:38Z,-1.54149,0.436252,-0.735292,2025-03-21T00:13:38Z
42,257.600523,0.671559,11.625012,44.936527,285.010523,268.258789,2.134532,3,-93.172362,4.681123,2025-03-21T00:13:39Z,-0.441218,-0.91809,-0.03505,2025-03-21T00:13:39Z,-1.62241,0.409536,-0.766525,2025-03-21T00:13:39Z
43,257.236704,0.67546,18.503232,44.936528,284.646703,268.258789,2.123938,3,-93.172392,2.919954,2025-03-21T00:13:40Z,-0.424637,-0.927834,-0.019655,2025-03-21T00:13:40Z,-1.460737,0.313722,-0.611174,2025-03-21T00:13:40Z
44,257.380664,0.831077,39.490781,44.936529,284.790664,268.258789,2.18161,3,-93.172409,1.693527,2025-03-21T00:13:41Z,-0.300502,-0.951793,0.008556,2025-03-21T00:13:41Z,-0.273062,0.094042,-0.324886,2025-03-21T00:13:41Z
45,257.515016,0.779316,62.300534,44.93653,284.925016,268.258789,2.404091,3,-93.172411,0.998748,2025-03-21T00:13:42Z,-0.19616,-0.979553,0.017575,2025-03-21T00:13:42Z,0.719112,-0.168181,-0.174069,2025-03-21T00:13:42Z
46,257.405056,0.728477,32.289331,44.93653,284.815055,268.258789,2.784047,3,-93.17244,1.683394,2025-03-21T00:13:43Z,-0.140008,-0.999511,-0.030356,2025-03-21T00:13:43Z,1.23271,-0.351082,-0.538365,2025-03-21T00:13:43Z
47,258.335771,0.736303,18.319374,44.93653,285.745771,268.258789,2.804977,3,-93.172495,3.200588,2025-03-21T00:13:44Z,-0.181743,-0.985292,-0.116946,2025-03-21T00:13:44Z,0.807425,-0.202994,-1.194863,2025-03-21T00:13:44Z
48,258.231084,0.69921,20.550107,44.93653,285.641084,298.783686,2.754494,3,-93.172519,2.753116,2025-03-21T00:13:45Z,-0.215766,-0.975971,-0.187297,2025-03-21T00:13:45Z,0.374114,-0.093679,-1.752251,2025-03-21T00:13:45Z
49,257.344811,0.698368,19.594604,44.936571,284.754811,342.779785,2.950405,3,-93.172583,2.694461,2025-03-21T00:13:46Z,-0.244243,-0.971063,-0.240317,2025-03-21T00:13:46Z,-0.001092,-0.00992,-2.126418,2025-03-21T00:13:46Z
50,257.892268,0.693135,18.101226,44.936604,285.302268,342.779785,6.990995,3,-93.172597,3.104148,2025-03-21T00:13:47Z,-0.130447,-1.004459,-0.208361,2025-03-21T00:13:47Z,0.79371,-0.262816,-1.913471,2025-03-21T00:13:47Z
51,258.094514,0.690223,15.737933,44.936626,285.504513,27.498598,10.937768,3,-93.172607,3.538001,2025-03-21T00:13:48Z,-0.137215,-0.992441,-0.009715,2025-03-21T00:13:48Z,0.713553,-0.148683,-0.333004,2025-03-21T00:13:48Z
52,257.059388,0.75689,10.755126,44.936674,284.469388,48.820541,3.166742,3,-93.172375,5.626349,2025-03-21T00:13:49Z,-0.172404,-0.98839,0.06963,2025-03-21T00:13:49Z,0.306942,-0.107955,0.365376,2025-03-21T00:13:49Z
53,257.576648,0.707077,8.399558,44.936734,284.986648,48.820541,3.162701,3,-93.172313,6.821589,2025-03-21T00:13:50Z,-0.18111,-0.972841,0.057579,2025-03-21T00:13:50Z,0.228612,0.056661,0.385005,2025-03-21T00:13:50Z
54,257.531834,0.686224,7.658366,44.936779,284.941834,47.899132,2.950466,3,-93.172237,7.259633,2025-03-21T00:13:51Z,-0.245898,-0.96494,0.050711,2025-03-21T00:13:51Z,-0.460044,0.153419,0.325449,2025-03-21T00:13:51Z
55,257.669593,0.691283,7.734761,44.936826,285.079593,47.899132,2.722992,3,-93.172168,7.242949,2025-03-21T00:13:52Z,-0.261598,-0.975344,0.046582,2025-03-21T00:13:52Z,-0.602233,0.039023,0.399404,2025-03-21T00:13:52Z
56,257.24176,0.695708,8.215617,44.936856,284.65176,45.607426,2.5452,3,-93.172092,6.835356,2025-03-21T00:13:53Z,-0.225634,-0.96392,0.031063,2025-03-21T00:13:53Z,-0.342191,0.172015,0.282538,2025-03-21T00:13:53Z
57,257.659353,0.690618,7.953169,44.936906,285.069353,42.775837,2.519679,3,-93.172025,7.036676,2025-03-21T00:13:54Z,-0.222288,-0.968093,0.029635,2025-03-21T00:13:54Z,-0.296102,0.12859400000000001,0.300433,2025-03-21T00:13:54Z
58,257.484714,0.69517,7.626629,44.93696,284.894714,39.982632,2.381773,3,-93.171958,7.374994,2025-03-21T00:13:55Z,-0.243898,-0.983627,0.063438,2025-03-21T00:13:55Z,-0.465799,-0.030251,0.472886,2025-03-21T00:13:55Z
59,257.740074,0.692307,7.559256,44.937013,285.150074,36.955284,2.283321,3,-93.171899,7.422343,2025-03-21T00:13:56Z,-0.235357,-0.959374,0.033176,2025-03-21T00:13:56Z,-0.399145,0.209664,0.280901,2025-03-21T00:13:56Z
60,257.571034,0.692594,7.338284,44.93707,284.981033,36.54425,2.206716,3,-93.171839,7.640364,2025-03-21T00:13:57Z,-0.241726,-0.977987,0.053742,2025-03-21T00:13:57Z,-0.355119,0.005971,0.389957,2025-03-21T00:13:57Z
61,257.837879,0.693459,7.302014,44.937128,285.247878,34.094765,2.149995,3,-93.171783,7.696625,2025-03-21T00:13:58Z,-0.245027,-0.963467,0.049588,2025-03-21T00:13:58Z,-0.472265,0.159046,0.327489,2025-03-21T00:13:58Z
62,257.963534,0.701157,7.258914,44.9372,285.373534,32.37991,2.106123,3,-93.171745,7.833975,2025-03-21T00:13:59Z,-0.229622,-0.962949,0.036119,2025-03-21T00:13:59Z,-0.317233,0.179157,0.225092,2025-03-21T00:13:59Z
63,257.866654,0.739842,8.13834,44.937252,285.276654,29.047937,2.074152,3,-93.171694,7.356171,2025-03-21T00:14:00Z,-0.25328,-0.959698,0.043461,2025-03-21T00:14:00Z,-0.40823,0.166222,0.175994,2025-03-21T00:14:00Z
64,258.41579,0.715407,7.610016,44.937321,285.82579,27.550533,2.049707,3,-93.171648,7.621463,2025-03-21T00:14:01Z,-0.272162,-0.957905,0.075055,2025-03-21T00:14:01Z,-0.532849,0.168417,0.394955,2025-03-21T00:14:01Z
65,258.086294,0.712046,7.806199,44.93738,285.496294,23.537567,2.073226,3,-93.171606,7.382816,2025-03-21T00:14:02Z,-0.258447,-0.97286,0.075195,2025-03-21T00:14:02Z,-0.399863,0.019502,0.351878,2025-03-21T00:14:02Z
66,258.113505,0.707121,7.622162,44.937439,285.523505,23.537567,2.050462,3,-93.171549,7.503098,2025-03-21T00:14:03Z,-0.217789,-0.977135,0.077205,2025-03-21T00:14:03Z,-0.006952,-0.021141,0.395145,2025-03-21T00:14:03Z
67,258.525703,0.691863,7.258821,44.937515,285.935703,17.951561,2.054307,3,-93.171533,7.981278,2025-03-21T00:14:04Z,-0.234006,-0.969454,0.088322,2025-03-21T00:14:04Z,-0.157976,0.064331,0.469397,2025-03-21T00:14:04Z
68,258.854825,0.771807,8.352614,44.937576,286.264825,16.142191,2.054307,3,-93.171507,7.482327,2025-03-21T00:14:05Z,-0.23385,-0.963624,0.099815,2025-03-21T00:14:05Z,-0.135447,0.108387,0.687082,2025-03-21T00:14:05Z
69,259.499163,0.892872,9.918031,44.937637,286.909163,16.142191,2.118667,3,-93.171473,7.270779,2025-03-21T00:14:06Z,-0.255102,-0.968507,0.055851,2025-03-21T00:14:06Z,-0.357652,0.061666,0.178564,2025-03-21T00:14:06Z
70,258.69339,0.803345,8.971104,44.937706,286.10339,12.480719,2.073494,3,-93.171444,7.248096,2025-03-21T00:14:07Z,-0.268977,-0.963397,0.015439,2025-03-21T00:14:07Z,-0.49156,0.089673,-0.15949,2025-03-21T00:14:07Z
71,258.983884,0.753436,7.68311,44.937792,286.393884,11.058351,2.047467,3,-93.17142,7.943742,2025-03-21T00:14:08Z,-0.216814,-0.959669,0.027053,2025-03-21T00:14:08Z,0.009899,0.188589,0.003629,2025-03-21T00:14:08Z
72,259.002508,0.721332,7.258952,44.937875,286.412508,8.879081,2.031321,3,-93.1714,8.609858,2025-03-21T00:14:09Z,-0.242105,-0.978133,0.04287,2025-03-21T00:14:09Z,-0.131297,-0.049869,0.171947,2025-03-21T00:14:09Z
73,259.260329,0.714249,7.25781,44.937948,286.670329,6.692426,2.02076,3,-93.171388,8.310942,2025-03-21T00:14:10Z,-0.240589,-0.969397,0.068543,2025-03-21T00:14:10Z,-0.153824,0.047274,0.375016,2025-03-21T00:14:10Z
74,259.755883,0.703731,7.254109,44.938026,287.165883,1.070817,2.013781,3,-93.171386,8.289787,2025-03-21T00:14:11Z,-0.21732,-0.968535,0.043064,2025-03-21T00:14:11Z,0.044163,0.061118,0.106593,2025-03-21T00:14:11Z
75,259.709252,0.726714,7.258622,44.938126,287.119252,358.442657,2.021902,3,-93.171388,9.712664,2025-03-21T00:14:12Z,-0.18811,-0.965406,0.067709,2025-03-21T00:14:12Z,0.490253,0.044906,0.287522,2025-03-21T00:14:12Z
76,259.003692,0.728089,7.254023,44.938195,286.413692,355.715881,2.014602,3,-93.171394,9.015085,2025-03-21T00:14:13Z,-0.240123,-0.959934,0.06857,2025-03-21T00:14:13Z,0.083248,0.068083,0.233512,2025-03-21T00:14:13Z
77,258.249714,0.737791,7.243863,44.938278,285.659714,354.090179,2.339672,3,-93.17143,9.134654,2025-03-21T00:14:14Z,-0.248976,-0.966988,0.054303,2025-03-21T00:14:14Z,0.042035,-0.014827,0.241999,2025-03-21T00:14:14Z
78,258.56877,0.708566,7.257811,44.938384,285.97877,357.279907,2.310367,3,-93.171437,10.256956,2025-03-21T00:14:15Z,-0.264065,-0.951616,0.022342,2025-03-21T00:14:15Z,-0.149822,0.177129,-0.035186,2025-03-21T00:14:15Z
79,258.304326,0.713299,7.25618,44.938472,285.714325,358.65451,2.43143,3,-93.171428,10.137183,2025-03-21T00:14:16Z,-0.27143,-0.958228,-0.017131,2025-03-21T00:14:16Z,-0.175784,0.074139,-0.305625,2025-03-21T00:14:16Z
80,257.907844,0.723104,7.253458,44.938563,285.317844,358.65451,2.325283,3,-93.171431,10.142204,2025-03-21T00:14:17Z,-0.273915,-0.955653,0.009491,2025-03-21T00:14:17Z,-0.199243,0.123006,-0.157875,2025-03-21T00:14:17Z
81,257.942146,0.750572,7.258038,44.938647,285.352145,357.329224,2.205917,3,-93.171454,9.64044,2025-03-21T00:14:18Z,-0.308108,-0.957661,-0.005937,2025-03-21T00:14:18Z,-0.534237,0.086705,-0.269311,2025-03-21T00:14:18Z
82,257.737593,0.712051,7.258567,44.938736,285.147593,357.039825,2.116927,3,-93.171462,9.490499,2025-03-21T00:14:19Z,-0.337814,-0.950635,-0.042466,2025-03-21T00:14:19Z,-0.868104,0.17899,-0.537891,2025-03-21T00:14:19Z
83,257.335874,0.708182,7.255178,44.938814,284.745874,357.039825,2.068198,3,-93.171468,8.737028,2025-03-21T00:14:20Z,-0.315847,-0.947566,-0.078549,2025-03-21T00:14:20Z,-0.575856,0.168077,-0.835059,2025-03-21T00:14:20Z
84,256.802154,0.722608,7.250358,44.93888,284.212154,356.274963,2.050099,3,-93.171467,8.10546,2025-03-21T00:14:21Z,-0.269562,-0.956662,-0.013914,2025-03-21T00:14:21Z,-0.115798,0.104773,-0.250474,2025-03-21T00:14:21Z
85,256.542406,0.838604,7.391866,44.938969,283.952406,356.274963,2.378609,3,-93.171452,9.107225,2025-03-21T00:14:22Z,-0.235831,-0.988326,0.019606,2025-03-21T00:14:22Z,0.195645,-0.199187,-0.009866,2025-03-21T00:14:22Z
86,257.027134,0.776687,7.258827,44.939044,284.437134,356.274963,3.659033,3,-93.171464,8.821227,2025-03-21T00:14:23Z,-0.188017,-0.969956,0.003521,2025-03-21T00:14:23Z,0.583474,-0.030062,-0.075587,2025-03-21T00:14:23Z
87,256.945632,0.747921,7.25531,44.939122,284.355632,358.457123,4.068291,3.121515,-93.171467,8.862086,2025-03-21T00:14:24Z,-0.232322,-0.984574,0.003761,2025-03-21T00:14:24Z,0.30269,-0.205783,-0.137468,2025-03-21T00:14:24Z
88,256.864282,0.720144,7.257592,44.939205,284.274282,359.175842,3.853231,3,-93.171467,8.984426,2025-03-21T00:14:25Z,-0.24113,-0.954339,0.066945,2025-03-21T00:14:25Z,0.194788,0.106099,0.181423,2025-03-21T00:14:25Z
89,256.737008,0.730822,7.25675,44.939294,284.147008,359.175842,3.656282,3,-93.171466,9.400414,2025-03-21T00:14:26Z,-0.255422,-0.977501,0.040296,2025-03-21T00:14:26Z,0.017842,-0.115408,-0.046366,2025-03-21T00:14:26Z
90,256.609481,0.729735,7.255278,44.939381,284.01948,359.175842,3.03324,3,-93.17147,9.532147,2025-03-21T00:14:27Z,-0.287361,-0.955614,0.035745,2025-03-21T00:14:27Z,-0.30675,0.091153,-0.064309,2025-03-21T00:14:27Z
91,256.566526,0.733016,7.257522,44.939469,283.976526,0.331686,2.893781,3,-93.171471,9.705974,2025-03-21T00:14:28Z,-0.261341,-0.956113,0.027517,2025-03-21T00:14:28Z,-0.109327,0.116852,-0.044248,2025-03-21T00:14:28Z
92,256.382724,0.727022,7.248846,44.939547,283.792724,0.331686,2.743481,3,-93.171475,9.189444,2025-03-21T00:14:29Z,-0.271044,-0.961391,0.017107,2025-03-21T00:14:29Z,-0.185952,0.053908,-0.119742,2025-03-21T00:14:29Z
93,256.589385,0.699141,7.256724,44.939632,283.999385,0,2.467303,3,-93.171475,9.239901,2025-03-21T00:14:31Z,-0.293579,-0.9554,0.01174,2025-03-21T00:14:30Z,-0.385426,0.108765,-0.170923,2025-03-21T00:14:30Z
94,256.857267,0.681561,7.258974,44.939714,284.267267,0,2.294729,3,-93.171477,9.059013,2025-03-21T00:14:32Z,-0.340412,-0.938329,-0.001642,2025-03-21T00:14:31Z,-0.810938,0.268972,-0.301478,2025-03-21T00:14:31Z
95,256.847494,0.676308,7.258874,44.939782,284.257493,0,2.195356,3,-93.171478,8.206454,2025-03-21T00:14:33Z,-0.375191,-0.940919,-0.001786,2025-03-21T00:14:32Z,-1.109831,0.196241,-0.309926,2025-03-21T00:14:32Z
96,256.740762,0.684721,7.780727,44.939842,284.150762,0,2.180875,3,-93.171477,7.127557,2025-03-21T00:14:34Z,-0.341228,-0.949919,0.005547,2025-03-21T00:14:33Z,-0.761696,0.176268,-0.119922,2025-03-21T00:14:33Z
97,256.834347,0.690167,9.193732,44.93989,284.244346,0.76646,2.132706,3,-93.171479,6.082807,2025-03-21T00:14:35Z,-0.342016,-0.938143,0.003973,2025-03-21T00:14:34Z,-0.688883,0.235861,-0.133031,2025-03-21T00:14:34Z
98,257.392646,0.699416,10.255932,44.93994,284.802646,0.76646,2.34147,3,-93.171478,5.485133,2025-03-21T00:14:36Z,-0.387615,-0.92826,-0.00959,2025-03-21T00:14:35Z,-1.023511,0.302344,-0.229141,2025-03-21T00:14:35Z
99,256.788124,0.696925,14.39436,44.939965,284.198124,0.76646,2.438322,3,-93.171478,3.866454,2025-03-21T00:14:37Z,-0.399681,-0.93016,-0.020741,2025-03-21T00:14:36Z,-1.106682,0.274854,-0.299666,2025-03-21T00:14:36Z
100,256.902237,0.699097,22.925206,44.939982,284.312237,0.76646,2.641912,3,-93.171481,2.462021,2025-03-21T00:14:38Z,-0.376507,-0.943108,-0.036105,2025-03-21T00:14:37Z,-0.929812,0.158466,-0.30684,2025-03-21T00:14:37Z
101,257.295532,0.84079,32.942646,44.939998,284.705532,0.76646,2.588194,3,-93.171484,1.791579,2025-03-21T00:14:39Z,-0.339433,-0.941924,-0.0204,2025-03-21T00:14:38Z,-0.515616,0.159472,-0.137455,2025-03-21T00:14:38Z
102,257.146953,0.852619,113.091054,44.939993,284.556952,0.76646,2.713946,3,-93.171486,0.464909,2025-03-21T00:14:40Z,-0.283809,-0.959647,-0.011462,2025-03-21T00:14:39Z,0.023207,-0.016377,-0.006144,2025-03-21T00:14:39Z
103,257.308091,0.984481,180,44.939991,284.71809,0.76646,2.756115,3,-93.171488,0.206532,2025-03-21T00:14:41Z,-0.25277,-0.967405,-0.003914,2025-03-21T00:14:40Z,0.345617,-0.096763,0.072187,2025-03-21T00:14:40Z
104,257.228087,0.962296,180,44.93999,284.638087,0.76646,2.993916,3,-93.171491,0.100295,2025-03-21T00:14:42Z,-0.252444,-0.967066,-0.003523,2025-03-21T00:14:41Z,0.363664,-0.096577,0.080145,2025-03-21T00:14:41Z
105,257.159976,0.962615,180,44.939988,284.569976,0.76646,3.132516,3,-93.171492,0.048025,2025-03-21T00:14:43Z,-0.200898,-0.979173,0.011377,2025-03-21T00:14:42Z,0.850411,-0.210594,0.234016,2025-03-21T00:14:42Z
106,257.321908,0.932199,141.177968,44.939995,284.731908,0.76646,3.115391,3,-93.171494,0.52576,2025-03-21T00:14:44Z,-0.048129,-1.021131,0.050805,2025-03-21T00:14:43Z,2.253758,-0.591588,0.638665,2025-03-21T00:14:43Z
107,257.225442,0.70324,22.600347,44.940024,284.635442,0.76646,3.075971,3,-93.171496,2.517215,2025-03-21T00:14:45Z,-0.070542,-1.018947,0.053529,2025-03-21T00:14:44Z,1.783173,-0.50443,0.562747,2025-03-21T00:14:44Z
108,257.377844,0.687997,13.368244,44.940067,284.787844,0.76646,3.041862,3,-93.171476,4.160757,2025-03-21T00:14:46Z,-0.101045,-0.986386,0.028442,2025-03-21T00:14:45Z,1.264409,-0.116542,0.335252,2025-03-21T00:14:45Z
109,257.272215,0.680018,10.533627,44.940118,284.682215,0.76646,3.065094,3,-93.171475,5.230716,2025-03-21T00:14:47Z,-0.156163,-0.969873,0.009402,2025-03-21T00:14:46Z,0.879095,-0.026917,0.164285,2025-03-21T00:14:46Z
110,257.155212,0.677813,8.828018,44.940179,284.565212,0.792724,3.023863,3,-93.171473,6.199286,2025-03-21T00:14:48Z,-0.199754,-0.999479,-0.004964,2025-03-21T00:14:47Z,0.711147,-0.350109,0.047474,2025-03-21T00:14:47Z
111,257.013179,0.686801,8.102129,44.940241,284.423179,0.792724,3.029893,3,-93.171472,6.868555,2025-03-21T00:14:49Z,-0.1659,-0.991876,-0.044453,2025-03-21T00:14:48Z,0.577751,-0.188014,-0.433712,2025-03-21T00:14:48Z
112,256.896222,0.685234,7.3841850000000004,44.94031,284.306222,2.715546,3.017302,3,-93.171467,7.520238,2025-03-21T00:14:50Z,-0.135366,-0.988052,-0.12506,2025-03-21T00:14:49Z,0.764094,-0.138431,-1.021877,2025-03-21T00:14:49Z
113,257.174311,0.691089,7.257605,44.940379,284.584311,11.28839,4.598653,3,-93.171445,8.197158,2025-03-21T00:14:51Z,-0.148504,-0.983263,-0.135705,2025-03-21T00:14:50Z,0.630571,-0.038777,-1.035236,2025-03-21T00:14:50Z
114,257.114538,0.69184,7.258958,44.940454,284.524538,18.488359,4.911542,3,-93.171411,8.927769,2025-03-21T00:14:52Z,-0.150439,-0.989439,-0.133206,2025-03-21T00:14:51Z,0.542514,-0.123306,-1.136491,2025-03-21T00:14:51Z
115,256.961585,0.680575,7.258876,44.940528,284.371585,26.623276,3.935895,3.088439,-93.17136,9.396944,2025-03-21T00:14:53Z,-0.212093,-0.978033,-0.149724,2025-03-21T00:14:52Z,0.020348,0.005991,-1.350021,2025-03-21T00:14:52Z
116,256.853003,0.686533,7.258798,44.940598,284.263003,30.51215,3.791288,3,-93.171302,9.3144,2025-03-21T00:14:54Z,-0.245311,-0.966757,-0.123038,2025-03-21T00:14:53Z,-0.380996,0.112764,-1.146777,2025-03-21T00:14:53Z
117,256.359758,0.712715,7.258284,44.940668,283.769758,38.757156,3.450814,3,-93.171227,9.63967,2025-03-21T00:14:55Z,-0.24158,-0.97233,-0.111125,2025-03-21T00:14:54Z,-0.413726,0.078384,-1.043951,2025-03-21T00:14:54Z
118,256.539101,0.712446,7.258799,44.940709,283.9491,51.640442,3.032537,3,-93.171152,8.8363409999999991,2025-03-21T00:14:56Z,-0.245882,-0.974699,-0.076878,2025-03-21T00:14:55Z,-0.445431,0.041137,-0.710789,2025-03-21T00:14:55Z
119,256.613285,0.683908,7.258827,44.940752,284.023285,53.995579,2.666095,3,-93.171059,8.737748,2025-03-21T00:14:57Z,-0.232774,-0.955813,-0.037055,2025-03-21T00:14:56Z,-0.315869,0.238153,-0.24793,2025-03-21T00:14:56Z
120,256.429682,0.687809,7.258562,44.940798,283.839682,53.995579,3.847465,3,-93.17097,8.616453,2025-03-21T00:14:58Z,-0.258332,-0.964181,0.015669,2025-03-21T00:14:57Z,-0.503451,0.131664,0.375701,2025-03-21T00:14:57Z
121,256.402277,0.691415,7.258596,44.940848,283.812277,50.306198,3.892532,3,-93.170881,8.531549,2025-03-21T00:14:59Z,-0.262122,-0.96461,0.029015,2025-03-21T00:14:58Z,-0.513001,0.122229,0.582431,2025-03-21T00:14:58Z
122,256.334451,0.681779,7.258734,44.940901,283.744451,44.544308,3.691695,3,-93.1708,8.415556,2025-03-21T00:15:00Z,-0.278072,-0.954555,0.014435,2025-03-21T00:14:59Z,-0.627827,0.201053,0.430429,2025-03-21T00:14:59Z
123,256.204101,0.693128,7.257997,44.940955,283.614101,44.544308,3.497907,3,-93.170725,8.382213,2025-03-21T00:15:01Z,-0.307044,-0.964509,-0.031879,2025-03-21T00:15:00Z,-0.829883,0.108342,-0.031088,2025-03-21T00:15:00Z
124,256.328401,0.695382,7.258967,44.941011,283.7384,39.29245,2.082765,3,-93.170664,7.77848,2025-03-21T00:15:02Z,-0.35067,-0.939298,0.006023,2025-03-21T00:15:01Z,-1.177317,0.346596,0.078399,2025-03-21T00:15:01Z
125,256.296546,0.684612,8.196514,44.941062,283.706546,35.531982,2.057676,3,-93.170626,6.766063,2025-03-21T00:15:03Z,-0.367859,-0.932228,0.036387,2025-03-21T00:15:02Z,-1.265485,0.374793,0.324817,2025-03-21T00:15:02Z
126,256.647655,0.685821,9.624209,44.941098,284.057655,35.099503,2.055365,3,-93.170584,5.766517,2025-03-21T00:15:04Z,-0.293488,-0.953968,0.062989,2025-03-21T00:15:03Z,-0.496694,0.167203,0.561004,2025-03-21T00:15:03Z
127,256.604193,0.680304,10.1492,44.941136,284.014193,29.606117,2.044292,3,-93.170542,5.431777,2025-03-21T00:15:05Z,-0.347886,-0.942554,0.046117,2025-03-21T00:15:04Z,-0.915216,0.229451,0.374024,2025-03-21T00:15:04Z
128,256.55729,0.705931,12.343197,44.941172,283.96729,24.617243,2.03691,3,-93.17052,4.627051,2025-03-21T00:15:06Z,-0.374908,-0.931019,0.032635,2025-03-21T00:15:05Z,-1.097066,0.335865,0.183385,2025-03-21T00:15:05Z
129,255.789757,0.767478,18.361923,44.941192,283.199757,24.617243,2.144813,3,-93.170503,3.170776,2025-03-21T00:15:07Z,-0.37462,-0.939144,0.005441,2025-03-21T00:15:06Z,-0.971282,0.21131,-0.12364,2025-03-21T00:15:06Z
130,256.395979,0.715064,24.598397,44.941209,283.805979,24.617243,2.247087,3,-93.170489,2.35565,2025-03-21T00:15:08Z,-0.252736,-0.963749,0.028588,2025-03-21T00:15:07Z,0.293868,-0.04522,0.10142,2025-03-21T00:15:07Z
131,256.305434,0.704272,25.112954,44.941231,283.715434,19.461201,2.259676,3,-93.170488,2.245693,2025-03-21T00:15:09Z,-0.192496,-0.983074,0.038172,2025-03-21T00:15:08Z,0.800982,-0.212099,0.202353,2025-03-21T00:15:08Z
132,256.528895,0.671894,18.965297,44.941259,283.938895,19.461201,2.233709,3,-93.170479,2.8644,2025-03-21T00:15:09Z,-0.202755,-0.978124,0.044059,2025-03-21T00:15:09Z,0.703373,-0.161925,0.270143,2025-03-21T00:15:09Z
133,256.662251,0.682666,17.082643,44.94129,284.072251,19.459602,2.223652,3,-93.170472,3.234509,2025-03-21T00:15:10Z,-0.249423,-0.965476,0.014507,2025-03-21T00:15:10Z,0.258789,-0.04464,0.058574,2025-03-21T00:15:10Z
134,256.080653,0.721533,17.520519,44.941319,283.490653,10.037581,2.330512,3,-93.170467,3.132294,2025-03-21T00:15:11Z,-0.315862,-0.953166,-0.01524,2025-03-21T00:15:11Z,-0.443904,0.09099,-0.303853,2025-03-21T00:15:11Z
135,256.294256,0.686891,19.782854,44.941347,283.704256,10.037581,2.310725,3,-93.170465,2.785387,2025-03-21T00:15:12Z,-0.355508,-0.937748,-0.001348,2025-03-21T00:15:12Z,-0.713494,0.20557,-0.34349,2025-03-21T00:15:12Z
136,256.311126,0.691689,28.062748,44.941355,283.721126,19.459602,2.308271,3,-93.170433,1.985708,2025-03-21T00:15:13Z,-0.325919,-0.949898,0.003568,2025-03-21T00:15:13Z,-0.409938,0.08143,-0.288895,2025-03-21T00:15:13Z
137,NA,NA,NA,NA,NA,NA,NA,NA,NA,NA,NA,-0.308154,-0.957259,0.008973,2025-03-21T00:15:14Z,-0.248873,0.013706,-0.226846,2025-03-21T00:15:14Z
