seconds_elapsed,location_altitude,location_speedAccuracy,location_bearingAccuracy,location_latitude,location_altitudeAboveMeanSeaLevel,location_bearing,location_horizontalAccuracy,location_verticalAccuracy,location_longitude,location_speed,location_local_time,accelerometerUncalibrated_z,accelerometerUncalibrated_y,accelerometerUncalibrated_x,accelerometerUncalibrated_local_time,accelerometer_z,accelerometer_y,accelerometer_x,accelerometer_local_time
0,256.230348,3.772577,160.384383,44.941496,283.640348,1.181658,2.597738,3,-93.170701,1.89591,2025-02-19T22:13:00Z,-0.236721,-0.962616,-0.124965,2025-02-19T22:12:59Z,-0.451019,0.153535,-0.480208,2025-02-19T22:12:59Z
1,256.703612,2.330882,44.309445,44.941474,284.113612,98.908539,2.567851,3,-93.170613,4.251707,2025-02-19T22:13:01Z,-0.202591,-0.963083,-0.206837,2025-02-19T22:13:00Z,-0.112662,0.152917,-1.273433,2025-02-19T22:13:00Z
2,256.628826,2.298419,43.386796,44.94146,284.038826,107.161735,2.539459,3,-93.17056,4.278402,2025-02-19T22:13:02Z,-0.185024,-0.96481,-0.259261,2025-02-19T22:13:01Z,0.163966,0.11719,-1.819725,2025-02-19T22:13:01Z
3,256.438931,2.293585,43.405609,44.941431,283.848931,125.926744,2.530024,3,-93.170521,4.279054,2025-02-19T22:13:03Z,-0.138954,-0.964924,-0.256972,2025-02-19T22:13:02Z,0.549243,0.119751,-1.753556,2025-02-19T22:13:02Z
4,256.550207,2.24704,37.943981,44.941383,283.960207,149.84929,2.51667,3,-93.170498,4.797495,2025-02-19T22:13:04Z,-0.149734,-0.986538,-0.217639,2025-02-19T22:13:03Z,0.345477,-0.079225,-1.175017,2025-02-19T22:13:03Z
5,256.576994,2.193668,33.355072,44.941332,283.986994,171.278503,2.490836,3,-93.170499,5.319892,2025-02-19T22:13:05Z,-0.138594,-0.959141,-0.219017,2025-02-19T22:13:04Z,0.352678,0.179496,-1.039937,2025-02-19T22:13:04Z
6,256.264784,2.148279,30.597599,44.941281,283.674783,187.055499,2.466295,3,-93.170518,5.688791,2025-02-19T22:13:06Z,-0.162805,-0.976616,-0.198674,2025-02-19T22:13:05Z,0.054189,0.015037,-0.760545,2025-02-19T22:13:05Z
7,256.11895,2.124228,28.404927,44.941227,283.52895,199.459763,2.453382,3,-93.170544,6.057638,2025-02-19T22:13:07Z,-0.165088,-0.966498,-0.154719,2025-02-19T22:13:06Z,0.121109,0.114886,-0.477703,2025-02-19T22:13:06Z
8,256.075542,2.095978,26.37543,44.941173,283.485542,204.615509,2.476713,3,-93.170576,6.408718,2025-02-19T22:13:08Z,-0.158286,-0.985284,-0.137273,2025-02-19T22:13:07Z,0.198877,-0.04755,-0.475942,2025-02-19T22:13:07Z
9,256.269213,2.05314,23.985012,44.941119,283.679213,209.604141,2.501997,3,-93.170621,6.932604,2025-02-19T22:13:09Z,-0.153039,-0.972241,-0.137813,2025-02-19T22:13:08Z,0.118608,0.072549,-0.349334,2025-02-19T22:13:08Z
10,256.27921,2.025911,22.310342,44.941065,283.68921,215.529816,2.488639,3,-93.170675,7.353604,2025-02-19T22:13:10Z,-0.205262,-0.969286,-0.131918,2025-02-19T22:13:09Z,-0.367479,0.112099,-0.263314,2025-02-19T22:13:09Z
11,256.340263,1.997284,21.498482,44.941009,283.750263,215.529816,2.532513,3,-93.170733,7.521607,2025-02-19T22:13:11Z,-0.218901,-0.965184,-0.152055,2025-02-19T22:13:10Z,-0.464903,0.123343,-0.370596,2025-02-19T22:13:10Z
12,256.32787,1.985412,21.461103,44.940958,283.73787,219.290207,2.513442,3,-93.170797,7.490754,2025-02-19T22:13:12Z,-0.195853,-0.968355,-0.161447,2025-02-19T22:13:11Z,-0.29952,0.119024,-0.445663,2025-02-19T22:13:11Z
13,256.447419,2.002513,21.686782,44.940911,283.857418,224.542023,2.376531,3,-93.170865,7.481887,2025-02-19T22:13:13Z,-0.178281,-0.97127,-0.128116,2025-02-19T22:13:12Z,-0.087423,0.079567,-0.233351,2025-02-19T22:13:12Z
14,256.470596,1.988211,20.97646,44.940867,283.880596,230.30394,2.50734,3,-93.170942,7.676987,2025-02-19T22:13:14Z,-0.204509,-0.979358,-0.120637,2025-02-19T22:13:13Z,-0.289022,0.012565,-0.239754,2025-02-19T22:13:13Z
15,256.583259,1.975302,20.484148,44.940823,283.993259,232.685425,2.571871,3,-93.17102,7.813471,2025-02-19T22:13:15Z,-0.23129,-0.96032,-0.088999,2025-02-19T22:13:14Z,-0.554361,0.19763,0.01259,2025-02-19T22:13:14Z
16,256.686196,1.98229,20.961522,44.940782,284.096196,232.685425,2.458207,3,-93.1711,7.662676,2025-02-19T22:13:16Z,-0.256969,-0.957941,-0.045601,2025-02-19T22:13:15Z,-0.650735,0.19332,0.370458,2025-02-19T22:13:15Z
17,256.753653,2.003118,21.983738,44.940743,284.163653,231.638214,2.332074,3,-93.171176,7.370735,2025-02-19T22:13:17Z,-0.263456,-0.964853,-0.042495,2025-02-19T22:13:16Z,-0.63138,0.117347,0.406117,2025-02-19T22:13:16Z
18,256.700803,2.013614,22.857975,44.940703,284.110803,231.638214,2.245842,3,-93.171246,7.128863,2025-02-19T22:13:18Z,-0.263,-0.964727,-0.004959,2025-02-19T22:13:17Z,-0.634795,0.116135,0.734803,2025-02-19T22:13:17Z
19,256.688799,2.026241,23.8024,44.940657,284.098799,223.927658,2.184657,3,-93.171307,6.885516,2025-02-19T22:13:19Z,-0.283166,-0.970307,0.009819,2025-02-19T22:13:18Z,-0.6462,0.023019,0.791128,2025-02-19T22:13:18Z
20,256.657615,2.05748,24.627634,44.940608,284.067615,212.314926,2.139693,3,-93.17136,6.754138,2025-02-19T22:13:20Z,-0.255819,-0.961446,-0.005672,2025-02-19T22:13:19Z,-0.460229,0.149902,0.566709,2025-02-19T22:13:19Z
21,256.666479,2.073425,25.597013,44.940556,284.076479,212.314926,2.106447,3,-93.171403,6.552864,2025-02-19T22:13:21Z,-0.252067,-0.955361,-0.020578,2025-02-19T22:13:20Z,-0.405104,0.187988,0.533911,2025-02-19T22:13:20Z
22,256.79686,2.097894,26.720945,44.940506,284.206859,206.621445,2.081845,3,-93.171445,6.335371,2025-02-19T22:13:22Z,-0.259852,-0.975414,-0.030959,2025-02-19T22:13:21Z,-0.510455,-0.010165,0.519255,2025-02-19T22:13:21Z
23,257.245876,2.094027,28.023145,44.940455,284.655876,200.918198,2.129953,3,-93.171472,6.038221,2025-02-19T22:13:23Z,-0.250465,-0.959967,-0.041195,2025-02-19T22:13:22Z,-0.311139,0.126262,0.402137,2025-02-19T22:13:22Z
24,257.039643,2.110505,28.807437,44.940402,284.449643,198.486984,2.107191,3,-93.171492,5.935826,2025-02-19T22:13:24Z,-0.258175,-0.968732,-0.03345,2025-02-19T22:13:23Z,-0.363649,0.040494,0.342684,2025-02-19T22:13:23Z
25,256.960905,2.123675,29.699114,44.940351,284.370904,191.287506,2.091878,3,-93.171507,5.792273,2025-02-19T22:13:25Z,-0.313974,-0.958289,-0.049964,2025-02-19T22:13:24Z,-0.820649,0.129719,0.062648,2025-02-19T22:13:24Z
26,257.03498,2.161405,33.570972,44.940304,284.44498,188.837601,2.080393,3,-93.171518,5.216463,2025-02-19T22:13:26Z,-0.327287,-0.930446,-0.051832,2025-02-19T22:13:25Z,-0.915302,0.398378,-0.066662,2025-02-19T22:13:25Z
27,257.083857,2.29926,44.314961,44.94027,284.493857,182.715332,2.084807,3,-93.171522,4.19469,2025-02-19T22:13:27Z,-0.322124,-0.957993,-0.064718,2025-02-19T22:13:26Z,-0.728926,0.092901,-0.196745,2025-02-19T22:13:26Z
28,257.262376,2.405404,58.032986,44.94024,284.672376,182.715332,2.076327,3,-93.171521,3.327326,2025-02-19T22:13:28Z,-0.333758,-0.945748,-0.084464,2025-02-19T22:13:27Z,-0.864856,0.220129,-0.329896,2025-02-19T22:13:27Z
29,257.242159,2.623118,76.447616,44.940218,284.652159,180.792664,2.069388,3,-93.171521,2.560726,2025-02-19T22:13:29Z,-0.308718,-0.948581,-0.09971,2025-02-19T22:13:28Z,-0.625812,0.187859,-0.3912,2025-02-19T22:13:28Z
30,257.269691,2.889208,119.844279,44.940207,284.679691,180.792664,2.063606,3,-93.171519,1.570989,2025-02-19T22:13:30Z,-0.279617,-0.952427,-0.097199,2025-02-19T22:13:29Z,-0.250533,0.117542,-0.263846,2025-02-19T22:13:29Z
31,257.44546,3.746524,180,44.940198,284.85546,180.792664,2.058713,3,-93.17152,0.900032,2025-02-19T22:13:31Z,-0.292275,-0.95285,-0.101471,2025-02-19T22:13:30Z,-0.297097,0.091813,-0.24121,2025-02-19T22:13:30Z
32,257.519758,3.745599,180,44.940195,284.929758,180.792664,2.054519,3,-93.171521,0.369738,2025-02-19T22:13:32Z,-0.229477,-0.967771,-0.088823,2025-02-19T22:13:31Z,0.325219,-0.062829,-0.085847,2025-02-19T22:13:31Z
33,257.706062,3.722518,180,44.940194,285.116061,180.792664,2.050884,3,-93.171521,0.138385,2025-02-19T22:13:33Z,-0.18657,-0.979106,-0.080741,2025-02-19T22:13:32Z,0.587592,-0.129564,1.01e-4,2025-02-19T22:13:32Z
34,257.72408,3.767251,180,44.940188,285.13408,180.792664,2.051439,3,-93.171519,0.518175,2025-02-19T22:13:34Z,-0.194741,-0.976643,-0.079832,2025-02-19T22:13:33Z,0.369319,-0.07169,-0.002095,2025-02-19T22:13:33Z
35,257.86448,3.744032,180,44.940179,285.27448,180.792664,2.048413,3,-93.17152,0.903062,2025-02-19T22:13:34Z,-0.270999,-0.957739,-0.097252,2025-02-19T22:13:34Z,-0.359414,0.106528,-0.138131,2025-02-19T22:13:34Z
36,258.014136,3.754898,180,44.940171,285.424136,180.792664,2.103394,3,-93.171519,0.686445,2025-02-19T22:13:35Z,-0.183645,-0.980155,-0.079155,2025-02-19T22:13:35Z,0.445478,-0.103043,0.05056,2025-02-19T22:13:35Z
37,258.060788,3.760784,180,44.940164,285.470788,180.792664,2.097952,3,-93.17152,0.807763,2025-02-19T22:13:36Z,0.024786,-1.030461,-0.040016,2025-02-19T22:13:36Z,2.25991,-0.540205,0.387176,2025-02-19T22:13:36Z
38,258.410902,2.679501,79.643747,44.940137,285.820902,180.792664,2.093054,3,-93.171523,2.641287,2025-02-19T22:13:37Z,-0.05683,-1.015381,-0.049331,2025-02-19T22:13:37Z,1.181518,-0.343122,0.303947,2025-02-19T22:13:37Z
39,258.293071,2.427187,41.957243,44.940095,285.703071,180.792664,2.10795,3,-93.171526,4.313581,2025-02-19T22:13:38Z,-0.1124,-0.971318,-0.02908,2025-02-19T22:13:38Z,0.705319,0.08257,0.573585,2025-02-19T22:13:38Z
40,258.112127,2.195694,33.251396,44.940045,285.522127,180.792664,2.102552,3,-93.171528,5.34179,2025-02-19T22:13:39Z,-0.130059,-0.987531,-0.073429,2025-02-19T22:13:39Z,0.811509,-0.157405,0.286886,2025-02-19T22:13:39Z
41,257.898348,2.106566,27.511582,44.939991,285.308348,180.766403,2.097424,3,-93.171521,6.201549,2025-02-19T22:13:40Z,-0.129788,-1.001048,-0.129378,2025-02-19T22:13:40Z,0.700327,-0.260197,-0.328513,2025-02-19T22:13:40Z
42,257.698546,2.02686,22.569971,44.939922,285.108545,180.766403,2.093075,3,-93.171509,7.274554,2025-02-19T22:13:41Z,-0.219298,-0.967816,-0.109363,2025-02-19T22:13:41Z,-0.420468,0.129772,-0.323322,2025-02-19T22:13:41Z
43,257.693358,2.014869,22.517056,44.939858,285.103358,180.766403,2.079124,3,-93.171526,7.239493,2025-02-19T22:13:42Z,-0.206463,-0.973883,-0.0875,2025-02-19T22:13:42Z,-0.201833,0.061123,-0.154627,2025-02-19T22:13:42Z
44,257.63431,2.024453,22.703614,44.939792,285.04431,180.766403,2.06346,3,-93.171528,7.225204,2025-02-19T22:13:43Z,-0.170974,-0.983433,-0.068082,2025-02-19T22:13:43Z,0.131826,-0.032178,0.044002,2025-02-19T22:13:43Z
45,257.524318,1.986255,20.737802,44.93972,284.934318,180,2.048451,3,-93.171527,7.760664,2025-02-19T22:13:44Z,-0.158735,-0.981947,-0.090376,2025-02-19T22:13:44Z,0.17077,-0.012673,-0.04837,2025-02-19T22:13:44Z
46,257.450134,1.96239,19.233082,44.939643,284.860134,180,2.121519,3,-93.171527,8.263369,2025-02-19T22:13:45Z,-0.227186,-0.970266,-0.118191,2025-02-19T22:13:45Z,-0.465598,0.086487,-0.245784,2025-02-19T22:13:45Z
47,257.508149,1.944747,19.019031,44.939568,284.918149,180,2.084973,3,-93.171527,8.284752,2025-02-19T22:13:46Z,-0.241761,-0.956764,-0.123728,2025-02-19T22:13:46Z,-0.602442,0.214214,-0.272251,2025-02-19T22:13:46Z
48,257.378539,1.966274,20.055033,44.939497,284.788538,180,2.056976,3,-93.171527,7.942203,2025-02-19T22:13:47Z,-0.24594,-0.964702,-0.116203,2025-02-19T22:13:47Z,-0.61277,0.134686,-0.140297,2025-02-19T22:13:47Z
49,257.372355,2.005327,21.347961,44.939429,284.782355,180.331665,2.213553,3,-93.171505,7.609487,2025-02-19T22:13:48Z,-0.221384,-0.967716,-0.103555,2025-02-19T22:13:48Z,-0.351371,0.098596,-0.025973,2025-02-19T22:13:48Z
50,257.276404,2.001986,21.794638,44.939364,284.686404,179.175903,2.149033,3,-93.171506,7.438017,2025-02-19T22:13:49Z,-0.218829,-0.96723,-0.105774,2025-02-19T22:13:49Z,-0.281842,0.091972,-0.049353,2025-02-19T22:13:49Z
51,257.238393,2.005787,21.867463,44.939298,284.648392,179.175903,2.140299,3,-93.171527,7.40878,2025-02-19T22:13:50Z,-0.243861,-0.96538,-0.106155,2025-02-19T22:13:50Z,-0.478047,0.097688,-0.050579,2025-02-19T22:13:50Z
52,257.431374,2.019226,22.765797,44.939233,284.841373,179.175903,2.209961,3,-93.171525,7.186291,2025-02-19T22:13:51Z,-0.237832,-0.966224,-0.107751,2025-02-19T22:13:51Z,-0.426164,0.090464,-0.051673,2025-02-19T22:13:51Z
53,257.395387,2.042364,24.164767,44.939174,284.805387,178.45726,2.151095,3,-93.171524,6.848349,2025-02-19T22:13:52Z,-0.239159,-0.957011,-0.091199,2025-02-19T22:13:52Z,-0.374077,0.172513,0.057827,2025-02-19T22:13:52Z
54,257.132,2.077046,25.664783,44.939118,284.542,178.45726,2.117218,3,-93.171522,6.551198,2025-02-19T22:13:53Z,-0.220443,-0.977694,-0.100354,2025-02-19T22:13:53Z,-0.207678,-0.032048,0.016693,2025-02-19T22:13:53Z
55,257.249003,2.091055,26.481442,44.939061,284.659003,176.738373,2.090869,3,-93.171494,6.397351,2025-02-19T22:13:54Z,-0.220658,-0.976264,-0.110412,2025-02-19T22:13:54Z,-0.245741,-0.011635,-0.046346,2025-02-19T22:13:54Z
56,257.438425,2.083279,26.911476,44.939004,284.848425,176.738373,2.071005,3,-93.171489,6.254703,2025-02-19T22:13:55Z,-0.215611,-0.95525,-0.110926,2025-02-19T22:13:55Z,-0.094351,0.168671,-0.010259,2025-02-19T22:13:55Z
57,257.465629,2.115436,27.773326,44.938948,284.875629,176.275269,2.058053,3,-93.171484,6.160141,2025-02-19T22:13:56Z,-0.224076,-0.959364,-0.104321,2025-02-19T22:13:56Z,-0.1509,0.130409,-0.029069,2025-02-19T22:13:56Z
58,257.437778,2.125757,28.809076,44.938896,284.847778,176.275269,2.048208,3,-93.171482,5.962713,2025-02-19T22:13:57Z,-0.248822,-0.976902,-0.113049,2025-02-19T22:13:57Z,-0.434789,-0.03299,-0.108949,2025-02-19T22:13:57Z
59,257.599772,2.179109,31.138845,44.938848,285.009772,176.275269,2.134259,3,-93.171478,5.585403,2025-02-19T22:13:58Z,-0.22632,-0.969354,-0.105228,2025-02-19T22:13:58Z,-0.236271,0.043081,-0.055332,2025-02-19T22:13:58Z
60,257.619078,2.217982,33.658353,44.938801,285.029078,177.04007,2.117476,3,-93.171494,5.267267,2025-02-19T22:14:00Z,-0.231044,-0.965371,-0.115059,2025-02-19T22:13:59Z,-0.297362,0.078945,-0.051147,2025-02-19T22:13:59Z
61,257.704705,2.2821,36.72663,44.938759,285.114704,177.04007,2.104423,3,-93.171491,4.852699,2025-02-19T22:14:01Z,-0.224284,-0.958074,-0.109548,2025-02-19T22:14:00Z,-0.19421,0.144111,-0.008355,2025-02-19T22:14:00Z
62,257.69939,2.276853,40.742942,44.938720000000004,285.10939,177.04007,2.093981,3,-93.171488,4.503236,2025-02-19T22:14:02Z,-0.253431,-0.962685,-0.125648,2025-02-19T22:14:01Z,-0.38387,0.082473,-0.179682,2025-02-19T22:14:01Z
63,257.740032,2.319814,45.496735,44.938684,285.150032,177.04007,2.085437,3,-93.171486,4.101223,2025-02-19T22:14:03Z,-0.31265,-0.943718,-0.12697,2025-02-19T22:14:02Z,-0.95466,0.260692,-0.180282,2025-02-19T22:14:02Z
64,257.703357,2.42223,61.646513,44.938659,285.113357,177.329437,2.078317,3,-93.171461,3.163179,2025-02-19T22:14:04Z,-0.25042,-0.957871,-0.107352,2025-02-19T22:14:03Z,-0.354612,0.135617,-0.053614,2025-02-19T22:14:03Z
65,257.461371,2.750772,85.434577,44.938642,284.871371,177.329437,2.072293,3,-93.171464,2.280332,2025-02-19T22:14:05Z,-0.07886,-0.993464,-0.095354,2025-02-19T22:14:04Z,1.340005,-0.222924,0.106694,2025-02-19T22:14:04Z
66,257.851182,2.499474,69.85896,44.938614,285.261182,177.329437,2.067129,3,-93.171481,2.886603,2025-02-19T22:14:06Z,-0.092842,-1.000197,-0.135285,2025-02-19T22:14:05Z,1.160395,-0.289609,-0.189809,2025-02-19T22:14:05Z
67,258.124139,2.373638,48.193398,44.938577,285.534139,178.654633,2.062654,3,-93.171459,3.938616,2025-02-19T22:14:07Z,-0.133335,-0.995413,-0.087542,2025-02-19T22:14:06Z,0.657626,-0.224715,0.290746,2025-02-19T22:14:06Z
68,258.3007,2.335466,39.543568,44.938534,285.7107,178.654633,2.058738,3,-93.171456,4.587857,2025-02-19T22:14:08Z,-0.12737,-0.986427,-0.082404,2025-02-19T22:14:07Z,0.623239,-0.108888,0.279408,2025-02-19T22:14:07Z
69,258.586532,2.267976,35.077821,44.938489,285.996532,178.654633,2.090457,3,-93.171462,5.064072,2025-02-19T22:14:09Z,-0.127318,-0.991176,-0.089869,2025-02-19T22:14:08Z,0.645207,-0.150133,0.188261,2025-02-19T22:14:08Z
70,258.568575,2.148974,29.651551,44.938432,285.978575,178.654633,2.085432,3,-93.171455,5.803081,2025-02-19T22:14:10Z,-0.13304,-0.98347,-0.078122,2025-02-19T22:14:09Z,0.503343,-0.057803,0.200705,2025-02-19T22:14:09Z
71,258.652797,2.077461,24.966632,44.938367,286.062797,177.280136,2.102222,3,-93.171457,6.681776,2025-02-19T22:14:11Z,-0.173737,-0.971101,-0.093118,2025-02-19T22:14:10Z,0.089303,0.06881,-0.024723,2025-02-19T22:14:10Z
72,258.802672,2.047651,23.928913,44.938303,286.212672,174.090652,2.090279,3,-93.171449,6.929506,2025-02-19T22:14:12Z,-0.195425,-0.989865,-0.005555,2025-02-19T22:14:11Z,-0.105445,-0.066995,-0.026915,2025-02-19T22:14:11Z
73,258.974216,2.041019,23.031989,44.938236,286.384216,172.447037,2.215555,3,-93.17144,7.127552,2025-02-19T22:14:13Z,-0.176581,-0.973114,-0.013243,2025-02-19T22:14:12Z,-0.001409,0.11012,0.034885,2025-02-19T22:14:12Z
74,258.79717,2.036815,22.972495,44.938173,286.20717,175.716217,2.174466,3,-93.171432,7.184153,2025-02-19T22:14:14Z,-0.180625,-0.981412,-0.02673,2025-02-19T22:14:13Z,0.023276,0.017777,-0.047459,2025-02-19T22:14:13Z
75,258.670379,2.028106,22.22023,44.938108,286.080379,178.44278,2.136112,3,-93.171427,7.395134,2025-02-19T22:14:15Z,-0.200909,-0.962866,-0.070162,2025-02-19T22:14:14Z,-0.101769,0.169437,-0.367508,2025-02-19T22:14:14Z
76,258.83041,2.020585,22.258406,44.938042,286.24041,178.44278,2.10506,3,-93.171423,7.332832,2025-02-19T22:14:16Z,-0.219755,-0.967248,-0.046412,2025-02-19T22:14:15Z,-0.122433,0.112169,-0.21028,2025-02-19T22:14:15Z
77,258.74836,2.031509,22.213439,44.937977,286.15836,182.274078,2.078209,3,-93.171423,7.30124,2025-02-19T22:14:17Z,-0.220031,-0.974775,-0.077944,2025-02-19T22:14:16Z,-0.130986,0.023584,-0.44774,2025-02-19T22:14:16Z
78,258.834562,2.021566,22.60207,44.937912,286.244561,186.691895,2.058222,3,-93.171427,7.225138,2025-02-19T22:14:18Z,-0.214889,-0.973331,-0.074591,2025-02-19T22:14:17Z,-0.091025,0.041822,-0.348796,2025-02-19T22:14:17Z
79,258.669775,2.022307,22.591543,44.937848,286.079775,188.878387,2.119574,3,-93.171437,7.204047,2025-02-19T22:14:19Z,-0.218345,-0.970559,-0.056138,2025-02-19T22:14:18Z,-0.126569,0.077713,-0.205336,2025-02-19T22:14:18Z
80,258.628524,2.034386,22.901888,44.937784,286.038524,191.05748,2.089345,3,-93.17145,7.160003,2025-02-19T22:14:20Z,-0.221947,-0.963428,-0.067396,2025-02-19T22:14:19Z,-0.080745,0.127683,-0.291583,2025-02-19T22:14:19Z
81,258.395347,2.062715,22.73731,44.93772,285.805347,192.479752,2.06668,3,-93.171465,7.134255,2025-02-19T22:14:21Z,-0.219157,-0.965376,-0.056688,2025-02-19T22:14:20Z,-0.046945,0.096167,-0.158971,2025-02-19T22:14:20Z
82,258.269265,2.070167,23.046283,44.93766,285.679265,193.621628,2.050043,3,-93.171491,7.073672,2025-02-19T22:14:22Z,-0.220846,-0.979361,-0.058738,2025-02-19T22:14:21Z,-0.061409,-0.028662,-0.158024,2025-02-19T22:14:21Z
83,257.908223,2.09276,23.388467,44.937605,285.318223,196.140961,2.038249,3,-93.171529,6.910831,2025-02-19T22:14:23Z,-0.213727,-0.97708,-0.070562,2025-02-19T22:14:22Z,-0.041761,-0.001804,-0.251128,2025-02-19T22:14:22Z
84,257.636116,2.105746,23.689956,44.93754,285.046116,196.140961,2.135245,3,-93.171538,6.888805,2025-02-19T22:14:24Z,-0.217325,-0.970441,-0.076227,2025-02-19T22:14:23Z,-0.039887,0.051001,-0.283902,2025-02-19T22:14:23Z
85,257.588646,2.123999,23.202645,44.937477,284.998646,197.950211,2.101056,3,-93.171568,6.961111,2025-02-19T22:14:25Z,-0.213078,-0.977927,-0.10574,2025-02-19T22:14:24Z,0.002747,-0.033132,-0.476421,2025-02-19T22:14:24Z
86,257.687078,2.061076,23.248342,44.937417,285.097078,201.144684,2.075193,3,-93.171607,7.027536,2025-02-19T22:14:26Z,-0.216996,-0.974956,-0.05258,2025-02-19T22:14:25Z,-0.058581,0.024757,-0.086772,2025-02-19T22:14:25Z
87,257.695989,2.051169,22.742746,44.937358,285.105989,201.144684,2.056206,3,-93.171648,7.11492,2025-02-19T22:14:27Z,-0.1771,-0.972668,-0.064676,2025-02-19T22:14:26Z,0.288946,0.035748,-0.172002,2025-02-19T22:14:26Z
88,257.536268,2.0446,22.036849,44.9373,284.946268,207.548645,2.041974,3,-93.171696,7.354474,2025-02-19T22:14:28Z,-0.20261,-0.970771,-0.047626,2025-02-19T22:14:27Z,0.067851,0.064823,-0.011171,2025-02-19T22:14:27Z
89,257.586455,2.008788,21.100017,44.93724,284.996455,209.04599,2.270707,3,-93.17175,7.637511,2025-02-19T22:14:29Z,-0.213626,-0.972457,-0.043904,2025-02-19T22:14:28Z,-0.004096,0.030876,-0.134497,2025-02-19T22:14:28Z
90,257.464524,1.998692,20.434079,44.937182,284.874523,212.377838,2.278493,3,-93.171803,7.804173,2025-02-19T22:14:30Z,-0.211422,-0.982143,-0.038901,2025-02-19T22:14:29Z,0.028174,-0.053002,0.021269,2025-02-19T22:14:29Z
91,257.490727,1.999281,20.023021,44.937122,284.900726,214.092636,2.29064,3,-93.171864,7.977278,2025-02-19T22:14:31Z,-0.220661,-0.978479,-0.031772,2025-02-19T22:14:30Z,-0.111178,-0.014521,0.080038,2025-02-19T22:14:30Z
92,257.375113,1.973025,19.810219,44.937065,284.785113,216.542053,2.199463,3,-93.171922,8.016199,2025-02-19T22:14:32Z,-0.215382,-0.970084,-0.039344,2025-02-19T22:14:31Z,-0.0467,0.060256,-0.129049,2025-02-19T22:14:31Z
93,257.461556,1.98574,19.795879,44.937006,284.871555,216.953079,2.271932,3,-93.171984,8.086967,2025-02-19T22:14:33Z,-0.20495,-0.963801,-0.039588,2025-02-19T22:14:32Z,0.032461,0.129311,-0.049799,2025-02-19T22:14:32Z
94,257.411719,1.974986,19.639384,44.936951,284.821719,222.776047,2.184222,3,-93.172049,8.099265,2025-02-19T22:14:34Z,-0.235198,-0.975237,-0.064143,2025-02-19T22:14:33Z,-0.235761,0.031561,-0.308577,2025-02-19T22:14:33Z
95,257.293146,1.966231,19.479258,44.936896,284.703146,222.776047,2.883684,3,-93.172121,8.106375,2025-02-19T22:14:35Z,-0.240382,-0.96684,-0.047954,2025-02-19T22:14:34Z,-0.294878,0.101404,-0.239801,2025-02-19T22:14:34Z
96,257.354957,1.974505,20.267717,44.936847,284.764956,225.607635,2.608185,3,-93.172191,7.846401,2025-02-19T22:14:36Z,-0.26127,-0.967392,-0.040777,2025-02-19T22:14:35Z,-0.499857,0.092552,-0.147055,2025-02-19T22:14:35Z
97,257.233639,1.999079,21.351829,44.936804,284.643639,227.899338,2.512162,3,-93.172265,7.556181,2025-02-19T22:14:37Z,-0.312881,-0.953441,-0.075256,2025-02-19T22:14:36Z,-0.919147,0.209146,-0.369108,2025-02-19T22:14:36Z
98,257.068356,2.072331,24.731352,44.936766,284.478356,228.820755,2.357865,3,-93.172329,6.707221,2025-02-19T22:14:38Z,-0.331307,-0.950125,-0.03344,2025-02-19T22:14:37Z,-1.086283,0.2447,-0.050399,2025-02-19T22:14:37Z
99,256.901178,2.193895,30.795662,44.936735,284.311178,228.820755,2.43988,3,-93.172382,5.609992,2025-02-19T22:14:39Z,-0.35667,-0.943471,-0.025737,2025-02-19T22:14:38Z,-1.214928,0.280202,-0.030847,2025-02-19T22:14:38Z
100,257.026868,2.323889,40.298621,44.936712,284.436868,230.843826,2.351904,3,-93.172427,4.48646,2025-02-19T22:14:40Z,-0.398916,-0.922145,-0.029199,2025-02-19T22:14:39Z,-1.477558,0.450414,-0.014081,2025-02-19T22:14:39Z
