seconds_elapsed,location_altitude,location_speedAccuracy,location_bearingAccuracy,location_latitude,location_altitudeAboveMeanSeaLevel,location_bearing,location_horizontalAccuracy,location_verticalAccuracy,location_longitude,location_speed,location_local_time,accelerometerUncalibrated_z,accelerometerUncalibrated_y,accelerometerUncalibrated_x,accelerometerUncalibrated_local_time,accelerometer_z,accelerometer_y,accelerometer_x,accelerometer_local_time
0,249.799445,0.684569,32.519506,44.941485,277.209445,184.87582,2.471853,3,-93.177293,1.675085,2025-02-19T21:27:58Z,-0.010083,-0.997794,-0.035521,2025-02-19T21:27:57Z,-0.372606,0.017765,-0.194478,2025-02-19T21:27:57Z
1,250.309525,0.899464,36.314456,44.941468,277.719525,172.730372,2.474712,3,-93.17728,1.667212,2025-02-19T21:27:59Z,0.013234,-0.996929,-0.024311,2025-02-19T21:27:58Z,-0.133071,0.025173,-0.101496,2025-02-19T21:27:58Z
2,250.076621,0.665145,43.17453,44.941463,277.486621,179.870659,2.492442,3,-93.177284,1.24134,2025-02-19T21:28:00Z,0.019609,-0.998075,-0.022825,2025-02-19T21:27:59Z,-0.064472,0.014843,-0.094215,2025-02-19T21:27:59Z
3,250.056465,0.657747,41.65915,44.941451,277.466465,180.134161,2.46782,3,-93.177283,1.279185,2025-02-19T21:28:01Z,-0.008298,-0.99789,-0.031648,2025-02-19T21:28:00Z,-0.306586,0.017132,-0.180843,2025-02-19T21:28:00Z
4,249.853153,0.675693,45.967357,44.941442,277.263153,179.804158,2.476169,3,-93.177281,1.134307,2025-02-19T21:28:02Z,-0.031857,-0.99772,-0.038868,2025-02-19T21:28:01Z,-0.50353,0.019154,-0.235853,2025-02-19T21:28:01Z
5,249.943544,0.66404,79.600988,44.941437,277.353544,180.349647,2.45236,3,-93.177282,0.672132,2025-02-19T21:28:03Z,-0.015098,-0.997141,-0.036764,2025-02-19T21:28:02Z,-0.32375,0.025686,-0.180593,2025-02-19T21:28:02Z
6,249.995998,0.811641,180,44.941436,277.405998,179.426427,2.429742,3,-93.177279,0.291313,2025-02-19T21:28:04Z,-7.59e-4,-0.998181,-0.032451,2025-02-19T21:28:03Z,-0.156893,0.014784,-0.127097,2025-02-19T21:28:03Z
7,249.951982,0.896731,180,44.941437,277.361982,179.426427,2.423763,3,-93.177278,0.016348,2025-02-19T21:28:05Z,0.020445,-0.996969,-0.026002,2025-02-19T21:28:04Z,0.056043,0.025781,-0.065577,2025-02-19T21:28:04Z
8,249.990894,0.903821,180,44.941439,277.400894,179.426429,2.507513,3,-93.177276,0,2025-02-19T21:28:06Z,0.020453,-0.997296,-0.026156,2025-02-19T21:28:05Z,0.057342,0.023324,-0.063374,2025-02-19T21:28:05Z
9,249.990894,0.896618,180,44.941439,277.400894,179.426429,2.524246,3,-93.177276,0,2025-02-19T21:28:07Z,0.020337,-0.997503,-0.025872,2025-02-19T21:28:06Z,0.057342,0.021722,-0.058134,2025-02-19T21:28:06Z
10,249.990894,0.901321,180,44.941439,277.400894,179.426429,2.515912,3,-93.177276,0,2025-02-19T21:28:08Z,0.020262,-0.997308,-0.02601,2025-02-19T21:28:07Z,0.055071,0.023165,-0.052159,2025-02-19T21:28:07Z
11,249.990894,0.89255,180,44.941439,277.400894,179.426429,2.582655,3,-93.177276,0,2025-02-19T21:28:09Z,0.020205,-0.997372,-0.025938,2025-02-19T21:28:08Z,0.047455,0.022263,-0.047288,2025-02-19T21:28:08Z
12,249.990894,0.896327,180,44.941439,277.400894,179.426429,2.56714,3,-93.177276,0,2025-02-19T21:28:10Z,0.020308,-0.997657,-0.026108,2025-02-19T21:28:09Z,0.051459,0.0202,-0.045327,2025-02-19T21:28:09Z
13,249.990894,0.894628,180,44.941439,277.400894,179.426429,2.680726,3,-93.177276,0,2025-02-19T21:28:11Z,0.069392,-0.996681,-0.011,2025-02-19T21:28:10Z,0.501434,0.028527,0.090498,2025-02-19T21:28:10Z
14,250.389487,0.904238,180,44.94144,277.799487,179.42643,2.647279,3,-93.177275,0.378565,2025-02-19T21:28:12Z,0.176452,-0.995256,0.020245,2025-02-19T21:28:11Z,1.456159,0.043217,0.37194,2025-02-19T21:28:11Z
15,250.485821,0.652906,32.131846,44.941421,277.895821,180.052308,2.646938,3,-93.177274,1.639874,2025-02-19T21:28:13Z,0.152465,-0.993159,0.010261,2025-02-19T21:28:12Z,1.193197,0.060492,0.306479,2025-02-19T21:28:12Z
16,250.589158,0.650635,17.629406,44.94139,277.999157,181.424365,2.643731,3,-93.177275,2.957493,2025-02-19T21:28:14Z,0.104655,-0.993468,-0.003717,2025-02-19T21:28:13Z,0.742783,0.055889,0.214823,2025-02-19T21:28:13Z
17,250.501865,0.690045,13.527059,44.941348,277.911865,174.688553,2.642611,3,-93.177262,4.129396,2025-02-19T21:28:15Z,0.103686,-0.997109,-0.0034390000000000002,2025-02-19T21:28:14Z,0.71919,0.023013,0.185091,2025-02-19T21:28:14Z
18,250.168413,0.661363,10.911615,44.941303,277.578413,178.465356,2.61048,3,-93.177269,4.895577,2025-02-19T21:28:16Z,0.104551,-0.99933399999999994,0.009033,2025-02-19T21:28:15Z,0.744076,-0.006655,0.278518,2025-02-19T21:28:15Z
19,250.24281,0.655042,9.057857,44.941248,277.65281,179.049407,2.58679,3,-93.177267,5.858448,2025-02-19T21:28:17Z,0.088927,-0.980834,-0.016994,2025-02-19T21:28:16Z,0.499748,0.174202,-0.030409,2025-02-19T21:28:16Z
20,249.902205,0.655564,8.059408,44.941186,277.312205,178.345318,2.552461,3,-93.177263,6.585803,2025-02-19T21:28:18Z,0.09367,-1.005835,0.011879,2025-02-19T21:28:17Z,0.371891,-0.063482,0.056202,2025-02-19T21:28:17Z
21,250.223004,0.654177,7.255602,44.941117,277.633004,178.497099,2.489729,3,-93.177261,7.337087,2025-02-19T21:28:19Z,0.088395,-1.007115,-0.003057,2025-02-19T21:28:18Z,0.279882,-0.086822,-0.012398,2025-02-19T21:28:18Z
22,249.887589,0.654695,7.25728,44.941043,277.297589,179.227615,2.399152,3,-93.17726,7.990429,2025-02-19T21:28:20Z,0.081908,-0.987736,-0.014051,2025-02-19T21:28:19Z,0.187344,0.101963,-0.105557,2025-02-19T21:28:19Z
23,250.863022,0.662175,7.232808,44.940965,278.27302100000003,181.021661,2.29206,3,-93.177264,8.502779,2025-02-19T21:28:21Z,0.064931,-0.998471,-0.004335,2025-02-19T21:28:20Z,-0.055836,-0.008925,-0.034931,2025-02-19T21:28:20Z
24,250.142736,0.650564,7.257879,44.940878,277.552736,181.650252,2.19763,3,-93.177268,9.27928,2025-02-19T21:28:22Z,0.080832,-0.993104,0.00339,2025-02-19T21:28:21Z,0.116512,0.0475,0.029015,2025-02-19T21:28:21Z
25,250.08965799999999,0.658911,7.258244,44.940794,277.499658,180.538877,2.126196,3,-93.177267,9.509162,2025-02-19T21:28:23Z,0.093107,-0.999106,0.016938,2025-02-19T21:28:22Z,0.228043,-0.017047,0.154703,2025-02-19T21:28:22Z
26,250.776414,0.669943,7.252103,44.940691,278.186414,178.449921,2.076047,3,-93.177259,10.659849,2025-02-19T21:28:24Z,0.064032,-0.999281,-0.005266,2025-02-19T21:28:23Z,-0.076068,-0.020312,-0.048407,2025-02-19T21:28:23Z
27,250.236276,0.681741,7.258536,44.940596,277.646276,179.43457,2.220284,3,-93.177262,10.788277,2025-02-19T21:28:25Z,0.064773,-0.991204,-0.027274,2025-02-19T21:28:24Z,-0.09992,0.057434,-0.211294,2025-02-19T21:28:24Z
28,250.691619,0.659362,7.257577,44.940492,278.101619,180.462147,2.120364,3,-93.177263,11.302125,2025-02-19T21:28:26Z,0.044551,-0.995728,-0.032018,2025-02-19T21:28:25Z,-0.307936,0.012078,-0.161296,2025-02-19T21:28:25Z
29,250.449643,0.65177,7.258931,44.940387,277.859643,180.268352,2.064642,3,-93.177262,11.539867,2025-02-19T21:28:26Z,0.037509,-1.001668,-0.027799,2025-02-19T21:28:26Z,-0.361804,-0.046349,-0.093271,2025-02-19T21:28:26Z
30,250.485052,0.652014,7.258971,44.940281,277.895052,180.453541,2.034578,3,-93.177263,11.711768,2025-02-19T21:28:27Z,0.036332,-0.998766,-0.034521,2025-02-19T21:28:27Z,-0.401172,-0.016824,-0.11826,2025-02-19T21:28:27Z
31,250.639153,0.65171,7.258711,44.940174,278.049153,180.933443,2.080314,3,-93.177266,11.827462,2025-02-19T21:28:28Z,0.040779,-1.001812,-0.03257,2025-02-19T21:28:28Z,-0.393526,-0.052485,-0.096325,2025-02-19T21:28:28Z
32,250.955748,0.645517,7.257932,44.940066,278.365747,180.307719,2.042159,3,-93.177265,11.946918,2025-02-19T21:28:29Z,0.030664,-0.949969,-0.046873,2025-02-19T21:28:29Z,-0.310857,0.464378,-0.071942,2025-02-19T21:28:29Z
33,250.633742,0.644672,7.258009,44.939958,278.043742,180.001151,2.022149,3,-93.177264,11.985727,2025-02-19T21:28:30Z,0.018972,-1.020337,-0.028395,2025-02-19T21:28:30Z,-0.384123,-0.207919,0.027011,2025-02-19T21:28:30Z
34,250.279116,0.653095,7.257821,44.939847,277.689116,180.749666,2.011595,3,-93.177268,12.21949,2025-02-19T21:28:31Z,0.01692,-1.00549,-0.034861,2025-02-19T21:28:31Z,-0.436225,-0.090598,-0.203547,2025-02-19T21:28:31Z
35,250.158113,0.667474,7.258058,44.939741,277.568113,180.171695,2.357711,3,-93.177266,12.092398,2025-02-19T21:28:32Z,0.017915,-0.997692,-0.026035,2025-02-19T21:28:32Z,-0.388699,0.007031,-0.098079,2025-02-19T21:28:32Z
36,249.419919,0.712608,7.252318,44.939634,276.829919,179.902086,2.189969,3,-93.177265,11.982864,2025-02-19T21:28:33Z,0.04083,-1.003202,-0.03149,2025-02-19T21:28:33Z,-0.188594,-0.055493,-0.129105,2025-02-19T21:28:33Z
37,250.145208,0.677895,7.258854,44.939524,277.555208,179.571549,2.09931,3,-93.177263,12.134157,2025-02-19T21:28:34Z,0.040313,-0.994375,-0.01825,2025-02-19T21:28:34Z,-0.166336,0.041209,-0.077294,2025-02-19T21:28:34Z
38,250.302175,0.664585,7.258693,44.939412,277.712175,180.146045,2.149605,3,-93.177264,12.334213,2025-02-19T21:28:35Z,0.044036,-0.992283,-0.01691,2025-02-19T21:28:35Z,-0.106051,0.059039,-0.085304,2025-02-19T21:28:35Z
39,250.483186,0.650918,7.258717,44.9393,277.893185,180.774047,2.26125,3,-93.177267,12.44376,2025-02-19T21:28:36Z,0.038602,-1.000196,-0.008869,2025-02-19T21:28:36Z,-0.130022,-0.013548,0.005692,2025-02-19T21:28:36Z
40,250.758079,0.66665,7.258506,44.939185,278.168079,180.585083,2.133163,3,-93.177268,12.686149,2025-02-19T21:28:37Z,0.036368,-1.000575,-0.017143,2025-02-19T21:28:37Z,-0.152722,-0.022539,-0.006655,2025-02-19T21:28:37Z
41,250.960283,0.655025,7.258436,44.939068,278.370283,179.774836,2.256638,3,-93.177265,12.844783,2025-02-19T21:28:38Z,0.043968,-0.986991,-0.027899,2025-02-19T21:28:38Z,-0.100125,0.110862,-0.062552,2025-02-19T21:28:38Z
42,250.157763,0.705932,7.255667,44.938951,277.567762,172.523111,2.128893,3,-93.177229,13.071215,2025-02-19T21:28:39Z,0.032273,-0.990364,-0.019462,2025-02-19T21:28:39Z,-0.065177,0.084689,-0.006078,2025-02-19T21:28:39Z
43,250.344488,0.677405,7.258482,44.938825,277.754488,178.24828,2.795466,3,-93.177247,13.607138,2025-02-19T21:28:40Z,0.031925,-1.008594,-0.021808,2025-02-19T21:28:40Z,-0.149857,-0.09788,-0.064285,2025-02-19T21:28:40Z
44,250.407744,0.65247,7.258935,44.938709,277.817744,182.108483,2.394594,3,-93.177263,13.387774,2025-02-19T21:28:41Z,0.022032,-0.995083,-0.015727,2025-02-19T21:28:41Z,-0.246389,0.040011,0.024105,2025-02-19T21:28:41Z
45,250.822422,0.653395,7.257834,44.938591,278.232422,180.773625,2.194759,3,-93.177262,13.259011,2025-02-19T21:28:42Z,0.011034,-0.996166,-0.015196,2025-02-19T21:28:42Z,-0.313702,0.033022,-0.063453,2025-02-19T21:28:42Z
46,250.667095,0.654292,7.25897,44.938468,278.077095,179.845385,2.195969,3,-93.177261,13.435061,2025-02-19T21:28:43Z,0.016165,-1.003251,-0.028648,2025-02-19T21:28:43Z,-0.256524,-0.048231,-0.119805,2025-02-19T21:28:43Z
47,249.715011,0.724237,7.252117,44.938347,277.125011,178.27288,2.095678,3,-93.177253,13.506989,2025-02-19T21:28:44Z,0.03574,-0.99546,-0.017982,2025-02-19T21:28:44Z,-0.06625,0.035375,-0.04177,2025-02-19T21:28:44Z
48,250.053667,0.681687,7.257006,44.938227,277.463667,178.927256,2.047138,3,-93.177255,13.516563,2025-02-19T21:28:45Z,0.046563,-0.99128,-0.010619,2025-02-19T21:28:45Z,0.048589,0.077317,0.037368,2025-02-19T21:28:45Z
49,250.608136,0.664951,7.258912,44.938104,278.018136,180.619137,2.023027,3,-93.177262,13.666857,2025-02-19T21:28:46Z,0.038013,-1.001196,-0.018355,2025-02-19T21:28:46Z,7.79e-4,-0.021107,-0.049958,2025-02-19T21:28:46Z
50,251.238954,0.661354,7.257012,44.937981,278.648954,180.619257,2.011197,3,-93.177262,13.739152,2025-02-19T21:28:47Z,0.023507,-1.00739,-0.018157,2025-02-19T21:28:47Z,-0.19367,-0.082909,-0.087578,2025-02-19T21:28:47Z
51,251.203882,0.656801,7.25872,44.937854,278.613882,180.294504,2.005349,3,-93.17726,13.880166,2025-02-19T21:28:48Z,0.026676,-0.967674,-0.028227,2025-02-19T21:28:48Z,-0.158721,0.311503,-0.010123,2025-02-19T21:28:48Z
52,251.62057,0.649277,7.258413,44.937729,279.03057,180.577274,2.002569,3,-93.177263,13.931159,2025-02-19T21:28:49Z,0.004947,-1.017551,-0.014994,2025-02-19T21:28:49Z,-0.208842,-0.178304,-0.026653,2025-02-19T21:28:49Z
53,252.603967,0.69635,7.252305,44.937604,280.013967,177.884694,2.024238,3,-93.177251,13.938858,2025-02-19T21:28:50Z,0.018799,-0.986893,-0.012414,2025-02-19T21:28:50Z,-0.145775,0.114668,2.71e-4,2025-02-19T21:28:50Z
54,251.274586,0.674102,7.255595,44.937474,278.684586,177.63072,2.011525,3,-93.177246,14.314905,2025-02-19T21:28:51Z,0.0183,-1.008505,-0.019311,2025-02-19T21:28:51Z,-0.129113,-0.091983,-0.059338,2025-02-19T21:28:51Z
55,251.716909,0.66675,7.258743,44.937352,279.126909,180.112385,2.005492,3,-93.177255,14.017912,2025-02-19T21:28:52Z,0.018875,-0.987553,-0.021538,2025-02-19T21:28:52Z,-0.147164,0.119985,-0.058001,2025-02-19T21:28:52Z
56,251.769669,0.660424,7.258943,44.93723,279.179669,180.185259,2.002649,3,-93.177255,13.717895,2025-02-19T21:28:53Z,0.019222,-0.999005,-0.020847,2025-02-19T21:28:53Z,-0.119453,0.00608,-0.008012,2025-02-19T21:28:53Z
57,251.785548,0.675695,7.258973,44.937103,279.195548,180.271638,2.092108,3,-93.177257,13.918048,2025-02-19T21:28:54Z,0.021805,-0.992585,-0.013862,2025-02-19T21:28:54Z,-0.100539,0.057907,0.019976,2025-02-19T21:28:54Z
58,251.979301,0.677958,7.258868,44.936976,279.3893,180.463826,2.343168,3,-93.17726,14.018417,2025-02-19T21:28:55Z,0.018263,-0.988668,-0.049436,2025-02-19T21:28:55Z,-0.096007,0.107762,-0.121965,2025-02-19T21:28:55Z
59,251.862567,0.659761,7.258713,44.936853,279.272566,180.300758,2.165005,3,-93.17726,13.838227,2025-02-19T21:28:56Z,0.01843,-1.012042,-0.032512,2025-02-19T21:28:56Z,-0.082312,-0.129536,-0.068348,2025-02-19T21:28:56Z
60,251.933457,0.657097,7.258974,44.936725,279.343457,179.908577,2.246565,3,-93.17726,14.00523,2025-02-19T21:28:57Z,0.015386,-0.993334,-0.01637,2025-02-19T21:28:57Z,-0.154469,0.057266,0.066085,2025-02-19T21:28:57Z
61,252.52582,0.665407,7.256949,44.936614,279.93582,180.230709,2.239911,3,-93.177264,13.049407,2025-02-19T21:28:58Z,0.020992,-0.998694,-0.040981,2025-02-19T21:28:58Z,-0.088272,0.001599,-0.10556,2025-02-19T21:28:58Z
62,251.857658,0.702009,7.258088,44.936484,279.267658,180.741516,2.115714,3,-93.177267,13.638341,2025-02-19T21:28:59Z,0.008828,-1.005106,-0.038044,2025-02-19T21:28:59Z,-0.246231,-0.055932,-0.05956,2025-02-19T21:28:59Z
63,252.113393,1.742945,9.802652,44.93635,279.523393,180.661648,2.054656,3,-93.177268,14.407122,2025-02-19T21:29:00Z,-0.006714,-0.997126,-0.037029,2025-02-19T21:29:00Z,-0.387418,0.01654,-0.070835,2025-02-19T21:29:00Z
64,252.583081,1.7471,10.370008,44.936232,279.993081,180.015534,2.026195,3,-93.177268,13.645398,2025-02-19T21:29:01Z,-0.00898,-0.994191,-0.052267,2025-02-19T21:29:01Z,-0.384512,0.049489,-0.145438,2025-02-19T21:29:01Z
65,252.671419,1.754287,10.745445,44.936114,280.081419,179.396503,2.012754,3,-93.177267,13.222985,2025-02-19T21:29:02Z,-0.00749,-0.979377,-0.058809,2025-02-19T21:29:02Z,-0.369168,0.19173,-0.191615,2025-02-19T21:29:02Z
66,252.520087,1.761596,11.171753,44.936,279.930087,179.875786,2.006332,3,-93.177268,12.776738,2025-02-19T21:29:03Z,-0.020591,-1.006632,-0.021376,2025-02-19T21:29:03Z,-0.299754,-0.067464,-0.045568,2025-02-19T21:29:03Z
67,252.588961,1.788792,11.884107,44.935892,279.998961,180.95607,2.536781,3,-93.177276,12.19599,2025-02-19T21:29:04Z,-0.012096,-0.997053,-0.047842,2025-02-19T21:29:04Z,-0.334097,0.022676,-0.12993,2025-02-19T21:29:04Z
68,252.673516,1.856646,14.03503,44.935802,280.083516,181.299293,2.286865,3,-93.177278,10.718924,2025-02-19T21:29:05Z,-0.002957,-1.00101,-0.034621,2025-02-19T21:29:05Z,-0.295543,-0.024357,0.0034390000000000002,2025-02-19T21:29:05Z
69,252.141693,1.806831,12.646282,44.935677,279.551693,179.014054,2.143682,3,-93.177268,11.571804,2025-02-19T21:29:06Z,0.02607,-0.993352,-0.03731,2025-02-19T21:29:06Z,0.023758,0.052637,0.033912,2025-02-19T21:29:06Z
70,252.553582,1.801854,12.352188,44.935566,279.963582,180.31833,2.14396,3,-93.177274,11.818998,2025-02-19T21:29:07Z,0.027207,-0.998604,-0.033856,2025-02-19T21:29:07Z,0.059795,0.005428,0.048651,2025-02-19T21:29:07Z
71,252.885029,1.784994,12.213294,44.935458,280.295029,180.415533,2.075547,3,-93.177274,11.842441,2025-02-19T21:29:08Z,0.0201,-1.000926,-0.037762,2025-02-19T21:29:08Z,-0.005747,-0.017282,0.017039,2025-02-19T21:29:08Z
72,252.964789,1.786778,12.148624,44.93535,280.374789,180.092545,2.117101,3,-93.177272,11.917373,2025-02-19T21:29:09Z,0.010729,-1.002748,-0.043891,2025-02-19T21:29:09Z,-0.096252,-0.032309,-0.059555,2025-02-19T21:29:09Z
73,253.319296,1.789888,12.586073,44.935249,280.729296,182.419144,2.177294,3,-93.177284,11.520763,2025-02-19T21:29:10Z,-0.00501,-0.990356,-0.030053,2025-02-19T21:29:10Z,-0.304034,0.082437,0.082251,2025-02-19T21:29:10Z
74,253.647165,1.834515,13.277576,44.935148,281.057165,179.186725,2.405613,3,-93.177271,11.194084,2025-02-19T21:29:11Z,-0.027276,-0.986792,0.007802,2025-02-19T21:29:11Z,-0.346924,0.117955,0.42698,2025-02-19T21:29:11Z
75,253.586721,1.836624,13.426579,44.935046,280.996721,175.974867,2.248058,3,-93.17726,11.08369,2025-02-19T21:29:12Z,-0.025129,-1.013238,-0.001748,2025-02-19T21:29:12Z,-0.337526,-0.135828,0.276176,2025-02-19T21:29:12Z
76,253.868406,1.819471,13.46848,44.934947,281.278405,174.373342,2.134137,3,-93.177247,10.939252,2025-02-19T21:29:13Z,-0.012387,-0.989868,-0.073988,2025-02-19T21:29:13Z,-0.277291,0.087069,-0.277694,2025-02-19T21:29:13Z
77,253.813881,1.838522,14.296236,44.934855,281.223881,174.659435,2.074269,3,-93.177235,10.412496,2025-02-19T21:29:14Z,-0.005805,-0.991882,-0.131522,2025-02-19T21:29:14Z,-0.219809,0.062743,-0.710491,2025-02-19T21:29:14Z
78,253.602967,1.887386,15.711854,44.93477,281.012967,177.832125,2.042199,3,-93.177236,9.733392,2025-02-19T21:29:15Z,-0.027772,-0.994764,-0.090211,2025-02-19T21:29:15Z,-0.397972,0.032244,-0.309489,2025-02-19T21:29:15Z
79,253.705981,1.890361,16.511631,44.934685,281.11598,178.981729,2.187781,3,-93.177234,9.276655,2025-02-19T21:29:16Z,-0.040207,-0.997237,-0.082849,2025-02-19T21:29:16Z,-0.5237,0.012767,-0.226327,2025-02-19T21:29:16Z
80,253.929719,1.926183,18.361077,44.934608,281.339719,179.646249,2.110327,3,-93.177234,8.498622,2025-02-19T21:29:17Z,-0.092785,-1.000605,-0.096924,2025-02-19T21:29:17Z,-0.977418,-0.02672,-0.323318,2025-02-19T21:29:17Z
81,254.038159,2.00047,22.004587,44.934542,281.448159,180.047117,2.158026,3,-93.177235,7.364137,2025-02-19T21:29:18Z,-0.126884,-0.996229,-0.103687,2025-02-19T21:29:18Z,-1.289293,0.01182,-0.351933,2025-02-19T21:29:18Z
82,253.955633,2.110116,29.088483,44.93449,281.365633,180.507784,2.111434,3,-93.177235,5.877908,2025-02-19T21:29:19Z,-0.151483,-0.998211,-0.111141,2025-02-19T21:29:19Z,-1.451477,-0.007492,-0.39166,2025-02-19T21:29:19Z
83,253.875849,2.290849,44.737572,44.934457,281.285849,180.148765,2.083575,3,-93.177235,4.140804,2025-02-19T21:29:20Z,-0.14832,-0.996074,-0.111814,2025-02-19T21:29:20Z,-1.277065,0.009302,-0.365363,2025-02-19T21:29:20Z
84,253.973789,2.543589,82.194786,44.934438,281.383789,179.473689,2.095596,3,-93.177232,2.426239,2025-02-19T21:29:21Z,-0.086569,-0.996547,-0.091152,2025-02-19T21:29:21Z,-0.64926,0.005224,-0.161316,2025-02-19T21:29:21Z
85,254.161639,3.599482,180,44.934433,281.571639,179.916321,2.079663,3,-93.177233,0.951279,2025-02-19T21:29:22Z,-0.048383,-0.995222,-0.092124,2025-02-19T21:29:22Z,-0.216439,0.007123,-0.060882,2025-02-19T21:29:22Z
86,254.347905,3.720016,180,44.934434,281.757905,179.916322,2.068283,3,-93.177232,0.047807,2025-02-19T21:29:23Z,0.045042,-0.994725,-0.049778,2025-02-19T21:29:23Z,0.647222,0.022401,0.214691,2025-02-19T21:29:23Z
87,254.409698,3.750612,180,44.934434,281.819698,179.916322,2.229216,3,-93.177232,0.065648,2025-02-19T21:29:24Z,0.040519,-0.995302,-0.054931,2025-02-19T21:29:24Z,0.609133,0.015733,0.196665,2025-02-19T21:29:24Z
88,NA,NA,NA,NA,NA,NA,NA,NA,NA,NA,NA,0.041195,-0.996551,-0.050586,2025-02-19T21:29:25Z,0.613191,0.007757,0.194518,2025-02-19T21:29:25Z
