seconds_elapsed,location_altitude,location_speedAccuracy,location_bearingAccuracy,location_latitude,location_altitudeAboveMeanSeaLevel,location_bearing,location_horizontalAccuracy,location_verticalAccuracy,location_longitude,location_speed,location_local_time,accelerometerUncalibrated_z,accelerometerUncalibrated_y,accelerometerUncalibrated_x,accelerometerUncalibrated_local_time,accelerometer_z,accelerometer_y,accelerometer_x,accelerometer_local_time
0,258.747313,2.310139,44.9341,44.939993,286.157312,212.94917,2.357121,3,-93.16962,4.139575,2025-02-19T22:03:06Z,-0.245317,-0.986108,0.084873,2025-02-19T22:03:06Z,-0.455812,-0.081015,1.430114,2025-02-19T22:03:06Z
1,258.679986,2.272201,41.393697,44.93995,286.089985,195.023233,2.384744,3,-93.169626,4.441419,2025-02-19T22:03:07Z,-0.195214,-0.995331,0.04174,2025-02-19T22:03:07Z,-0.246652,-0.107174,0.855251,2025-02-19T22:03:07Z
2,258.935502,2.243637,37.140228,44.939903,286.345502,180.151602,2.38278,3,-93.169618,4.87885,2025-02-19T22:03:08Z,-0.158118,-0.987123,-0.038607,2025-02-19T22:03:08Z,-0.048983,0.002279,0.00427,2025-02-19T22:03:08Z
3,258.976028,2.216459,34.345863,44.939854,286.386028,180,2.379188,3,-93.16961,5.209018,2025-02-19T22:03:09Z,-0.146461,-0.982409,-0.015566,2025-02-19T22:03:09Z,0.080862,0.046723,0.192682,2025-02-19T22:03:09Z
4,259.091962,2.143535,28.985879,44.939798,286.501962,180,2.455346,3,-93.169604,5.941655,2025-02-19T22:03:10Z,-0.114339,-0.994202,-0.074374,2025-02-19T22:03:10Z,0.312347,-0.065073,-0.248189,2025-02-19T22:03:10Z
5,259.07532200000003,2.094543,26.117831,44.93974,286.485322,180,2.432642,3,-93.169598,6.483195,2025-02-19T22:03:12Z,-0.149008,-0.980882,-0.108037,2025-02-19T22:03:11Z,0.027364,0.068831,-0.591568,2025-02-19T22:03:11Z
6,259.821748,2.128358,26.429605,44.939685,287.231748,180,2.402249,3,-93.169593,6.313725,2025-02-19T22:03:13Z,-0.216509,-0.969172,-0.094262,2025-02-19T22:03:12Z,-0.612466,0.169512,-0.441209,2025-02-19T22:03:12Z
7,259.643745,2.130887,27.213601,44.939628,287.053745,180,2.402249,3,-93.169592,6.199993,2025-02-19T22:03:14Z,-0.155721,-0.987143,-0.062656,2025-02-19T22:03:13Z,0.011393,-0.004455,-0.126516,2025-02-19T22:03:13Z
8,259.474657,2.080792,24.730029,44.939566,286.884657,180,2.20469,3,-93.169593,6.660328,2025-02-19T22:03:15Z,-0.134676,-0.987758,-0.058892,2025-02-19T22:03:14Z,0.231362,-0.017451,-0.069795,2025-02-19T22:03:14Z
9,259.587821,2.044107,22.325191,44.939499,286.997821,180,2.206691,3,-93.169591,7.25107,2025-02-19T22:03:16Z,-0.153781,-0.98452,-0.072842,2025-02-19T22:03:15Z,0.013352,0.016553,-0.162353,2025-02-19T22:03:15Z
10,259.674076,2.009385,21.507638,44.93943,287.084076,179.512619,2.144222,3,-93.169588,7.457993,2025-02-19T22:03:17Z,-0.203851,-0.984043,-0.068076,2025-02-19T22:03:16Z,-0.453969,0.010487,-0.090005,2025-02-19T22:03:16Z
11,259.885459,2.015523,21.408989,44.939361,287.295459,179.512619,2.099948,3,-93.169585,7.4539859999999996,2025-02-19T22:03:18Z,-0.165172,-0.972113,-0.069925,2025-02-19T22:03:17Z,-0.122015,0.145717,-0.120865,2025-02-19T22:03:17Z
12,259.965463,2.02603,20.614189,44.939291,287.375462,179.512619,2.262191,3,-93.169584,7.677113,2025-02-19T22:03:19Z,-0.168267,-0.980154,-0.071424,2025-02-19T22:03:18Z,-0.105061,0.05168,-0.119333,2025-02-19T22:03:18Z
13,260.099567,2.026617,20.313752,44.939219,287.509567,179.512619,2.547822,3,-93.169584,7.815786,2025-02-19T22:03:20Z,-0.18131,-0.982322,-0.071305,2025-02-19T22:03:19Z,-0.219464,0.037881,-0.122632,2025-02-19T22:03:19Z
14,260.21982,2.031075,20.192961,44.939148,287.62982,179.512619,2.373468,3,-93.169585,7.835922,2025-02-19T22:03:21Z,-0.204549,-0.970818,-0.077266,2025-02-19T22:03:20Z,-0.413088,0.136259,-0.152184,2025-02-19T22:03:20Z
15,260.282133,2.009082,21.20608,44.93908,287.692132,180,2.255766,3,-93.169589,7.589601,2025-02-19T22:03:22Z,-0.223596,-0.970996,-0.078174,2025-02-19T22:03:21Z,-0.553365,0.125675,-0.155363,2025-02-19T22:03:21Z
16,260.556999,2.016883,22.192242,44.939013,287.966998,180,2.175493,3,-93.169591,7.260821,2025-02-19T22:03:23Z,-0.201149,-0.969194,-0.073048,2025-02-19T22:03:22Z,-0.304403,0.138494,-0.053021,2025-02-19T22:03:22Z
17,260.526133,2.010951,22.341583,44.938947,287.936133,180.236633,2.248825,3,-93.169591,7.290772,2025-02-19T22:03:24Z,-0.175906,-0.96767,-0.055835,2025-02-19T22:03:23Z,0.071783,0.1282,0.052864,2025-02-19T22:03:23Z
18,260.610744,2.013838,21.544242,44.938879,288.020744,180.236633,2.174826,3,-93.169591,7.487086,2025-02-19T22:03:25Z,-0.194692,-0.99183,-0.064166,2025-02-19T22:03:24Z,-0.128065,-0.09414,-0.155713,2025-02-19T22:03:24Z
19,260.561924,2.001952,21.261852,44.938811,287.971924,180.236633,2.122052,3,-93.169588,7.575557,2025-02-19T22:03:26Z,-0.190972,-0.984443,-0.05465,2025-02-19T22:03:25Z,-0.118886,-0.022361,-0.053471,2025-02-19T22:03:25Z
20,260.513384,1.996478,21.183903,44.938743,287.923384,180.236633,2.093046,3,-93.169588,7.626109,2025-02-19T22:03:27Z,-0.180398,-0.977365,-0.074839,2025-02-19T22:03:26Z,-0.014771,0.049169,-0.149954,2025-02-19T22:03:26Z
21,260.549372,1.989769,20.854907,44.938674,287.959372,180.236633,2.186776,3,-93.169588,7.688402,2025-02-19T22:03:28Z,-0.209517,-0.982957,-0.069501,2025-02-19T22:03:27Z,-0.227012,-0.021716,-0.0827,2025-02-19T22:03:27Z
22,260.729562,1.988924,20.879035,44.938606,288.139562,180.236633,2.12911,3,-93.169589,7.655188,2025-02-19T22:03:29Z,-0.211012,-0.964921,-0.065172,2025-02-19T22:03:28Z,-0.32019,0.170839,-0.056983,2025-02-19T22:03:28Z
23,260.905971,2.015696,21.909213,44.938541,288.315971,180.236633,2.479286,3,-93.169589,7.332959,2025-02-19T22:03:30Z,-0.256969,-0.958508,-0.079223,2025-02-19T22:03:29Z,-0.721531,0.21978,-0.184793,2025-02-19T22:03:29Z
24,260.989427,2.046621,25.112872,44.938482,288.399427,180.236633,2.560874,3,-93.169592,6.597,2025-02-19T22:03:31Z,-0.290668,-0.957634,-0.09589,2025-02-19T22:03:30Z,-0.909064,0.202699,-0.331338,2025-02-19T22:03:30Z
25,261.225014,2.187402,29.753313,44.938431,288.635014,180.236633,2.409811,3,-93.169596,5.726302,2025-02-19T22:03:32Z,-0.269998,-0.958512,-0.112212,2025-02-19T22:03:31Z,-0.795428,0.212684,-0.513782,2025-02-19T22:03:31Z
26,261.140658,2.236983,36.080072,44.938389,288.550658,180.545914,2.327848,3,-93.169603,4.961673,2025-02-19T22:03:33Z,-0.204168,-0.972874,-0.195106,2025-02-19T22:03:32Z,-0.14168,0.061175,-1.190973,2025-02-19T22:03:32Z
27,261.354646,2.243725,37.620046,44.938349,288.764646,180.545914,2.393151,3,-93.169638,4.796684,2025-02-19T22:03:34Z,-0.201399,-0.967714,-0.253976,2025-02-19T22:03:33Z,-0.193822,0.118262,-1.70333,2025-02-19T22:03:33Z
28,261.278256,2.277203,40.361939,44.938324,288.688256,221.399917,5.293967,3,-93.169625,4.537126,2025-02-19T22:03:35Z,-0.183604,-0.963585,-0.196343,2025-02-19T22:03:34Z,-0.152076,0.192777,-1.245855,2025-02-19T22:03:34Z
29,261.209814,2.301229,42.580911,44.938312,288.619814,240.300277,8.753097,3,-93.169637,4.348663,2025-02-19T22:03:36Z,-0.150161,-0.981474,-0.124291,2025-02-19T22:03:35Z,0.158509,0.021493,-0.576771,2025-02-19T22:03:35Z
30,261.224281,2.266081,40.350497,44.938309,288.634281,267.568451,2.516885,3,-93.169797,4.55045,2025-02-19T22:03:37Z,-0.16242,-0.962103,-0.111567,2025-02-19T22:03:36Z,0.203295,0.181627,-0.332526,2025-02-19T22:03:36Z
31,261.053172,2.214219,34.586493,44.938313,288.463172,269.100006,2.465196,3,-93.169865,5.180739,2025-02-19T22:03:38Z,-0.106784,-1.008977,-0.053818,2025-02-19T22:03:37Z,0.699137,-0.280452,0.229277,2025-02-19T22:03:37Z
32,261.129322,2.107918,27.303726,44.938314,288.539322,269.100006,2.424642,3,-93.169948,6.255595,2025-02-19T22:03:39Z,-0.141802,-0.995164,-0.052145,2025-02-19T22:03:38Z,0.185467,-0.116192,0.357216,2025-02-19T22:03:38Z
33,261.244768,2.043019,24.12167,44.938317,288.654767,269.740295,2.378186,3,-93.170037,6.840597,2025-02-19T22:03:40Z,-0.186569,-0.976759,-0.035342,2025-02-19T22:03:39Z,-0.330656,0.072791,0.430156,2025-02-19T22:03:39Z
34,260.989168,2.046729,23.405169,44.938321,288.399168,269.740295,2.345374,3,-93.170126,7.083959,2025-02-19T22:03:41Z,-0.192643,-0.987167,-0.016657,2025-02-19T22:03:40Z,-0.350053,-0.008144,0.465648,2025-02-19T22:03:40Z
35,260.911031,2.034085,23.145268,44.938321,288.321031,269.740295,2.441075,3,-93.170215,7.105129,2025-02-19T22:03:42Z,-0.255788,-0.962881,-0.039749,2025-02-19T22:03:41Z,-0.941005,0.213038,0.232166,2025-02-19T22:03:41Z
36,260.895497,2.057578,26.000482,44.938325,288.305496,269.740295,2.413877,3,-93.170292,6.399109,2025-02-19T22:03:43Z,-0.262983,-0.960546,-0.037957,2025-02-19T22:03:42Z,-0.949294,0.232749,0.232367,2025-02-19T22:03:42Z
37,260.756016,2.101052,28.537493,44.938325,288.166016,269.740295,2.338098,3,-93.170367,5.963678,2025-02-19T22:03:44Z,-0.278068,-0.959132,-0.01851,2025-02-19T22:03:43Z,-1.009449,0.232599,0.440674,2025-02-19T22:03:43Z
38,260.699949,2.16875,32.543248,44.938322,288.109949,269.740295,2.28125,3,-93.170435,5.395875,2025-02-19T22:03:45Z,-0.276991,-0.974268,0.025922,2025-02-19T22:03:44Z,-0.952768,0.083832,0.868123,2025-02-19T22:03:44Z
39,260.825659,2.21538,36.489991,44.938311,288.235659,269.740295,2.241072,3,-93.170495,4.913793,2025-02-19T22:03:46Z,-0.267229,-0.963548,0.089952,2025-02-19T22:03:45Z,-0.882475,0.163708,1.556789,2025-02-19T22:03:45Z
40,260.707089,2.237891,37.696592,44.938316,288.117088,269.740295,3.89206,3,-93.170546,4.810321,2025-02-19T22:03:47Z,-0.224405,-0.986786,0.109664,2025-02-19T22:03:46Z,-0.323753,-0.071341,1.695995,2025-02-19T22:03:46Z
41,260.661613,2.206813,34.869776,44.938309,288.071613,223.524221,7.546461,3,-93.170586,5.127352,2025-02-19T22:03:48Z,-0.199032,-0.979921,0.118457,2025-02-19T22:03:47Z,-0.068563,-0.010114,1.825784,2025-02-19T22:03:47Z
42,260.61534,2.15956,31.259566,44.938195,288.02534000000003,205.342057,2.208849,3,-93.170609,5.595267,2025-02-19T22:03:49Z,-0.179891,-0.98609,0.028343,2025-02-19T22:03:48Z,0.15115,-0.08806,1.087932,2025-02-19T22:03:48Z
43,260.550299,2.111229,27.73288,44.938137,287.960299,193.292446,2.302484,3,-93.170622,6.168189,2025-02-19T22:03:50Z,-0.170348,-0.991437,0.002634,2025-02-19T22:03:49Z,0.10442,-0.107597,0.806209,2025-02-19T22:03:49Z
44,260.609351,2.074025,25.657965,44.938076,288.019351,187.923625,2.271415,3,-93.170628,6.548182,2025-02-19T22:03:51Z,-0.214797,-0.983952,-0.056568,2025-02-19T22:03:50Z,-0.468924,0.003312,0.0745,2025-02-19T22:03:50Z
45,260.509682,2.100606,27.41544,44.938021,287.919682,183.867142,2.240202,3,-93.170627,6.18756,2025-02-19T22:03:52Z,-0.279205,-0.957144,-0.100939,2025-02-19T22:03:51Z,-1.155248,0.270384,-0.352467,2025-02-19T22:03:51Z
46,260.360559,2.197294,34.942888,44.937978,287.770559,181.40407,2.216182,3,-93.170621,5.087776,2025-02-19T22:03:53Z,-0.294012,-0.952362,-0.120785,2025-02-19T22:03:52Z,-1.204782,0.302979,-0.589396,2025-02-19T22:03:52Z
47,260.16596,2.300588,45.758467,44.937945,287.57596,180.982529,2.19939,3,-93.170619,4.065137,2025-02-19T22:03:54Z,-0.302793,-0.948417,-0.107936,2025-02-19T22:03:53Z,-1.170487,0.320437,-0.504626,2025-02-19T22:03:53Z
48,260.148791,2.439846,63.009239,44.93792,287.558791,180.735087,2.182774,3,-93.170617,3.091146,2025-02-19T22:03:55Z,-0.284103,-0.956059,-0.106817,2025-02-19T22:03:54Z,-0.856844,0.225634,-0.433989,2025-02-19T22:03:54Z
49,260.198911,3.13699,83.607898,44.937905,287.608911,180.460095,2.168714,3,-93.170615,2.105136,2025-02-19T22:03:56Z,-0.203302,-0.98667,-0.096087,2025-02-19T22:03:55Z,-0.13083,-0.080112,-0.273011,2025-02-19T22:03:55Z
50,260.197324,2.720242,93.709501,44.937886,287.607324,180.460909,2.206694,3,-93.170614,2.105854,2025-02-19T22:03:57Z,-0.193661,-0.945614,-0.103786,2025-02-19T22:03:56Z,0.25675,0.260418,-0.178265,2025-02-19T22:03:56Z
51,260.141321,2.994856,80.153412,44.937866,287.551321,180.515828,2.223839,3,-93.170613,2.298722,2025-02-19T22:03:58Z,-0.102081,-1.003178,-0.091696,2025-02-19T22:03:57Z,0.985568,-0.279238,0.013161,2025-02-19T22:03:57Z
52,260.096689,2.508114,58.691538,44.937835,287.506689,180.465872,2.209849,3,-93.170612,3.287004,2025-02-19T22:03:59Z,-0.090951,-0.996003,-0.086691,2025-02-19T22:03:58Z,1.1163,-0.209831,0.066948,2025-02-19T22:03:58Z
53,260.078116,2.318578,42.270423,44.937792,287.488116,180.484735,2.197505,3,-93.170611,4.40175,2025-02-19T22:04:00Z,-0.099768,-0.996208,-0.083786,2025-02-19T22:03:59Z,0.982097,-0.200814,0.042085,2025-02-19T22:03:59Z
54,260.107802,2.198584,33.011883,44.93774,287.517802,180.173229,2.190516,3,-93.170609,5.382727,2025-02-19T22:04:01Z,-0.108666,-0.995886,-0.096907,2025-02-19T22:04:00Z,0.747411,-0.178635,-0.006342,2025-02-19T22:04:00Z
55,260.227914,2.14458,27.752141,44.937683,287.637914,180.183177,2.238496,3,-93.170608,6.125458,2025-02-19T22:04:02Z,-0.122158,-1.00013,-0.10009,2025-02-19T22:04:01Z,0.36611,-0.170091,-0.053771,2025-02-19T22:04:01Z
56,260.66643,2.541588,22.101421,44.937622,288.07643,179.838453,2.221697,3,-93.170604,6.542087,2025-02-19T22:04:03Z,-0.127483,-1.002132,-0.091988,2025-02-19T22:04:02Z,0.013057,-0.128955,-0.161205,2025-02-19T22:04:02Z
57,261.117284,2.250837,23.147896,44.937559,288.527284,179.372623,2.196539,3,-93.170598,6.819815,2025-02-19T22:04:04Z,-0.136383,-0.992286,-0.046473,2025-02-19T22:04:03Z,-0.10776,-0.019868,0.07974,2025-02-19T22:04:03Z
58,261.472741,2.172298,23.751463,44.937497,288.882741,178.99678,2.17199,3,-93.170594,6.80247,2025-02-19T22:04:05Z,-0.225034,-0.967283,-0.048521,2025-02-19T22:04:04Z,-0.865899,0.21578,6.25e-4,2025-02-19T22:04:04Z
59,261.630294,2.142582,27.119658,44.937442,289.040294,177.228253,2.251226,3,-93.170585,6.185029,2025-02-19T22:04:06Z,-0.215223,-0.965364,-0.103688,2025-02-19T22:04:05Z,-0.732884,0.220354,-0.308656,2025-02-19T22:04:05Z
60,262.033631,2.342645,29.860307,44.937392,289.443631,178.999313,2.434591,3,-93.170611,5.553081,2025-02-19T22:04:07Z,-0.213978,-0.956886,-0.112935,2025-02-19T22:04:06Z,-0.664882,0.281095,-0.258147,2025-02-19T22:04:06Z
61,262.1476,2.447228,35.192748,44.937349,289.5576,178.999313,2.420896,3,-93.170609,4.818583,2025-02-19T22:04:08Z,-0.28925,-0.949341,-0.133996,2025-02-19T22:04:07Z,-1.265345,0.320013,-0.403333,2025-02-19T22:04:07Z
62,262.024768,2.358176,52.428037,44.937319,289.434767,178.999313,2.49146,3,-93.170609,3.631899,2025-02-19T22:04:09Z,-0.314747,-0.931183,-0.1441,2025-02-19T22:04:08Z,-1.105108,0.422073,-0.430936,2025-02-19T22:04:08Z
63,262.166237,2.541005,85.567794,44.937299,289.576236,178.999313,2.442314,3,-93.170608,2.369796,2025-02-19T22:04:10Z,-0.307205,-0.962006,-0.122655,2025-02-19T22:04:09Z,-0.857577,0.079299,-0.166737,2025-02-19T22:04:09Z
64,262.189251,2.561645,118.918223,44.937285,289.599251,178.999313,2.42062,3,-93.170608,1.71524,2025-02-19T22:04:11Z,-0.169135,-0.973177,-0.133768,2025-02-19T22:04:10Z,0.367243,-0.033667,-0.052552,2025-02-19T22:04:10Z
65,262.108575,2.775451,104.413841,44.937267,289.518575,175.609421,2.487662,3,-93.170584,1.874109,2025-02-19T22:04:12Z,-0.147416,-0.963004,-0.138802,2025-02-19T22:04:11Z,0.702833,0.037616,-0.128664,2025-02-19T22:04:11Z
66,262.332751,2.55582,78.669606,44.937241,289.74275,178.623444,2.615767,3,-93.170561,2.587691,2025-02-19T22:04:13Z,-0.126371,-0.996039,-0.081087,2025-02-19T22:04:12Z,0.831795,-0.235577,0.273827,2025-02-19T22:04:12Z
67,262.370177,2.447887,58.823698,44.937208,289.780177,178.623322,2.606514,3,-93.170564,3.328932,2025-02-19T22:04:14Z,-0.098194,-0.995039,-0.094187,2025-02-19T22:04:13Z,0.95697,-0.204082,0.171285,2025-02-19T22:04:13Z
68,262.397136,2.306816,42.530693,44.937164,289.807136,180.311386,2.601388,3,-93.170566,4.380334,2025-02-19T22:04:15Z,-0.096107,-0.991112,-0.099716,2025-02-19T22:04:14Z,0.96969,-0.166673,0.160586,2025-02-19T22:04:14Z
69,262.475638,2.192892,32.488883,44.937111,289.885638,180.311386,2.582248,3,-93.170567,5.462598,2025-02-19T22:04:16Z,-0.106178,-0.990439,-0.091174,2025-02-19T22:04:15Z,0.85248,-0.150898,0.177425,2025-02-19T22:04:15Z
70,262.55078,2.081027,25.75462,44.937049,289.96078,180.311386,2.578736,3,-93.170569,6.544698,2025-02-19T22:04:17Z,-0.150745,-0.986444,-0.086995,2025-02-19T22:04:16Z,0.419511,-0.102556,0.167104,2025-02-19T22:04:16Z
71,262.400602,2.049803,24.190792,44.936986,289.810601,181.198532,2.523138,3,-93.170571,6.852729,2025-02-19T22:04:18Z,-0.237818,-0.960934,-0.113341,2025-02-19T22:04:17Z,-0.420941,0.131726,-0.054451,2025-02-19T22:04:17Z
72,262.28898,2.095723,26.103096,44.93693,289.69898,181.198532,2.746241,3,-93.17057,6.476208,2025-02-19T22:04:19Z,-0.261125,-0.958677,-0.12047,2025-02-19T22:04:18Z,-0.628074,0.153595,-0.110937,2025-02-19T22:04:18Z
73,262.26083,2.126061,29.21931,44.936878,289.670829,181.198532,2.659975,3,-93.17057,5.87361,2025-02-19T22:04:20Z,-0.354959,-0.940864,-0.123495,2025-02-19T22:04:19Z,-1.498128,0.319314,-0.156409,2025-02-19T22:04:19Z
74,262.114822,2.266476,42.606537,44.936842,289.524821,178.076904,2.577478,3,-93.170569,4.305775,2025-02-19T22:04:21Z,-0.435234,-0.920885,-0.140808,2025-02-19T22:04:20Z,-2.220029,0.503391,-0.34909,2025-02-19T22:04:20Z
75,261.949596,2.500534,88.755706,44.936827,289.359596,173.429581,2.558513,3,-93.170566,2.281552,2025-02-19T22:04:22Z,-0.299273,-0.959653,-0.112591,2025-02-19T22:04:21Z,-0.82374,0.113293,-0.061737,2025-02-19T22:04:21Z
76,261.891638,2.584156,122.879682,44.936817,289.301638,173.429581,2.674578,3,-93.170567,1.645054,2025-02-19T22:04:23Z,-0.160546,-0.968695,-0.103704,2025-02-19T22:04:22Z,0.54846,0.008101,0.054558,2025-02-19T22:04:22Z
77,261.753952,2.528151,101.037501,44.936799,289.163952,173.429581,2.628534,3,-93.170563,2.022235,2025-02-19T22:04:24Z,-0.138821,-0.991084,-0.075354,2025-02-19T22:04:23Z,0.927117,-0.245433,0.297242,2025-02-19T22:04:23Z
78,261.696787,2.569049,70.996159,44.936772,289.106787,170.974579,2.645859,3,-93.170558,2.808088,2025-02-19T22:04:25Z,-0.107347,-0.991854,-0.068481,2025-02-19T22:04:24Z,1.110009,-0.203727,0.301612,2025-02-19T22:04:24Z
79,261.770249,2.381933,48.99805,44.936735,289.180249,166.815186,2.596178,3,-93.17055,3.890602,2025-02-19T22:04:26Z,-0.121878,-0.993649,-0.053727,2025-02-19T22:04:25Z,0.92965,-0.214954,0.418796,2025-02-19T22:04:25Z
80,262.014117,2.247387,37.459683,44.936689,289.424116,160.417297,2.728902,3,-93.170533,4.859187,2025-02-19T22:04:27Z,-0.132239,-0.997675,-0.045392,2025-02-19T22:04:26Z,0.747834,-0.242938,0.49447,2025-02-19T22:04:26Z
81,262.006114,2.149272,31.023695,44.93664,289.416114,156.160706,2.680308,3,-93.170506,5.612372,2025-02-19T22:04:28Z,-0.188934,-0.983559,-0.016931,2025-02-19T22:04:27Z,0.086919,-0.07299,0.718754,2025-02-19T22:04:27Z
82,262.030257,2.154724,30.196252,44.936594,289.440257,150.732285,2.693249,3,-93.170463,5.780597,2025-02-19T22:04:29Z,-0.234606,-0.974869,-0.006029,2025-02-19T22:04:28Z,-0.397869,0.026639,0.700478,2025-02-19T22:04:28Z
83,261.885952,2.155711,30.957254,44.936555,289.295952,145.530701,2.666449,3,-93.170418,5.642366,2025-02-19T22:04:30Z,-0.208823,-0.975584,-0.027921,2025-02-19T22:04:29Z,-0.15845,0.034528,0.402685,2025-02-19T22:04:29Z
84,261.901613,2.146499,30.29363,44.936519,289.311613,138.233734,2.68219,3,-93.170363,5.741315,2025-02-19T22:04:31Z,-0.184772,-0.964368,-0.186034,2025-02-19T22:04:30Z,0.025241,0.138386,-0.979968,2025-02-19T22:04:30Z
85,261.297418,2.139661,30.104469,44.93648,288.707418,150.116165,2.646285,3,-93.170316,5.746618,2025-02-19T22:04:32Z,-0.245528,-0.941416,-0.290305,2025-02-19T22:04:31Z,-0.519221,0.343551,-1.860082,2025-02-19T22:04:31Z
86,261.207089,2.205225,37.368132,44.936436,288.617089,159.605469,2.613971,3,-93.170308,4.77764,2025-02-19T22:04:33Z,-0.373424,-0.925032,-0.223807,2025-02-19T22:04:32Z,-1.674684,0.475299,-1.216555,2025-02-19T22:04:32Z
87,260.939355,2.43001,60.278255,44.936412,288.349355,175.37381,2.583273,3,-93.170307,3.208276,2025-02-19T22:04:34Z,-0.318013,-0.944437,-0.138997,2025-02-19T22:04:33Z,-1.096024,0.283451,-0.334899,2025-02-19T22:04:33Z
88,260.829216,2.708173,90.023374,44.936395,288.239216,175.37381,2.617139,3,-93.170309,2.18338,2025-02-19T22:04:35Z,-0.202585,-0.968251,-0.12352,2025-02-19T22:04:34Z,-0.15377,0.073505,-0.105699,2025-02-19T22:04:34Z
89,260.907038,3.286316,86.413971,44.936379,288.317038,178.325485,2.598874,3,-93.170308,1.927884,2025-02-19T22:04:36Z,-0.168991,-0.996557,-0.075304,2025-02-19T22:04:35Z,0.309221,-0.219768,0.291706,2025-02-19T22:04:35Z
90,261.024243,2.632084,89.187069,44.936358,288.434242,178.325485,2.633489,3,-93.170306,2.252438,2025-02-19T22:04:37Z,-0.108846,-0.981372,-0.090649,2025-02-19T22:04:36Z,1.003488,-0.107887,0.235017,2025-02-19T22:04:36Z
91,260.841645,2.714935,58.47476,44.936327,288.251645,178.775528,2.733093,3,-93.170303,3.18671,2025-02-19T22:04:38Z,-0.110369,-0.993206,-0.087989,2025-02-19T22:04:37Z,0.864859,-0.190436,0.236494,2025-02-19T22:04:37Z
92,261.20998,2.336211,46.570024,44.936288,288.61998,178.775528,2.746356,3,-93.170299,4.038194,2025-02-19T22:04:39Z,-0.098344,-0.997454,-0.098138,2025-02-19T22:04:38Z,0.83626,-0.204462,0.128619,2025-02-19T22:04:38Z
93,261.302943,2.251848,36.794649,44.936242,288.712943,178.775528,2.87853,3,-93.170298,4.929238,2025-02-19T22:04:40Z,-0.10372,-0.988582,-0.103154,2025-02-19T22:04:39Z,0.748142,-0.107389,0.064651,2025-02-19T22:04:39Z
94,261.137329,2.151454,30.279473,44.936189,288.547329,180.075195,2.849441,3,-93.170298,5.752833,2025-02-19T22:04:41Z,-0.113769,-0.982385,-0.097308,2025-02-19T22:04:40Z,0.664545,-0.04928,0.079061,2025-02-19T22:04:40Z
95,261.052975,2.088766,25.895973,44.936128,288.462975,180.075195,2.829296,3,-93.170304,6.52432,2025-02-19T22:04:42Z,-0.135933,-0.993186,-0.081273,2025-02-19T22:04:41Z,0.405301,-0.143207,0.273195,2025-02-19T22:04:41Z
96,261.036603,2.04822,22.982157,44.936063,288.446603,180.075195,2.762616,3,-93.170311,7.176823,2025-02-19T22:04:43Z,-0.147995,-0.989442,-0.078977,2025-02-19T22:04:42Z,0.218241,-0.108337,0.325548,2025-02-19T22:04:42Z
97,261.153801,2.021479,21.940432,44.935995,288.5638,180.075195,2.647286,3,-93.170315,7.464588,2025-02-19T22:04:44Z,-0.161616,-0.97759,-0.087388,2025-02-19T22:04:43Z,0.027641,0.03721,0.130044,2025-02-19T22:04:43Z
98,261.125261,1.982596,20.636727,44.935925,288.535261,180.075195,2.667758,3,-93.170311,7.780711,2025-02-19T22:04:45Z,-0.150542,-0.97576,-0.105469,2025-02-19T22:04:44Z,0.113343,0.051795,-0.001028,2025-02-19T22:04:44Z
99,261.046912,1.963587,19.30733,44.935849,288.456911,180.075195,2.492507,3,-93.17031,8.193465,2025-02-19T22:04:46Z,-0.161796,-0.979643,-0.105834,2025-02-19T22:04:45Z,0.069955,0.007242,-0.005772,2025-02-19T22:04:45Z
100,261.139402,1.961288,18.695517,44.935772,288.549402,180.075195,2.750536,3,-93.170313,8.478565,2025-02-19T22:04:47Z,-0.191047,-0.997608,-0.11938,2025-02-19T22:04:46Z,-0.232625,-0.167315,-0.051667,2025-02-19T22:04:46Z
101,261.278007,1.920054,17.918982,44.935693,288.688007,180.075195,2.492863,3,-93.170313,8.654817,2025-02-19T22:04:48Z,-0.192878,-0.954063,-0.098658,2025-02-19T22:04:47Z,-0.310966,0.256809,0.044778,2025-02-19T22:04:47Z
102,261.323087,1.932968,18.411984,44.935617,288.733087,180.075195,2.323751,3,-93.170314,8.499084,2025-02-19T22:04:49Z,-0.212611,-0.974631,-0.100948,2025-02-19T22:04:48Z,-0.471481,0.060687,0.04207,2025-02-19T22:04:48Z
103,261.354964,1.953015,18.973020000000002,44.935541,288.764964,180.075195,2.213403,3,-93.170314,8.3400010000000009,2025-02-19T22:04:50Z,-0.204263,-0.97008,-0.108324,2025-02-19T22:04:49Z,-0.35645,0.094775,0.007622,2025-02-19T22:04:49Z
104,261.49673,1.944496,19.150916,44.935467,288.90673,180.631439,2.396797,3,-93.170311,8.219934,2025-02-19T22:04:51Z,-0.206139,-0.966398,-0.111133,2025-02-19T22:04:50Z,-0.319756,0.124622,-0.069321,2025-02-19T22:04:50Z
105,261.470005,1.958413,19.316677,44.935393,288.880005,180.631439,2.265565,3,-93.170311,8.21286,2025-02-19T22:04:52Z,-0.186719,-0.974092,-0.100607,2025-02-19T22:04:51Z,-0.048695,0.045235,-0.036483,2025-02-19T22:04:51Z
106,261.484939,1.934728,18.692815,44.935317,288.894939,180.631439,2.177962,3,-93.170311,8.385984,2025-02-19T22:04:53Z,-0.178229,-0.977124,-0.087867,2025-02-19T22:04:52Z,0.039221,0.019027,0.052196,2025-02-19T22:04:52Z
107,261.467135,1.912471,17.998807,44.935239,288.877134,180.631439,2.118048,3,-93.170314,8.608248,2025-02-19T22:04:54Z,-0.20597,-0.977614,-0.099958,2025-02-19T22:04:53Z,-0.240009,0.010849,-0.032216,2025-02-19T22:04:53Z
108,261.57105,1.930509,18.359812,44.935164,288.98105,180.631439,2.430039,3,-93.170311,8.512796,2025-02-19T22:04:55Z,-0.223368,-0.969558,-0.092958,2025-02-19T22:04:54Z,-0.459365,0.083576,0.182365,2025-02-19T22:04:54Z
109,261.646109,1.939764,19.238036,44.935091,289.056109,180.631439,2.52658,3,-93.170309,8.1676,2025-02-19T22:04:56Z,-0.225729,-0.969318,-0.124636,2025-02-19T22:04:55Z,-0.436665,0.074555,-0.151277,2025-02-19T22:04:55Z
110,261.833869,1.964569,20.222443,44.935022,289.243869,180.631439,2.667185,3,-93.170305,7.862953,2025-02-19T22:04:57Z,-0.346269,-0.93526,-0.145141,2025-02-19T22:04:56Z,-1.5714920000000001,0.398362,-0.327697,2025-02-19T22:04:56Z
111,261.682824,2.1163,29.582574,44.934973,289.092824,180.631439,2.46306,3,-93.170306,5.795662,2025-02-19T22:04:58Z,-0.448171,-0.915706,-0.159615,2025-02-19T22:04:57Z,-2.445898,0.56772,-0.45893,2025-02-19T22:04:57Z
112,261.679512,2.371173,54.155932,44.934946,289.089512,180.631439,2.828749,3,-93.170305,3.507151,2025-02-19T22:04:59Z,-0.338871,-0.938116,-0.136937,2025-02-19T22:04:58Z,-1.215798,0.309889,-0.22337,2025-02-19T22:04:58Z
113,261.784717,2.706197,82.877356,44.93493,289.194717,179.753693,2.662999,3,-93.170305,2.368692,2025-02-19T22:05:00Z,-0.186919,-0.948658,-0.117653,2025-02-19T22:04:59Z,0.270703,0.208572,-0.006312,2025-02-19T22:04:59Z
114,261.532325,2.774276,85.442455,44.934911,288.942325,179.753693,2.831663,3,-93.170311,2.28294,2025-02-19T22:05:01Z,-0.231444,-0.982002,-0.107776,2025-02-19T22:05:00Z,0.136918,-0.194449,0.071874,2025-02-19T22:05:00Z
115,261.647011,2.604675,87.01744,44.934888,289.057011,179.753693,2.933543,3,-93.170311,2.326616,2025-02-19T22:05:02Z,-0.170478,-0.983395,-0.093636,2025-02-19T22:05:01Z,0.736541,-0.201881,0.18353,2025-02-19T22:05:01Z
116,261.471876,2.633711,70.847062,44.934864,288.881876,179.753693,2.853344,3,-93.170311,2.773859,2025-02-19T22:05:03Z,-0.132534,-0.987777,-0.094454,2025-02-19T22:05:02Z,1.059874,-0.234437,0.17779,2025-02-19T22:05:02Z
117,261.377208,2.525426,52.295014,44.934829,288.787207,179.753693,2.904691,3,-93.170311,3.608964,2025-02-19T22:05:04Z,-0.118212,-0.990022,-0.086754,2025-02-19T22:05:03Z,1.114374,-0.229655,0.262374,2025-02-19T22:05:03Z
118,261.355384,2.42909,40.337881,44.934788,288.765384,179.753693,2.885608,3,-93.170311,4.457683,2025-02-19T22:05:05Z,-0.123522,-0.987766,-0.090737,2025-02-19T22:05:04Z,0.984544,-0.196469,0.245713,2025-02-19T22:05:04Z
119,261.305279,2.26182,32.6183,44.934736,288.715279,179.753693,2.904922,3,-93.170312,5.350282,2025-02-19T22:05:06Z,-0.126521,-0.99102,-0.089181,2025-02-19T22:05:05Z,0.912326,-0.214464,0.243657,2025-02-19T22:05:05Z
120,261.195328,2.114665,27.1077,44.934678,288.605328,179.753693,2.829512,3,-93.170313,6.197318,2025-02-19T22:05:07Z,-0.17454,-0.980426,-0.089888,2025-02-19T22:05:06Z,0.415192,-0.105801,0.191463,2025-02-19T22:05:06Z
121,261.272564,2.090574,25.883608,44.934618,288.682564,179.753693,2.792175,3,-93.170311,6.444266,2025-02-19T22:05:08Z,-0.2231,-0.96955,-0.11137,2025-02-19T22:05:07Z,-0.102161,0.020042,-0.031384,2025-02-19T22:05:07Z
122,261.299783,2.088167,26.69123,44.934562,288.709783,179.753693,2.792175,3,-93.170309,6.280061,2025-02-19T22:05:09Z,-0.246264,-0.957389,-0.101537,2025-02-19T22:05:08Z,-0.344839,0.139743,0.004824,2025-02-19T22:05:08Z
123,261.191415,2.166949,29.94644,44.934512,288.601415,179.753693,2.416793,3,-93.170308,5.727422,2025-02-19T22:05:10Z,-0.306953,-0.951627,-0.116279,2025-02-19T22:05:09Z,-0.925108,0.19689,-0.133021,2025-02-19T22:05:09Z
124,261.136735,2.225499,37.196863,44.93447,288.546735,179.753693,2.277862,3,-93.170309,4.788519,2025-02-19T22:05:10Z,-0.320134,-0.947222,-0.126779,2025-02-19T22:05:10Z,-1.051815,0.239002,-0.206674,2025-02-19T22:05:10Z
125,NA,NA,NA,NA,NA,NA,NA,NA,NA,NA,NA,-0.287154,-0.935445,-0.149623,2025-02-19T22:05:11Z,-0.703324,0.347163,-0.443085,2025-02-19T22:05:11Z
