seconds_elapsed,location_altitude,location_speedAccuracy,location_bearingAccuracy,location_latitude,location_altitudeAboveMeanSeaLevel,location_bearing,location_horizontalAccuracy,location_verticalAccuracy,location_longitude,location_speed,location_local_time,accelerometerUncalibrated_z,accelerometerUncalibrated_y,accelerometerUncalibrated_x,accelerometerUncalibrated_local_time,accelerometer_z,accelerometer_y,accelerometer_x,accelerometer_local_time
0,263.018204,0.670845,17.006409,44.934274,290.428203,207.673167,3.113519,3,-93.167169,3.162828,2025-02-19T21:43:08Z,-0.042807,-0.986094,-0.233004,2025-02-19T21:43:07Z,0.770748,0.022591,-1.489789,2025-02-19T21:43:07Z
1,262.699498,0.819152,19.18043,44.934256,290.109498,232.396803,3.215342,3,-93.167217,3.439847,2025-02-19T21:43:09Z,-0.013092,-0.982048,-0.237486,2025-02-19T21:43:08Z,0.771061,0.09739,-1.453,2025-02-19T21:43:08Z
2,262.166974,0.652187,11.27502,44.934255,289.576974,261.565568,3.154575,3,-93.167298,4.642069,2025-02-19T21:43:10Z,0.001263,-1.01181,-0.065152,2025-02-19T21:43:09Z,0.706429,-0.162979,-0.133356,2025-02-19T21:43:09Z
3,262.296929,0.677506,8.84154,44.934262,289.706929,270.066534,3.099829,3,-93.16739,6.196825,2025-02-19T21:43:11Z,-0.02118,-0.997092,-0.013851,2025-02-19T21:43:10Z,0.358131,0.00668,0.378602,2025-02-19T21:43:10Z
4,262.292966,0.654779,7.520119,44.934263,289.702966,270.05115,3.006512,3,-93.167485,7.05309,2025-02-19T21:43:12Z,-0.039282,-1.003079,-0.004704,2025-02-19T21:43:11Z,0.068084,-0.054786,0.368345,2025-02-19T21:43:11Z
5,262.334639,0.660141,7.258952,44.934266,289.744639,270.812567,2.841113,3,-93.167586,7.698164,2025-02-19T21:43:13Z,-0.028085,-0.998322,-0.014004,2025-02-19T21:43:12Z,0.163574,-0.001678,0.307937,2025-02-19T21:43:12Z
6,262.246123,0.6541,7.258017,44.934266,289.656123,270.529505,2.633716,3,-93.167698,8.481879,2025-02-19T21:43:14Z,-0.029525,-1.001719,-0.013,2025-02-19T21:43:13Z,0.141094,-0.031898,0.274161,2025-02-19T21:43:13Z
7,262.441163,0.654249,7.258465,44.934266,289.851163,270.111188,2.427974,3,-93.167823,9.359067,2025-02-19T21:43:15Z,-0.04924,-0.993354,-0.019748,2025-02-19T21:43:14Z,-0.053056,0.045135,0.181714,2025-02-19T21:43:14Z
8,262.326261,0.65795,7.258956,44.934268,289.736261,270.613753,2.265952,3,-93.167952,9.958561,2025-02-19T21:43:16Z,-0.061935,-1.002781,-0.02524,2025-02-19T21:43:15Z,-0.175075,-0.043152,0.120905,2025-02-19T21:43:15Z
9,262.056523,0.652516,7.258144,44.934271,289.466523,270.716646,2.16017,3,-93.168085,10.345969,2025-02-19T21:43:17Z,-0.067961,-0.995644,-0.016452,2025-02-19T21:43:16Z,-0.244903,0.028971,0.149395,2025-02-19T21:43:16Z
10,261.930301,0.654795,7.258728,44.934273,289.340301,270.465363,2.110165,3,-93.168225,10.790332,2025-02-19T21:43:18Z,-0.071027,-0.998123,-0.012443,2025-02-19T21:43:17Z,-0.252661,0.004827,0.160454,2025-02-19T21:43:17Z
11,262.171036,0.6538,7.258837,44.934272,289.581036,269.776227,2.060107,3,-93.168372,11.243051,2025-02-19T21:43:19Z,-0.072606,-0.993709,-0.017489,2025-02-19T21:43:18Z,-0.234543,0.043321,0.091039,2025-02-19T21:43:18Z
12,262.031677,0.650441,7.258974,44.934274,289.441677,270.168121,2.032265,3,-93.168522,11.632222,2025-02-19T21:43:20Z,-0.081099,-0.988125,-0.027074,2025-02-19T21:43:19Z,-0.318756,0.101634,0.028804,2025-02-19T21:43:19Z
13,261.901589,0.646438,7.258858,44.934276,289.311589,270.289743,2.168487,3,-93.168674,11.870676,2025-02-19T21:43:21Z,-0.106569,-1.000439,-0.028126,2025-02-19T21:43:20Z,-0.512107,-0.02004,-0.013592,2025-02-19T21:43:20Z
14,261.840634,0.649942,7.258966,44.934278,289.250634,270.440326,2.088302,3,-93.168827,11.990273,2025-02-19T21:43:22Z,-0.111323,-0.991112,-0.030676,2025-02-19T21:43:21Z,-0.543209,0.064607,-0.029081,2025-02-19T21:43:21Z
15,261.699746,0.643304,7.258866,44.934279,289.109746,270.133439,2.088302,3,-93.168976,11.850591,2025-02-19T21:43:23Z,-0.107686,-0.990374,-0.031998,2025-02-19T21:43:22Z,-0.46973,0.075365,-0.045825,2025-02-19T21:43:22Z
16,261.784012,0.652347,7.258974,44.934279,289.194012,269.872358,2.226922,3,-93.16913,11.976973,2025-02-19T21:43:24Z,-0.110353,-0.993652,-0.035339,2025-02-19T21:43:23Z,-0.441769,0.034982,-0.10271,2025-02-19T21:43:23Z
17,261.753674,0.642406,7.258974,44.934278,289.163674,269.908864,2.459924,3,-93.169282,11.960083,2025-02-19T21:43:25Z,-0.110383,-0.994871,-0.024454,2025-02-19T21:43:24Z,-0.403832,0.027177,-0.060308,2025-02-19T21:43:24Z
18,261.644179,0.665086,7.258929,44.934281,289.054179,271.019618,3.065689,3,-93.169436,12.067962,2025-02-19T21:43:26Z,-0.114735,-0.993767,-0.022235,2025-02-19T21:43:25Z,-0.413301,0.030747,-0.040545,2025-02-19T21:43:25Z
19,261.475747,0.650268,7.258863,44.934284,288.885746,270.868307,2.562199,3,-93.169584,11.881008,2025-02-19T21:43:27Z,-0.106081,-0.990437,-0.025834,2025-02-19T21:43:26Z,-0.333655,0.061691,0.007449,2025-02-19T21:43:26Z
20,261.204376,0.650996,7.258592,44.934284,288.614376,270.285897,2.294787,3,-93.169735,11.871105,2025-02-19T21:43:28Z,-0.10534,-0.979996,-0.040585,2025-02-19T21:43:27Z,-0.303316,0.163374,-0.011773,2025-02-19T21:43:27Z
21,261.002376,0.6476,7.258128,44.934287,288.412376,270.681108,2.154677,3,-93.169887,11.916853,2025-02-19T21:43:29Z,-0.112393,-0.99278,-0.033555,2025-02-19T21:43:28Z,-0.252373,0.030812,0.050767,2025-02-19T21:43:28Z
22,260.61846,0.652482,7.256414,44.934287,288.02846,269.888858,2.081271,3,-93.170038,11.937192,2025-02-19T21:43:30Z,-0.11008,-0.991142,-0.034953,2025-02-19T21:43:29Z,-0.240811,0.043765,0.02844,2025-02-19T21:43:29Z
23,260.690772,0.652632,7.258469,44.934288,288.100772,270.051052,2.042329,3,-93.170194,12.067464,2025-02-19T21:43:31Z,-0.113053,-0.993105,-0.029749,2025-02-19T21:43:30Z,-0.259405,0.037572,0.074699,2025-02-19T21:43:30Z
24,260.236609,0.651989,7.257143,44.934289,287.646609,269.502897,2.021976,3,-93.170351,12.303358,2025-02-19T21:43:32Z,-0.10853,-0.986269,-0.03441,2025-02-19T21:43:31Z,-0.141318,0.067419,0.028395,2025-02-19T21:43:31Z
25,260.052513,0.660799,7.257389,44.93429,287.462513,270.218267,2.025364,3,-93.170504,12.177036,2025-02-19T21:43:33Z,-0.110452,-0.995826,-0.035645,2025-02-19T21:43:32Z,-0.174323,-0.009092,0.021956,2025-02-19T21:43:32Z
26,260.100757,0.658436,7.25867,44.934285,287.510757,268.752926,2.410869,3,-93.170659,12.223191,2025-02-19T21:43:34Z,-0.10707,-0.98955,-0.036402,2025-02-19T21:43:33Z,-0.14265,0.053118,-0.008078,2025-02-19T21:43:33Z
27,259.994384,0.654605,7.258479,44.934286,287.404384,269.520324,2.212149,3,-93.170817,12.386313,2025-02-19T21:43:35Z,-0.109714,-0.989991,-0.031712,2025-02-19T21:43:34Z,-0.139646,0.047844,6e-6,2025-02-19T21:43:34Z
28,259.718693,0.657253,7.257814,44.934285,287.128692,269.701069,2.109068,3,-93.170975,12.436154,2025-02-19T21:43:36Z,-0.122743,-0.997787,-0.026337,2025-02-19T21:43:35Z,-0.220277,-0.031108,-0.005828,2025-02-19T21:43:35Z
29,259.466993,0.649429,7.257677,44.934284,286.876992,269.689553,2.055849,3,-93.171133,12.440118,2025-02-19T21:43:37Z,-0.110059,-0.983704,-0.048738,2025-02-19T21:43:36Z,-0.151579,0.101977,-0.014135,2025-02-19T21:43:36Z
30,259.143754,0.655052,7.257468,44.934283,286.553753,269.507388,2.02871,3,-93.17129,12.433319,2025-02-19T21:43:38Z,-0.125142,-0.995268,-0.056002,2025-02-19T21:43:37Z,-0.218388,-0.00893,-0.104358,2025-02-19T21:43:37Z
31,258.912697,0.658049,7.25776,44.934281,286.322697,269.095703,2.014806,3,-93.171446,12.408638,2025-02-19T21:43:39Z,-0.126636,-0.988163,-0.057743,2025-02-19T21:43:38Z,-0.22329,0.056558,-0.146678,2025-02-19T21:43:38Z
32,258.890288,0.653795,7.258629,44.934282,286.300288,270.09137,2.15464,3,-93.171604,12.382516,2025-02-19T21:43:40Z,-0.126928,-0.979055,-0.044185,2025-02-19T21:43:39Z,-0.203788,0.13898,-0.04861,2025-02-19T21:43:39Z
33,258.431161,0.655306,7.25601,44.934282,285.841161,270.342466,2.1426789999999998,3,-93.171757,12.192894,2025-02-19T21:43:41Z,-0.134337,-0.993409,-0.055659,2025-02-19T21:43:40Z,-0.245858,-0.003478,-0.100486,2025-02-19T21:43:40Z
34,258.310599,0.653847,7.257553,44.934284,285.720599,270.522027,2.073997,3,-93.171912,12.142449,2025-02-19T21:43:42Z,-0.133333,-1.003081,-0.053319,2025-02-19T21:43:41Z,-0.259816,-0.09496,-0.085695,2025-02-19T21:43:41Z
35,258.105235,0.645734,7.257777,44.934286,285.515235,270.784726,2.038452,3,-93.172064,12.006933,2025-02-19T21:43:43Z,-0.134278,-0.978009,-0.039187,2025-02-19T21:43:42Z,-0.242546,0.144113,-9.02e-4,2025-02-19T21:43:42Z
36,257.90008,0.653473,7.257377,44.934288,285.31008,270.807987,2.020131,3,-93.172214,11.889662,2025-02-19T21:43:44Z,-0.135891,-0.991357,-0.02721,2025-02-19T21:43:43Z,-0.195643,0.014215,0.080417,2025-02-19T21:43:43Z
37,257.691513,0.651565,7.257821,44.934284,285.101513,268.953715,2.010606,3,-93.172363,11.796676,2025-02-19T21:43:45Z,-0.129146,-0.985283,-0.048668,2025-02-19T21:43:44Z,-0.129276,0.06725,-0.07922,2025-02-19T21:43:44Z
38,257.455521,0.650154,7.257777,44.934288,284.86552,270.427203,2.005629,3,-93.172511,11.71062,2025-02-19T21:43:46Z,-0.121084,-0.998097,-0.06041,2025-02-19T21:43:45Z,-0.074242,-0.04702,-0.121068,2025-02-19T21:43:45Z
39,257.171623,0.648537,7.257632,44.934289,284.581623,270.701806,2.003011,3,-93.172655,11.544884,2025-02-19T21:43:47Z,-0.105779,-0.984292,-0.045114,2025-02-19T21:43:46Z,0.068747,0.071054,0.036424,2025-02-19T21:43:46Z
40,257.054307,0.654289,7.257796,44.934289,284.464307,270.41537,2.001603,3,-93.172803,11.591341,2025-02-19T21:43:48Z,-0.111039,-0.992667,-0.034615,2025-02-19T21:43:47Z,0.049926,-0.002217,0.054933,2025-02-19T21:43:47Z
41,256.739864,0.659549,7.257025,44.934292,284.149864,271.09564,2.077332,3,-93.172954,11.803667,2025-02-19T21:43:49Z,-0.103324,-0.988922,-0.030446,2025-02-19T21:43:48Z,0.149067,0.027147,0.071503,2025-02-19T21:43:48Z
42,256.256279,0.664834,7.254537,44.934292,283.666278,270.526349,2.201882,3,-93.1731,11.691883,2025-02-19T21:43:50Z,-0.11301,-0.989218,-0.033567,2025-02-19T21:43:49Z,0.065065,0.030419,-0.049621,2025-02-19T21:43:49Z
43,256.236535,0.656556,7.257865,44.934299,283.646535,272.235548,2.253454,3,-93.173257,12.039569,2025-02-19T21:43:51Z,-0.12188,-1.008905,-0.003663,2025-02-19T21:43:50Z,-0.027528,-0.148622,0.094024,2025-02-19T21:43:50Z
44,256.172351,0.668242,7.258488,44.934298,283.58235,270.589797,2.132873,3,-93.173409,12.023839,2025-02-19T21:43:52Z,-0.115432,-0.982656,-0.014721,2025-02-19T21:43:51Z,-0.09268,0.107917,0.064908,2025-02-19T21:43:51Z
45,256.237542,0.659829,7.258458,44.934298,283.647542,270.317229,2.068991,3,-93.173564,12.084531,2025-02-19T21:43:53Z,-0.118878,-0.996316,-0.013963,2025-02-19T21:43:52Z,-0.024654,-0.028073,0.057332,2025-02-19T21:43:52Z
46,256.359908,0.656421,7.258965,44.934298,283.769908,270.156544,2.035908,3,-93.173719,12.169532,2025-02-19T21:43:54Z,-0.116138,-0.991213,-0.018371,2025-02-19T21:43:53Z,-0.016711,0.014031,-0.001113,2025-02-19T21:43:53Z
47,256.213384,0.651875,7.258699,44.934298,283.623384,270.014112,2.018703,3,-93.173871,12.059991,2025-02-19T21:43:55Z,-0.118003,-0.98608,-0.0179,2025-02-19T21:43:54Z,-0.031673,0.075304,0.02995,2025-02-19T21:43:54Z
48,255.908967,0.650534,7.25796,44.934297,283.318967,269.841522,2.009798,3,-93.174024,12.072837,2025-02-19T21:43:56Z,-0.117009,-0.997448,-0.013028,2025-02-19T21:43:55Z,-0.02806,-0.025095,0.033698,2025-02-19T21:43:55Z
49,255.856392,0.668595,7.258447,44.934296,283.266392,269.517644,2.039639,3,-93.174178,12.102388,2025-02-19T21:43:57Z,-0.116768,-0.98863,-0.024351,2025-02-19T21:43:56Z,-0.041171,0.030862,-0.004629,2025-02-19T21:43:56Z
50,255.766628,0.65745,7.258574,44.934295,283.176628,269.314647,2.020571,3,-93.174333,12.15025,2025-02-19T21:43:58Z,-0.108544,-0.9922,-0.04038,2025-02-19T21:43:57Z,0.012887,0.016452,-0.14561,2025-02-19T21:43:57Z
51,255.955177,0.653467,7.258974,44.934296,283.365177,270.093934,2.019576,3,-93.174487,12.110269,2025-02-19T21:43:59Z,-0.114223,-0.995278,-0.030892,2025-02-19T21:43:58Z,-0.062317,-0.018572,-0.034518,2025-02-19T21:43:58Z
52,255.8836,0.66035,7.258934,44.934297,283.293599,270.14959,2.010167,3,-93.174641,12.087419,2025-02-19T21:44:00Z,-0.121421,-0.997145,-0.032807,2025-02-19T21:43:59Z,-0.135119,-0.024557,-0.030067,2025-02-19T21:43:59Z
53,255.824187,0.646071,7.258936,44.934299,283.234187,270.278751,2.052865,3,-93.174793,12.01643,2025-02-19T21:44:01Z,-0.111313,-0.977672,-0.017693,2025-02-19T21:44:00Z,-0.042037,0.152211,0.041888,2025-02-19T21:44:00Z
54,255.878354,0.64222,7.258953,44.934301,283.288354,270.343798,2.052865,3,-93.174945,11.981616,2025-02-19T21:44:02Z,-0.120124,-0.99802,-0.027721,2025-02-19T21:44:01Z,-0.098715,-0.036225,-0.032045,2025-02-19T21:44:01Z
55,255.75549,0.642014,7.258926,44.934303,283.165489,270.892728,2.012576,3,-93.175095,11.872549,2025-02-19T21:44:03Z,-0.121585,-0.996034,-0.050374,2025-02-19T21:44:02Z,-0.137167,-0.035512,-0.051813,2025-02-19T21:44:02Z
56,255.678277,0.654393,7.258936,44.934301,283.088277,269.711944,2.220989,3,-93.175245,11.786306,2025-02-19T21:44:04Z,-0.113916,-0.988586,-0.048143,2025-02-19T21:44:03Z,-0.086563,0.046786,-0.074789,2025-02-19T21:44:03Z
57,255.501049,0.651644,7.257845,44.934301,282.911048,270.023119,2.117135,3,-93.175392,11.618984,2025-02-19T21:44:05Z,-0.117973,-0.986589,-0.043035,2025-02-19T21:44:04Z,-0.056065,0.067516,-0.096638,2025-02-19T21:44:04Z
58,255.81133,0.649257,7.258963,44.9343,283.22133,269.772338,2.062142,3,-93.17554,11.623348,2025-02-19T21:44:06Z,-0.115577,-0.997536,-0.038993,2025-02-19T21:44:05Z,-0.034716,-0.041774,-0.066123,2025-02-19T21:44:05Z
59,255.901686,0.652705,7.25896,44.934304,283.311686,270.972968,2.033214,3,-93.175685,11.533241,2025-02-19T21:44:07Z,-0.111059,-0.987252,-0.030315,2025-02-19T21:44:06Z,0.00495,0.059426,0.02819,2025-02-19T21:44:06Z
60,255.803175,0.793627,7.258783,44.934311,283.213174,272.842421,2.706157,3,-93.175829,11.426012,2025-02-19T21:44:08Z,-0.113216,-0.995323,-0.027715,2025-02-19T21:44:07Z,-0.0175,-0.022776,0.068188,2025-02-19T21:44:07Z
61,256.034413,0.65636,7.25896,44.934304,283.444413,270.265631,2.965519,3,-93.175978,11.553043,2025-02-19T21:44:09Z,-0.11302,-0.991146,-0.043408,2025-02-19T21:44:08Z,-0.015238,0.018417,-0.019048,2025-02-19T21:44:08Z
62,255.912557,0.664859,7.258785,44.934305,283.322557,270.284494,2.568525,3,-93.176123,11.427611,2025-02-19T21:44:10Z,-0.130076,-0.989464,-0.03449,2025-02-19T21:44:09Z,-0.171732,0.038055,-0.012472,2025-02-19T21:44:09Z
63,256.287338,0.654888,7.258886,44.934303,283.697338,270.071047,2.303714,3,-93.176268,11.294782,2025-02-19T21:44:11Z,-0.148947,-0.991253,-0.036677,2025-02-19T21:44:10Z,-0.325525,0.018122,-0.12435,2025-02-19T21:44:10Z
64,256.02138,0.667389,7.258799,44.934306,283.431379,271.225232,2.164535,3,-93.176406,10.975036,2025-02-19T21:44:12Z,-0.185145,-0.976958,-0.059862,2025-02-19T21:44:11Z,-0.645972,0.143465,-0.167662,2025-02-19T21:44:11Z
65,255.676767,0.679648,7.256628,44.934308,283.086767,271.178221,2.622236,3,-93.176536,10.411657,2025-02-19T21:44:13Z,-0.151978,-0.982047,-0.090003,2025-02-19T21:44:12Z,-0.334382,0.101001,-0.492115,2025-02-19T21:44:12Z
66,255.856489,0.677069,7.258826,44.934313,283.266488,273.877414,2.353029,3,-93.176656,9.800341,2025-02-19T21:44:14Z,-0.138832,-0.992165,-0.063647,2025-02-19T21:44:13Z,-0.141016,-0.010556,-0.2154,2025-02-19T21:44:13Z
67,256.829593,0.704521,7.241147,44.934328,284.239593,277.206729,2.240008,3,-93.176775,9.642565,2025-02-19T21:44:15Z,-0.148273,-0.983729,-0.072963,2025-02-19T21:44:14Z,-0.166253,0.041211,0.144317,2025-02-19T21:44:14Z
68,255.796033,0.671557,7.258489,44.934323,283.206033,272.097752,2.141887,3,-93.176883,8.970573,2025-02-19T21:44:16Z,-0.22839,-0.980716,-0.002798,2025-02-19T21:44:15Z,-0.926517,0.092262,0.24339,2025-02-19T21:44:15Z
69,NA,NA,NA,NA,NA,NA,NA,NA,NA,NA,NA,-0.257049,-0.97755,-0.046004,2025-02-19T21:44:16Z,-1.162149,0.117414,-0.199279,2025-02-19T21:44:16Z
