seconds_elapsed,location_altitude,location_speedAccuracy,location_bearingAccuracy,location_latitude,location_altitudeAboveMeanSeaLevel,location_bearing,location_horizontalAccuracy,location_verticalAccuracy,location_longitude,location_speed,location_local_time,accelerometerUncalibrated_z,accelerometerUncalibrated_y,accelerometerUncalibrated_x,accelerometerUncalibrated_local_time,accelerometer_z,accelerometer_y,accelerometer_x,accelerometer_local_time
0,255.227521,3.767916,180,44.934362,282.637521,179.916322,2.671471,3,-93.177233,0.54176,2025-02-19T21:29:41Z,0.100377,-0.99629,-0.039515,2025-02-19T21:29:41Z,0.761078,0.012008,0.259811,2025-02-19T21:29:41Z
1,255.271317,3.751065,180,44.93435,282.681317,179.916321,2.711143,3,-93.177234,1.196408,2025-02-19T21:29:42Z,0.183777,-1.000476,0.075605,2025-02-19T21:29:42Z,1.482441,-0.026933,1.310194,2025-02-19T21:29:42Z
2,255.448572,2.51796,71.581571,44.93432,282.858572,169.257764,2.688402,3,-93.177225,2.842865,2025-02-19T21:29:43Z,0.057611,-1.005995,0.12746,2025-02-19T21:29:43Z,0.221797,-0.076367,1.773767,2025-02-19T21:29:43Z
3,255.223045,2.373944,51.848032,44.934287,282.633045,156.456618,2.653982,3,-93.177198,3.709899,2025-02-19T21:29:44Z,-0.003179,-0.998827,0.169571,2025-02-19T21:29:44Z,-0.31424,-0.001977,2.091748,2025-02-19T21:29:44Z
4,255.136795,2.30363,42.34569,44.934267,282.546795,129.40908,2.65404,3,-93.177138,4.394224,2025-02-19T21:29:45Z,0.025378,-1.010745,0.160534,2025-02-19T21:29:45Z,-0.094397,-0.116612,1.758012,2025-02-19T21:29:45Z
5,255.138313,2.17784,31.571613,44.934267,282.548313,99.743365,2.621338,3,-93.177052,5.589183,2025-02-19T21:29:46Z,0.085681,-0.982556,0.04073,2025-02-19T21:29:46Z,0.338873,0.153402,0.500965,2025-02-19T21:29:46Z
6,255.196506,2.084953,25.770198,44.934274,282.606506,89.938284,2.584555,3,-93.176963,6.550538,2025-02-19T21:29:47Z,0.126016,-1.012257,-0.014608,2025-02-19T21:29:47Z,0.596887,-0.13846,-0.004652,2025-02-19T21:29:47Z
7,255.138944,1.996624,21.803693,44.934276,282.548944,89.45437,2.534007,3,-93.176866,7.419175,2025-02-19T21:29:48Z,0.115849,-0.989905,-0.011979,2025-02-19T21:29:48Z,0.393778,0.072477,-0.013532,2025-02-19T21:29:48Z
8,255.055051,1.934788,18.713948,44.934275,282.465051,89.812987,2.624585,3,-93.176756,8.362451,2025-02-19T21:29:49Z,0.104988,-0.99547,-0.019941,2025-02-19T21:29:49Z,0.251866,0.01026,-0.064451,2025-02-19T21:29:49Z
9,255.130591,1.874044,16.441074,44.934275,282.540591,90.032598,2.49549,3,-93.176634,9.228869,2025-02-19T21:29:50Z,0.099784,-1.000254,-0.02576,2025-02-19T21:29:50Z,0.156927,-0.034938,-0.103435,2025-02-19T21:29:50Z
10,255.159443,1.844471,15.03496,44.934276,282.569443,90.045514,2.312564,3,-93.176506,9.938248,2025-02-19T21:29:51Z,0.097152,-0.991272,-0.029045,2025-02-19T21:29:51Z,0.098205,0.046067,-0.142886,2025-02-19T21:29:51Z
11,255.177439,1.844915,14.103491,44.934275,282.587439,90.21029,2.189206,3,-93.17637,10.599536,2025-02-19T21:29:52Z,0.075511,-1.000172,-0.039894,2025-02-19T21:29:52Z,-0.127523,-0.043365,-0.193345,2025-02-19T21:29:52Z
12,255.255919,1.816482,13.329609,44.934275,282.665919,90.136343,2.462981,3,-93.176229,11.025657,2025-02-19T21:29:53Z,0.08099,-1.001517,-0.03111,2025-02-19T21:29:53Z,-0.085469,-0.057702,-0.115223,2025-02-19T21:29:53Z
13,255.655604,1.808213,12.662095,44.934272,283.065604,90.70761,2.877935,3,-93.176079,11.570563,2025-02-19T21:29:54Z,0.07369,-0.985846,-0.030428,2025-02-19T21:29:54Z,-0.134699,0.100485,-0.101582,2025-02-19T21:29:54Z
14,255.777181,1.778231,12.055301,44.934274,283.187181,90.23717,2.471592,3,-93.175929,11.951823,2025-02-19T21:29:55Z,0.03299,-1.000835,-0.050247,2025-02-19T21:29:55Z,-0.520528,-0.051577,-0.212868,2025-02-19T21:29:55Z
15,256.089576,1.780167,12.054728,44.934274,283.499576,90.086342,2.248158,3,-93.175778,11.963784,2025-02-19T21:29:56Z,0.042029,-0.991868,-0.051234,2025-02-19T21:29:56Z,-0.427331,0.046091,-0.199558,2025-02-19T21:29:56Z
16,256.316328,1.757039,11.774512,44.934275,283.726328,89.942006,2.319356,3,-93.175624,12.089543,2025-02-19T21:29:57Z,0.044575,-0.991347,-0.06467,2025-02-19T21:29:57Z,-0.379399,0.040821,-0.314952,2025-02-19T21:29:57Z
17,256.453687,1.791536,12.163231,44.934284,283.863687,88.860436000000007,3.576456,3,-93.175478,11.933007,2025-02-19T21:29:58Z,0.028687,-1.001589,-0.055356,2025-02-19T21:29:58Z,-0.503054,-0.053253,-0.221652,2025-02-19T21:29:58Z
18,256.581164,1.773507,12.01864,44.934285,283.991164,88.83549,3.696403,3,-93.175324,11.953697,2025-02-19T21:29:59Z,0.037623,-0.988971,-0.066771,2025-02-19T21:29:59Z,-0.389207,0.073736,-0.347672,2025-02-19T21:29:59Z
19,256.648484,1.777358,11.903532,44.93428,284.058484,90.336681,3.338835,3,-93.175165,12.096759,2025-02-19T21:30:00Z,0.034043,-0.999743,-0.054149,2025-02-19T21:30:00Z,-0.382163,-0.027056,-0.182199,2025-02-19T21:30:00Z
20,256.593383,1.780071,11.78192,44.934278,284.003383,90.606633,2.902184,3,-93.175006,12.240398,2025-02-19T21:30:01Z,0.039718,-0.995226,-0.050734,2025-02-19T21:30:01Z,-0.339003,0.010889,-0.126669,2025-02-19T21:30:01Z
21,256.628228,1.789233,11.704319,44.934275,284.038227,90.763379,2.474007,3,-93.174848,12.385346,2025-02-19T21:30:02Z,0.049528,-0.99548,-0.048292,2025-02-19T21:30:02Z,-0.21818100000000001,0.006253,-0.091581,2025-02-19T21:30:02Z
22,256.617221,1.760709,11.352752,44.934275,284.027221,90.687154,2.579059,3,-93.174688,12.566505,2025-02-19T21:30:03Z,0.045923,-0.984889,-0.045197,2025-02-19T21:30:03Z,-0.14942,0.124813,-0.042862,2025-02-19T21:30:03Z
23,256.498324,1.752309,11.066107,44.934275,283.908324,90.415471,2.495134,3,-93.174524,12.830778,2025-02-19T21:30:04Z,0.043284,-1.008169,-0.024573,2025-02-19T21:30:04Z,-0.171368,-0.095723,-0.01084,2025-02-19T21:30:04Z
24,256.658346,1.734661,10.718693,44.934276,284.068346,89.991379,2.247513,3,-93.174356,13.111519,2025-02-19T21:30:05Z,0.043716,-0.997382,-0.033999,2025-02-19T21:30:05Z,-0.186334,6.45e-4,-0.098881,2025-02-19T21:30:05Z
25,256.750249,1.721664,10.530314,44.934276,284.160249,89.908219,2.123314,3,-93.174188,13.245986,2025-02-19T21:30:06Z,0.044076,-0.999188,-0.040488,2025-02-19T21:30:06Z,-0.17078,-0.018849,-0.088385,2025-02-19T21:30:06Z
26,256.89136,1.7362,10.518171,44.934276,284.30136,90.069261,2.236712,3,-93.17402,13.372394,2025-02-19T21:30:07Z,0.049693,-0.993691,-0.050737,2025-02-19T21:30:07Z,-0.138392,0.040034,-0.134109,2025-02-19T21:30:07Z
27,257.010384,1.756448,10.542469,44.934275,284.420384,90.325219,2.34754,3,-93.173847,13.495808,2025-02-19T21:30:08Z,0.045816,-0.999798,-0.04656,2025-02-19T21:30:08Z,-0.15529,-0.025766,-0.131906,2025-02-19T21:30:08Z
28,257.215972,1.703708,10.166118,44.934274,284.625972,90.331704,2.169737,3,-93.173675,13.572579,2025-02-19T21:30:09Z,0.032004,-0.991493,-0.039692,2025-02-19T21:30:09Z,-0.263753,0.059531,-0.076295,2025-02-19T21:30:09Z
29,257.152639,1.732523,10.364511,44.934276,284.562639,89.803316,2.082559,3,-93.173503,13.542822,2025-02-19T21:30:10Z,0.029314,-0.996196,-0.047522,2025-02-19T21:30:10Z,-0.251649,0.018885,-0.11595,2025-02-19T21:30:10Z
30,257.417698,1.739179,10.454572,44.934274,284.827698,90.202987,2.040086,3,-93.173332,13.471261,2025-02-19T21:30:11Z,0.0222,-0.999665,-0.044209,2025-02-19T21:30:11Z,-0.295816,-0.019981,-0.154692,2025-02-19T21:30:11Z
31,257.330137,1.734014,10.426801,44.934273,284.740137,90.215244,2.019499,3,-93.173159,13.471703,2025-02-19T21:30:12Z,0.029429,-0.995749,-0.051211,2025-02-19T21:30:12Z,-0.257908,0.022516,-0.09405,2025-02-19T21:30:12Z
32,257.559178,1.71486,10.344261,44.934271,284.969178,90.424534,2.172503,3,-93.172988,13.428397,2025-02-19T21:30:13Z,0.036853,-1.006848,-0.043029,2025-02-19T21:30:13Z,-0.189917,-0.089297,-0.078711,2025-02-19T21:30:13Z
33,257.714056,1.742513,10.645414,44.934273,285.124056,90.175674,2.41899,3,-93.172824,13.256048,2025-02-19T21:30:14Z,0.037431,-0.987983,-0.029771,2025-02-19T21:30:14Z,-0.158473,0.099202,-0.017861,2025-02-19T21:30:14Z
34,257.824958,1.738621,10.530611,44.934269,285.234958,90.693703,2.20453,3,-93.172651,13.374301,2025-02-19T21:30:15Z,0.040271,-1.000536,-0.032474,2025-02-19T21:30:15Z,-0.098055,-0.025369,-0.005666,2025-02-19T21:30:15Z
35,258.150432,1.740607,10.451969,44.93427,285.560432,90.331949,2.099647,3,-93.172478,13.486754,2025-02-19T21:30:16Z,0.047256,-1.002463,-0.039049,2025-02-19T21:30:16Z,-0.071696,-0.045178,-0.044116,2025-02-19T21:30:16Z
36,258.445993,1.721617,10.273876,44.934273,285.855993,89.875693,2.04843,3,-93.172305,13.568901,2025-02-19T21:30:17Z,0.047243,-0.98805,-0.031446,2025-02-19T21:30:17Z,-0.085664,0.101391,0.034902,2025-02-19T21:30:17Z
37,258.778657,1.711061,10.129749,44.934273,286.188657,89.727425,2.19882,3,-93.172131,13.678977,2025-02-19T21:30:18Z,0.062699,-0.997772,-0.049719,2025-02-19T21:30:18Z,0.110587,0.003752,-0.066108,2025-02-19T21:30:18Z
38,258.851836,1.719019,9.97627,44.934274,286.261836,89.595343,2.095626,3,-93.171952,13.954958,2025-02-19T21:30:19Z,0.049488,-0.992677,-0.02664,2025-02-19T21:30:19Z,0.01931,0.052143,-0.003607,2025-02-19T21:30:19Z
39,259.027671,1.699995,9.689645,44.934273,286.437671,89.351979,2.574837,3,-93.171771,14.208458,2025-02-19T21:30:20Z,0.051972,-1.004722,-0.025327,2025-02-19T21:30:20Z,0.001182,-0.063846,0.022192,2025-02-19T21:30:20Z
40,259.398746,1.716219,9.688772,44.934274,286.808746,89.01109,2.461345,3,-93.171588,14.342247,2025-02-19T21:30:21Z,0.042084,-0.997482,-0.034392,2025-02-19T21:30:21Z,-0.104995,0.003758,-0.103756,2025-02-19T21:30:21Z
41,259.422463,1.716647,9.678057,44.934277,286.832462,88.94735,2.552905,3,-93.171406,14.363831,2025-02-19T21:30:22Z,0.040428,-0.987866,-0.049228,2025-02-19T21:30:22Z,-0.106157,0.104197,-0.176803,2025-02-19T21:30:22Z
42,259.543824,1.735653,9.836008,44.934276,286.953824,89.373458,2.503547,3,-93.171227,14.292598,2025-02-19T21:30:23Z,0.034894,-0.991286,-0.031676,2025-02-19T21:30:23Z,-0.127692,0.068108,-0.061258,2025-02-19T21:30:23Z
43,259.822715,1.707549,9.701677,44.934273,287.232715,90.099508,2.795077,3,-93.171047,14.257957,2025-02-19T21:30:24Z,0.040901,-1.004493,-0.024152,2025-02-19T21:30:24Z,-0.033537,-0.049125,-0.056027,2025-02-19T21:30:24Z
44,260.192552,1.714569,9.720895,44.934271,287.602552,90.414432,2.374872,3,-93.170867,14.285646,2025-02-19T21:30:25Z,0.054031,-0.986244,-0.033629,2025-02-19T21:30:25Z,0.089883,0.107164,-0.06613,2025-02-19T21:30:25Z
45,260.199538,1.706257,9.594418,44.934269,287.609538,90.687012,2.22321,3,-93.170685,14.406532,2025-02-19T21:30:26Z,0.012913000000000001,-0.996535,-0.023866,2025-02-19T21:30:26Z,-0.305984,0.031165000000000002,0.051183,2025-02-19T21:30:26Z
46,260.383364,1.714072,9.731624,44.934267,287.793364,90.701231,2.103966,3,-93.170503,14.270324,2025-02-19T21:30:27Z,-0.006944,-1.000402,-0.03904,2025-02-19T21:30:27Z,-0.479444,-0.016022,-0.056665,2025-02-19T21:30:27Z
47,260.691453,1.72247,10.037358,44.934267,288.101452,90.334879,2.2018,3,-93.170326,13.901659,2025-02-19T21:30:28Z,-0.007225,-1.001193,-0.045533,2025-02-19T21:30:28Z,-0.498028,-0.031305,-0.118696,2025-02-19T21:30:28Z
48,260.660585,1.733764,10.422251,44.934269,288.070585,90.141973,2.097501,3,-93.170157,13.476951,2025-02-19T21:30:29Z,0.001397,-0.993915,-0.047449,2025-02-19T21:30:29Z,-0.38052,0.048795,-0.120831,2025-02-19T21:30:29Z
49,260.80003,1.742878,10.752469,44.934265,288.21003,90.679945,2.265125,3,-93.169991,13.132212000000001,2025-02-19T21:30:30Z,0.002712,-0.99123000000000006,-0.044061,2025-02-19T21:30:30Z,-0.343731,0.075316,-0.09102,2025-02-19T21:30:30Z
50,261.034485,1.749492,11.019316,44.934266,288.444485,90.502599,2.211586,3,-93.169828,12.862404,2025-02-19T21:30:31Z,0.017978,-0.991932,-0.050325,2025-02-19T21:30:31Z,-0.187621,0.064402,-0.104851,2025-02-19T21:30:31Z
51,261.193075,1.742557,11.160353,44.934266,288.603075,90.473218,2.106397,3,-93.169668,12.650827,2025-02-19T21:30:32Z,0.006312,-1.002027,-0.054615,2025-02-19T21:30:32Z,-0.240401,-0.038158,-0.11419,2025-02-19T21:30:32Z
52,261.235585,1.763205,11.496642,44.934265,288.645585,90.525121,2.257398,3,-93.169511,12.426579,2025-02-19T21:30:33Z,-0.002746,-0.98842699999999994,-0.056235,2025-02-19T21:30:33Z,-0.254837,0.102797,-0.11292,2025-02-19T21:30:33Z
53,261.256029,1.742134,11.620073,44.934265,288.666029,90.604388,2.261981,3,-93.169357,12.147609,2025-02-19T21:30:34Z,-0.010446,-0.994987,-0.044225,2025-02-19T21:30:34Z,-0.332448,0.038843,-0.018042,2025-02-19T21:30:34Z
54,261.273667,1.776457,12.164832,44.934264,288.683667,90.323789,2.13615,3,-93.169207,11.832588,2025-02-19T21:30:35Z,-0.015326,-0.999299,-0.051716,2025-02-19T21:30:35Z,-0.362203,-0.007148,-0.06918,2025-02-19T21:30:35Z
55,261.282778,1.795152,12.729515,44.934265,288.692778,90.05343,2.431118,3,-93.169063,11.426637,2025-02-19T21:30:36Z,-0.036275,-0.995898,-0.061659,2025-02-19T21:30:36Z,-0.54143,0.02918,-0.144373,2025-02-19T21:30:36Z
56,261.354611,1.813353,13.588568,44.934264,288.764611,90.063731,2.233314,3,-93.168926,10.811526,2025-02-19T21:30:37Z,-0.038499,-0.995897,-0.070272,2025-02-19T21:30:37Z,-0.534589,0.027662,-0.220837,2025-02-19T21:30:37Z
57,261.333412,1.848342,14.753463,44.934264,288.743412,90.110081,2.265475,3,-93.168798,10.143012,2025-02-19T21:30:38Z,-0.01259,-0.995082,-0.058494,2025-02-19T21:30:38Z,-0.277807,0.034764,-0.080132,2025-02-19T21:30:38Z
58,261.351016,1.865908,15.51866,44.934263,288.761016,90.132933,2.151028,3,-93.168676,9.736793,2025-02-19T21:30:39Z,-0.00582,-1.000585,-0.059763,2025-02-19T21:30:39Z,-0.197286,-0.024482,-0.072948,2025-02-19T21:30:39Z
59,261.384534,1.899836,16.231659,44.934263,288.794534,90.187259,2.087079,3,-93.168556,9.436617,2025-02-19T21:30:40Z,0.004211,-0.994637,-0.058579,2025-02-19T21:30:40Z,-0.07657,0.034607,-0.013905,2025-02-19T21:30:40Z
60,261.365801,1.89606,16.522042,44.93426,288.7758,90.565307,2.156146,3,-93.168438,9.271346,2025-02-19T21:30:41Z,0.001617,-0.995664,-0.057129,2025-02-19T21:30:41Z,-0.079916,0.029665,-0.003275,2025-02-19T21:30:41Z
61,261.448426,1.904106,16.862482,44.934259,288.858426,90.501292,2.092004,3,-93.168324,9.025631,2025-02-19T21:30:42Z,0.004678,-0.991357,-0.056543,2025-02-19T21:30:42Z,-0.037285,0.065553,0.002529,2025-02-19T21:30:42Z
62,261.511447,1.909059,17.522861,44.934259,288.921447,90.396963,2.055134,3,-93.168216,8.767483,2025-02-19T21:30:43Z,0.003398,-1.002929,-0.064376,2025-02-19T21:30:43Z,-0.049967,-0.047603,-0.054784,2025-02-19T21:30:43Z
63,261.266746,1.994651,18.170248,44.934261,288.676745,90.035011,2.033169,3,-93.168109,8.496437,2025-02-19T21:30:44Z,-0.049811,-0.995791,-0.074736,2025-02-19T21:30:44Z,-0.521976,0.02635,-0.138081,2025-02-19T21:30:44Z
64,261.305359,1.995563,20.828953,44.934261,288.715359,90.093966,2.127652,3,-93.168014,7.678331,2025-02-19T21:30:45Z,-0.09828,-0.994566,-0.090843,2025-02-19T21:30:45Z,-0.997107,0.036038,-0.267646,2025-02-19T21:30:45Z
65,261.349599,2.148784,25.734037,44.934262,288.759599,89.992425,2.224042,3,-93.167936,6.387905,2025-02-19T21:30:46Z,-0.129411,-0.997877,-0.104282,2025-02-19T21:30:46Z,-1.244994,-0.001065,-0.36464800000000003,2025-02-19T21:30:46Z
66,261.445934,2.410118,34.899945,44.934263,288.855933,89.918791,2.347272,3,-93.167879,4.874716,2025-02-19T21:30:47Z,-0.137036,-0.997961,-0.106573,2025-02-19T21:30:47Z,-1.260445,-0.003345,-0.367305,2025-02-19T21:30:47Z
67,261.367757,3.466773,40.186397,44.934263,288.777756,89.796537,2.377768,3,-93.167842,3.275149,2025-02-19T21:30:48Z,-0.08135,-0.996801,-0.09151,2025-02-19T21:30:48Z,-0.621573,0.005101,-0.197736,2025-02-19T21:30:48Z
68,261.449438,4.019519,47.589745,44.934264,288.859437,89.728869,2.314807,3,-93.167819,2.109249,2025-02-19T21:30:49Z,-0.040473,-0.995417,-0.078076,2025-02-19T21:30:49Z,-0.130162,0.013327,-0.045249,2025-02-19T21:30:49Z
69,261.627857,4.038107,69.143866,44.934264,289.037857,89.753863,2.2883270000000002,3,-93.167803,1.378934,2025-02-19T21:30:50Z,-0.01796,-0.996359,-0.071495,2025-02-19T21:30:50Z,0.134871,0.002947,0.034194,2025-02-19T21:30:50Z
70,261.70973300000003,3.746674,180,44.934264,289.119733,89.75387,2.252286,3,-93.167793,0.829827,2025-02-19T21:30:51Z,0.002462,-0.996083,-0.065725,2025-02-19T21:30:51Z,0.325567,0.007032,0.091854,2025-02-19T21:30:51Z
71,261.853817,3.750302,180,44.934263,289.263817,89.753875,2.424535,3,-93.167785,0.569015,2025-02-19T21:30:52Z,8.23e-4,-0.996176,-0.066979,2025-02-19T21:30:52Z,0.28676,0.006024,0.075052,2025-02-19T21:30:52Z
72,261.878796,3.746104,180,44.934264,289.288796,89.753877,2.489141,3,-93.167782,0.253363,2025-02-19T21:30:53Z,0.006105,-0.995823,-0.064747,2025-02-19T21:30:53Z,0.307601,0.011054,0.087429,2025-02-19T21:30:53Z
73,261.983627,3.760677,180,44.934263,289.393627,89.753878,2.489536,3,-93.167781,0.005052,2025-02-19T21:30:54Z,0.030055,-0.996021,-0.057306,2025-02-19T21:30:54Z,0.497652,0.010281,0.143392,2025-02-19T21:30:54Z
74,262.021342,3.745432,180,44.934263,289.431342,89.753879,2.678425,3,-93.167779,0.005637,2025-02-19T21:30:55Z,0.031312,-0.99567,-0.058844,2025-02-19T21:30:55Z,0.46597,0.017196,0.129578,2025-02-19T21:30:55Z
75,262.066212,3.737258,180,44.934263,289.476212,89.753881,2.660355,3,-93.167776,0.01676,2025-02-19T21:30:56Z,0.032169,-0.996044,-0.058396000000000003,2025-02-19T21:30:56Z,0.417001,0.010529,0.121585,2025-02-19T21:30:56Z
