seconds_elapsed,location_altitude,location_speedAccuracy,location_bearingAccuracy,location_latitude,location_altitudeAboveMeanSeaLevel,location_bearing,location_horizontalAccuracy,location_verticalAccuracy,location_longitude,location_speed,location_local_time,accelerometerUncalibrated_z,accelerometerUncalibrated_y,accelerometerUncalibrated_x,accelerometerUncalibrated_local_time,accelerometer_z,accelerometer_y,accelerometer_x,accelerometer_local_time
0,266.863662,-0.52,1.991763,44.940031,294.273662,33.552083,70.926639,6.03822,-93.167129,0.256667,2025-02-19T21:41:54Z,-0.097123,-0.990429,-0.038175,2025-02-19T21:41:54Z,-0.03572,0.045088,-0.260571,2025-02-19T21:41:54Z
1,261.009521,0.86,17.793871,44.940054,288.419521,103.710938,14,4,-93.167164,3.1,2025-02-19T21:41:56Z,-0.020785,-0.998881,-0.094799,2025-02-19T21:41:55Z,0.436765,-0.014237,-0.798976,2025-02-19T21:41:55Z
2,260.728516,0.7,12.570187,44.940046,288.138515,135.703125,3.535534,3,-93.167135,2.77,2025-02-19T21:41:57Z,0.009451,-1.0033,-0.082485,2025-02-19T21:41:56Z,0.875604,-0.06181,-0.681545,2025-02-19T21:41:56Z
3,261.124634,0.72,15.653767,44.940027,288.534634,129.726562,3.535534,3,-93.167113,2.98,2025-02-19T21:41:58Z,0.026002,-1.002146,-0.110017,2025-02-19T21:41:57Z,0.975063,-0.050469,-0.918803,2025-02-19T21:41:57Z
4,261.095215,0.22,3.086824,44.939994,288.505215,158.554688,3.535534,3,-93.167093,2.98,2025-02-19T21:41:59Z,0.016696,-1.016173,-0.024505,2025-02-19T21:41:58Z,0.891478,-0.190825,-0.239587,2025-02-19T21:41:58Z
5,261.96936,0.27,2.967119,44.939918,289.37936,178.945312,3.535534,3,-93.167109,6.03,2025-02-19T21:42:00Z,0.003968,-1.001412,0.015861,2025-02-19T21:41:59Z,0.54703,-0.020034,0.098129,2025-02-19T21:41:59Z
6,262.620667,1.96,28.383196,44.939874,290.030666,184.21875,3.535534,3,-93.167112,6.03,2025-02-19T21:42:01Z,-0.011907,-0.999178,0.020486,2025-02-19T21:42:00Z,0.337826,-0.004461,0.207517,2025-02-19T21:42:00Z
7,263.399902,1.87,14.851586,44.939781,290.809902,182.460938,3.535534,3,-93.167118,6.03,2025-02-19T21:42:02Z,-0.016503,-1.000701,0.027876,2025-02-19T21:42:01Z,0.271362,-0.019231,0.303448,2025-02-19T21:42:01Z
8,263.785278,0.47,3.649253,44.939704,291.195278,178.59375,3.535534,3,-93.16712,8.15,2025-02-19T21:42:03Z,-0.017338,-1.00312,6.85e-4,2025-02-19T21:42:02Z,0.176612,-0.035028,0.140941,2025-02-19T21:42:02Z
9,263.693359,0.05,0.410447,44.939625,291.103359,180,3.535534,3,-93.16712,8.36,2025-02-19T21:42:04Z,-0.034258,-0.998271,-0.001328,2025-02-19T21:42:03Z,0.00382,0.003561,0.182518,2025-02-19T21:42:03Z
10,263.700439,0.05,0.33977,44.939543,291.110439,180.351562,3.535534,3,-93.167121,9.51,2025-02-19T21:42:05Z,-0.069749,-0.999288,-0.013624,2025-02-19T21:42:04Z,-0.341737,0.001565,0.064426,2025-02-19T21:42:04Z
11,263.612244,0.04,0.290827,44.939457,291.022243,180,3.535534,3,-93.16712,9.64,2025-02-19T21:42:06Z,-0.058736,-0.995073,-0.00956,2025-02-19T21:42:05Z,-0.243852,0.044815,0.103702,2025-02-19T21:42:05Z
12,263.545654,0.04,0.290462,44.939369,290.955654,179.648438,3.535534,3,-93.167119,9.64,2025-02-19T21:42:07Z,-0.054778,-1.005406,-0.013125,2025-02-19T21:42:06Z,-0.21131,-0.062257,0.055601,2025-02-19T21:42:06Z
13,263.545662,0.308017,7.258975,44.939282,290.955661,179.648438,4.748652,4.029364,-93.167118,9.64,2025-02-19T21:42:08Z,-0.052334,-0.989072,-0.009333,2025-02-19T21:42:07Z,-0.151181,0.100695,0.071583,2025-02-19T21:42:07Z
14,263.756844,0.308016,7.258975,44.939187,291.166844,179.648438,4.748652,4.029364,-93.167118,9.98,2025-02-19T21:42:09Z,-0.055724,-0.998189,-0.012547,2025-02-19T21:42:08Z,-0.169264,0.004418,0.077423,2025-02-19T21:42:08Z
15,263.750984,0.35,7.258975,44.939102,291.160984,169.804703,4.748652,4.029364,-93.167077,9.79,2025-02-19T21:42:10Z,-0.058997,-1.003271,-0.021199,2025-02-19T21:42:09Z,-0.174287,-0.036825,0.012592,2025-02-19T21:42:09Z
16,263.771251,0.308016,7.258975,44.938986,291.18125,183.164057,4.748652,4.029364,-93.16712,11.48,2025-02-19T21:42:11Z,-0.057816,-0.99022,-0.011014,2025-02-19T21:42:10Z,-0.111609,0.078975,0.056308,2025-02-19T21:42:10Z
17,263.664439,0.308017,7.258975,44.938885,291.074439,180,4.748652,4.029364,-93.167113,11.39,2025-02-19T21:42:12Z,-0.059564,-0.994754,-0.021321,2025-02-19T21:42:11Z,-0.180155,0.043797,0.010622,2025-02-19T21:42:11Z
18,263.897227,0.308017,7.258975,44.938779,291.307227,180,4.748652,4.029364,-93.167115,11.48,2025-02-19T21:42:13Z,-0.061823,-0.997583,-0.024038,2025-02-19T21:42:12Z,-0.167432,0.008779,0.023612,2025-02-19T21:42:12Z
19,264.191906,0.308017,7.258975,44.938665,291.601906,180.351562,4.748652,4.029364,-93.167116,12.02,2025-02-19T21:42:14Z,-0.066887,-0.997137,-0.024805,2025-02-19T21:42:13Z,-0.208206,0.016862,0.022796,2025-02-19T21:42:13Z
20,264.437817,0.87,7.258975,44.938556,291.847817,177.890629,4.748652,4.029364,-93.167106,12.12,2025-02-19T21:42:15Z,-0.066006,-0.995484,-0.026183,2025-02-19T21:42:14Z,-0.18361,0.028837,0.012754,2025-02-19T21:42:14Z
21,264.85194,2.1,14.039586,44.938448,292.26194,179.296876,4.748652,4.029364,-93.167112,12.12,2025-02-19T21:42:16Z,-0.070177,-0.996273,-0.025752,2025-02-19T21:42:15Z,-0.202256,0.019366,-0.00246,2025-02-19T21:42:15Z
22,264.970226,0.85,7.258975,44.93833,292.380226,180,4.748652,4.029364,-93.167121,12.12,2025-02-19T21:42:17Z,-0.087026,-0.995067,-0.019715,2025-02-19T21:42:16Z,-0.341506,0.032983,0.031892,2025-02-19T21:42:16Z
23,265.34828,0.308016,7.258975,44.938204,292.75828,180.351562,4.748652,4.029364,-93.167123,13.08,2025-02-19T21:42:18Z,-0.101132,-0.990664,-0.030266,2025-02-19T21:42:17Z,-0.456425,0.072471,-0.090298,2025-02-19T21:42:17Z
24,265.454725,0.308017,7.258975,44.938087,292.864725,180,4.748652,4.029364,-93.16712,13.08,2025-02-19T21:42:19Z,-0.104735,-0.988359,-0.027301,2025-02-19T21:42:18Z,-0.440303,0.097198,-0.081981,2025-02-19T21:42:18Z
25,265.535292,0.308016,7.258975,44.937973,292.945292,180,4.748652,4.029364,-93.167122,13.08,2025-02-19T21:42:20Z,-0.102876,-0.970539,-0.028696,2025-02-19T21:42:19Z,-0.323563,0.259183,-0.012548,2025-02-19T21:42:19Z
26,265.694715,0.308016,7.258975,44.937858,293.104715,179.648438,4.748652,4.029364,-93.167124,12.92,2025-02-19T21:42:21Z,-0.115041,-0.991911,-0.033256,2025-02-19T21:42:20Z,-0.312313,0.037651,-0.104683,2025-02-19T21:42:20Z
27,265.83888,0.308016,7.258975,44.937744,293.24888,180,4.748652,4.029364,-93.167125,12.81,2025-02-19T21:42:22Z,-0.111547,-0.98119,-0.036992,2025-02-19T21:42:21Z,-0.230197,0.141304,-0.129067,2025-02-19T21:42:21Z
28,266.094496,1.3,7.914125,44.937619,293.504496,178.593753,4.748652,4.029364,-93.167118,13.31,2025-02-19T21:42:23Z,-0.112662,-0.995282,-0.016246,2025-02-19T21:42:22Z,-0.228064,0.010559,0.028315,2025-02-19T21:42:22Z
29,265.851331,0.84,7.258975,44.937503,293.261331,180.351562,4.748652,4.029364,-93.167133,12.91,2025-02-19T21:42:24Z,-0.117722,-0.990796,-0.018154,2025-02-19T21:42:23Z,-0.222428,0.042485,-0.052315,2025-02-19T21:42:23Z
30,265.178114,1.88,11.799653,44.937386,292.588114,180.703124,4.748652,4.029364,-93.167136,12.91,2025-02-19T21:42:25Z,-0.123185,-0.993648,-0.005639,2025-02-19T21:42:24Z,-0.248349,0.016717,0.007368,2025-02-19T21:42:24Z
31,265.475478,0.7,7.258975,44.937267,292.885477,179.648438,4.748652,4.029364,-93.167135,13.18,2025-02-19T21:42:26Z,-0.11433,-0.992979,-0.009958,2025-02-19T21:42:25Z,-0.215999,0.025162,0.057521,2025-02-19T21:42:25Z
32,265.400526,0.308017,7.258975,44.93715,292.810526,180.351562,4.748652,4.029364,-93.167136,13.18,2025-02-19T21:42:27Z,-0.100192,-0.992455,-0.042849,2025-02-19T21:42:26Z,-0.106016,0.025657,-0.044916,2025-02-19T21:42:26Z
33,264.663446,1.27021,7.8661,44.937037,292.073446,180.452426,2,3,-93.167142,13.083384,2025-02-19T21:42:28Z,-0.100581,-0.993487,-0.031775,2025-02-19T21:42:27Z,-0.065968,0.01135,0.021218,2025-02-19T21:42:27Z
34,264.631914,1.274857,7.824665,44.936919,292.041914,181.34533,3.083584,3,-93.167154,13.201001,2025-02-19T21:42:29Z,-0.105408,-0.986703,-0.043128,2025-02-19T21:42:28Z,-0.101574,0.084615,-0.078322,2025-02-19T21:42:28Z
35,264.537154,1.16078,7.258969,44.936796,291.947154,180.118414,2.541792,3,-93.16715,13.434306,2025-02-19T21:42:30Z,-0.120058,-1.003012,-0.026875,2025-02-19T21:42:29Z,-0.234079,-0.079581,0.025884,2025-02-19T21:42:29Z
36,264.454313,1.270299,7.652923,44.936674,291.864313,180.150716,2.714475,3,-93.167153,13.448457,2025-02-19T21:42:31Z,-0.110679,-0.985197,-0.022794,2025-02-19T21:42:30Z,-0.130131,0.093915,0.054178,2025-02-19T21:42:30Z
37,264.448524,1.265601,7.579072,44.936548,291.858524,180.019158,2.588829,3,-93.167151,13.530027,2025-02-19T21:42:32Z,-0.114344,-0.992042,-0.02805,2025-02-19T21:42:31Z,-0.171477,0.026545,0.019637,2025-02-19T21:42:31Z
38,264.341492,1.274962,7.608769,44.936425,291.751492,179.42116,2.285071,3,-93.167146,13.57689,2025-02-19T21:42:33Z,-0.119713,-0.995661,-0.038546,2025-02-19T21:42:32Z,-0.18501,-0.013628,-0.116161,2025-02-19T21:42:32Z
39,264.078108,1.270856,7.627609,44.936304,291.488108,179.68021,2.138998,3,-93.167139,13.498329,2025-02-19T21:42:34Z,-0.113456,-0.984703,-0.037856,2025-02-19T21:42:33Z,-0.120126,0.098492,-0.056798,2025-02-19T21:42:33Z
40,263.863368,1.271043,7.626588,44.936184,291.273367,179.806644,2.068458,3,-93.167136,13.502191,2025-02-19T21:42:35Z,-0.116073,-0.991964,-0.04566,2025-02-19T21:42:34Z,-0.157632,0.021463,-0.062738,2025-02-19T21:42:34Z
41,263.617243,1.268401,7.638935,44.936066,291.027243,180.049303,2.185929,3,-93.167138,13.451908,2025-02-19T21:42:36Z,-0.115584,-0.997425,-0.060332,2025-02-19T21:42:35Z,-0.177847,-0.033085,-0.136075,2025-02-19T21:42:35Z
42,263.467527,1.271656,7.670958,44.935948,290.877527,180.198484,2.092264,3,-93.167138,13.431055,2025-02-19T21:42:37Z,-0.113191,-0.991479,-0.051301,2025-02-19T21:42:36Z,-0.099765,0.025697,-0.12413,2025-02-19T21:42:36Z
43,263.232455,1.266246,7.665502,44.935828,290.642455,180.292475,2.240841,3,-93.167134,13.383161,2025-02-19T21:42:38Z,-0.116992,-0.982804,-0.021386,2025-02-19T21:42:37Z,-0.119497,0.103721,0.083711,2025-02-19T21:42:37Z
44,263.134148,1.268299,7.701398,44.93571,290.544148,180.642501,2.119366,3,-93.167131,13.342912,2025-02-19T21:42:39Z,-0.124878,-0.990379,-0.02512,2025-02-19T21:42:38Z,-0.176505,0.038065,0.07978,2025-02-19T21:42:38Z
45,262.977051,1.272313,7.757382,44.93559,290.387051,180.431786,2.058723,3,-93.167129,13.288044,2025-02-19T21:42:40Z,-0.130564,-0.98996,-0.034711,2025-02-19T21:42:39Z,-0.215293,0.034273,-0.039424,2025-02-19T21:42:39Z
46,262.801627,1.26689,7.757512,44.935468,290.211627,180.434896,2.028413,3,-93.167131,13.23048,2025-02-19T21:42:41Z,-0.132831,-0.991695,-0.036332,2025-02-19T21:42:40Z,-0.23264,0.017171,-0.044143,2025-02-19T21:42:40Z
47,262.728533,1.269959,7.853117,44.935348,290.138533,180.263654,2.666353,3,-93.167134,13.101641,2025-02-19T21:42:42Z,-0.135244,-0.98682,-0.04338,2025-02-19T21:42:41Z,-0.230034,0.063388,-0.084576,2025-02-19T21:42:41Z
48,262.645375,1.268786,7.964536,44.935231,290.055375,180.376601,2.558383,3,-93.167144,12.90604,2025-02-19T21:42:43Z,-0.136094,-0.995542,-0.038504,2025-02-19T21:42:42Z,-0.27381,-0.022003,-0.025505,2025-02-19T21:42:42Z
49,262.516436,1.26905,8.061848,44.935117,289.926436,180.016866,2.281626,3,-93.16715,12.752317,2025-02-19T21:42:44Z,-0.135119,-0.984652,-0.040955,2025-02-19T21:42:43Z,-0.224154,0.079846,-0.043154,2025-02-19T21:42:43Z
50,262.280309,1.164821,7.551902,44.935008,289.690309,180.522506,2.144682,3,-93.167157,12.494324,2025-02-19T21:42:45Z,-0.187039,-0.982833,-0.048082,2025-02-19T21:42:44Z,-0.67888,0.092591,-0.131539,2025-02-19T21:42:44Z
51,262.028069,1.158965,7.70888,44.934901,289.438069,180.163852,2.075052,3,-93.167156,12.176924,2025-02-19T21:42:46Z,-0.235148,-0.97501,-0.065457,2025-02-19T21:42:45Z,-1.126199,0.16932,-0.291682,2025-02-19T21:42:45Z
52,261.869399,1.160677,8.050412,44.934799,289.279399,180.357288,2.191257,3,-93.167153,11.678027,2025-02-19T21:42:47Z,-0.243305,-0.979593,-0.063875,2025-02-19T21:42:46Z,-1.112364,0.109394,-0.26593,2025-02-19T21:42:46Z
53,261.968947,1.275612,9.783364,44.934712,289.378947,180.131811,2.342074,3,-93.167148,10.562654,2025-02-19T21:42:48Z,-0.16814,-0.98381,-0.055409,2025-02-19T21:42:47Z,-0.293817,0.060532999999999997,-0.136257,2025-02-19T21:42:47Z
54,261.979249,1.26977,11.102625,44.934637,289.389249,179.803024,2.727587,3,-93.167141,9.264923,2025-02-19T21:42:49Z,-0.180233,-0.982171,-0.033838,2025-02-19T21:42:48Z,-0.277193,0.064351,-0.013166,2025-02-19T21:42:48Z
55,262.033392,1.164464,10.982559,44.934566,289.443391,179.998277,2.949779,3,-93.167135,8.590348,2025-02-19T21:42:50Z,-0.175374,-0.992125,-0.04387,2025-02-19T21:42:49Z,-0.285694,-0.043796,-0.145384,2025-02-19T21:42:49Z
56,261.97584,1.272324,12.901912,44.934501,289.38584,180.060876,2.651408,3,-93.167129,7.989135,2025-02-19T21:42:51Z,-0.252395,-0.975148,-0.048687,2025-02-19T21:42:50Z,-0.944988,0.119073,-0.261577,2025-02-19T21:42:50Z
57,262.021636,1.270275,14.029522,44.934443,289.431636,180.248091,2.675853,3,-93.167129,7.335935,2025-02-19T21:42:52Z,-0.280812,-0.977386,-0.048133,2025-02-19T21:42:51Z,-1.174536,0.095365,-0.302454,2025-02-19T21:42:51Z
58,262.067432,1.277444,17.078648,44.934394,289.477432,181.271732,3.025131,3,-93.167129,6.058934,2025-02-19T21:42:53Z,-0.337428,-0.964124,-0.059104,2025-02-19T21:42:52Z,-1.718054,0.223013,-0.48536,2025-02-19T21:42:52Z
59,262.217652,1.267032,21.965139,44.934363,289.627652,180.732729,2.952968,3,-93.167125,4.673667,2025-02-19T21:42:54Z,-0.286954,-0.968693,-0.033224,2025-02-19T21:42:53Z,-1.133327,0.159806,-0.273388,2025-02-19T21:42:53Z
60,262.19546,1.269333,42.375276,44.934346,289.60546,179.857357,2.980718,3,-93.167124,2.418902,2025-02-19T21:42:55Z,-0.182111,-0.985713,-0.006139,2025-02-19T21:42:54Z,-0.104292,-0.004153,-0.061154,2025-02-19T21:42:54Z
