seconds_elapsed,location_altitude,location_speedAccuracy,location_bearingAccuracy,location_latitude,location_altitudeAboveMeanSeaLevel,location_bearing,location_horizontalAccuracy,location_verticalAccuracy,location_longitude,location_speed,location_local_time,accelerometerUncalibrated_z,accelerometerUncalibrated_y,accelerometerUncalibrated_x,accelerometerUncalibrated_local_time,accelerometer_z,accelerometer_y,accelerometer_x,accelerometer_local_time
0,264.112126,2.13611,30.092747,44.934431,291.522125,354.282598,2.984692,3,-93.166969,5.739409,2025-02-19T21:54:17Z,-0.133054,-0.993941,-0.062755,2025-02-19T21:54:16Z,0.286702,-0.083666,-0.165599,2025-02-19T21:54:16Z
1,263.961351,2.092863,25.985964,44.934494,291.371351,358.458121,2.985435,3,-93.166964,6.505003,2025-02-19T21:54:18Z,-0.123244,-0.990051,-0.022009,2025-02-19T21:54:17Z,0.341547,-0.039747,0.272568,2025-02-19T21:54:17Z
2,264.03713,2.036448,22.638453,44.934563,291.44713,0.15017,3.016219,3,-93.166966,7.234162,2025-02-19T21:54:19Z,-0.112403,-1.001819,-0.034756,2025-02-19T21:54:18Z,0.367984,-0.138677,0.259879,2025-02-19T21:54:18Z
3,264.052037,1.968077,19.058262,44.934641,291.462036,359.502319,3.00236,3,-93.166967,8.306578,2025-02-19T21:54:20Z,-0.110888,-0.993215,-0.038619,2025-02-19T21:54:19Z,0.340302,-0.067652,0.280306,2025-02-19T21:54:19Z
4,263.859899,1.89292,16.802979,44.934726,291.269898,359.502319,2.932343,3,-93.166969,9.10934,2025-02-19T21:54:21Z,-0.130272,-0.99236,-0.069119,2025-02-19T21:54:20Z,0.081207,-0.043771,0.11353100000000001,2025-02-19T21:54:20Z
5,263.78986,1.859622,15.471929,44.934815,291.19986,0,2.591189,3,-93.16697,9.691667,2025-02-19T21:54:22Z,-0.139015,-0.989283,-0.05826,2025-02-19T21:54:21Z,0.007307,-0.027637,0.20867,2025-02-19T21:54:21Z
6,263.627673,1.834029,14.409283,44.934909,291.037673,0,2.837645,3,-93.16697,10.290435,2025-02-19T21:54:23Z,-0.137878,-0.991074,-0.06811,2025-02-19T21:54:22Z,-0.019396,-0.033798,0.113049,2025-02-19T21:54:22Z
7,263.860562,1.824502,13.499826,44.935009,291.270562,0,3.032682,3,-93.166971,10.922729,2025-02-19T21:54:24Z,-0.135679,-0.991171,-0.059049,2025-02-19T21:54:23Z,-0.005301,-0.031522,0.138677,2025-02-19T21:54:23Z
8,263.893659,1.818671,12.826244,44.935115,291.303659,0,2.693676,3,-93.166969,11.48732,2025-02-19T21:54:25Z,-0.139104,-0.984869,-0.062317,2025-02-19T21:54:24Z,-0.067001,0.033216,0.126979,2025-02-19T21:54:24Z
9,263.993006,1.798856,12.13385,44.935224,291.403006,0,2.817841,3,-93.166972,12.012537,2025-02-19T21:54:26Z,-0.141176,-0.97194,-0.067282,2025-02-19T21:54:25Z,-0.034622,0.151695,0.10604,2025-02-19T21:54:25Z
10,263.837626,1.766347,11.455648,44.935339,291.247626,0,2.500886,3,-93.166971,12.49355,2025-02-19T21:54:27Z,-0.176178,-1.008604,-0.045537,2025-02-19T21:54:26Z,-0.334562,-0.202642,0.101701,2025-02-19T21:54:26Z
11,264.080766,1.742365,10.959294,44.935458,291.490766,0,3.509031,3,-93.166975,12.880923,2025-02-19T21:54:28Z,-0.160651,-0.978178,-0.052347,2025-02-19T21:54:27Z,-0.256798,0.101275,0.134512,2025-02-19T21:54:27Z
12,264.075451,1.745695,10.754528,44.935577,291.485451,0,2.806162,3,-93.166972,13.151629,2025-02-19T21:54:29Z,-0.167114,-0.978933,-0.059756,2025-02-19T21:54:28Z,-0.302286,0.093922,0.120823,2025-02-19T21:54:28Z
13,264.054422,1.757124,10.614121,44.935698,291.464422,0,2.398869,3,-93.166973,13.412699,2025-02-19T21:54:30Z,-0.16414,-0.98159,-0.063806,2025-02-19T21:54:29Z,-0.262867,0.058198,0.106898,2025-02-19T21:54:29Z
14,264.089017,1.722554,10.173497,44.935823,291.499017,0.230499,2.193983,3,-93.166974,13.717567,2025-02-19T21:54:31Z,-0.168323,-0.993666,-0.08868,2025-02-19T21:54:30Z,-0.251836,-0.064466,-0.118557,2025-02-19T21:54:30Z
15,264.024459,1.72576,10.038978,44.935948,291.434459,0.230499,3.106605,3,-93.166975,13.928499,2025-02-19T21:54:32Z,-0.162017,-0.969879,-0.068114,2025-02-19T21:54:31Z,-0.156774,0.16255,-0.044978,2025-02-19T21:54:31Z
16,264.431482,0.306179,7.258143,44.936081,291.841482,0.230499,2.516571,3,-93.16697,14.188107,2025-02-19T21:54:33Z,-0.18354,-0.985615,-0.058626,2025-02-19T21:54:32Z,-0.350687,0.017005,0.071039,2025-02-19T21:54:32Z
17,264.212443,0.303787,7.258367,44.936212,291.622443,359.878601,2.240891,3,-93.166966,14.393006,2025-02-19T21:54:34Z,-0.173548,-0.957977,-0.060107,2025-02-19T21:54:33Z,-0.198716,0.274004,0.07485,2025-02-19T21:54:33Z
18,264.164339,0.300856,7.257899,44.936346,291.574339,359.878601,2.111023,3,-93.166966,14.622053,2025-02-19T21:54:35Z,-0.183139,-1.003015,-0.056112,2025-02-19T21:54:34Z,-0.305142,-0.168339,0.076587,2025-02-19T21:54:34Z
19,264.191986,0.298346,7.257973,44.93648,291.601986,359.878601,2.050723,3,-93.166966,14.735634,2025-02-19T21:54:36Z,-0.175441,-0.978664,-0.077144,2025-02-19T21:54:35Z,-0.21529,0.073534,-0.063298,2025-02-19T21:54:35Z
20,264.213574,0.293614,7.257642,44.936615,291.623574,359.878601,2.023204,3,-93.166965,14.921067,2025-02-19T21:54:37Z,-0.172532,-0.983262,-0.070753,2025-02-19T21:54:36Z,-0.166038,0.015868,0.004628,2025-02-19T21:54:36Z
21,264.449252,0.284009,7.255115,44.936751,291.859252,0.133632,2.01053,3,-93.166965,14.976575,2025-02-19T21:54:38Z,-0.18391,-0.9783,-0.063803,2025-02-19T21:54:37Z,-0.257816,0.063244,0.046544,2025-02-19T21:54:37Z
22,264.530821,0.282346,7.254861,44.936887,291.940821,0.133632,2.004746,3,-93.166965,15.088402,2025-02-19T21:54:39Z,-0.18036,-0.988942,-0.071513,2025-02-19T21:54:38Z,-0.225466,-0.034818,-0.009189,2025-02-19T21:54:38Z
23,264.779286,0.277747,7.253115,44.937025,292.189285,0.679109,2.002121,3,-93.166966,15.189169,2025-02-19T21:54:40Z,-0.179237,-0.975464,-0.081907,2025-02-19T21:54:39Z,-0.201184,0.081235,-0.10573,2025-02-19T21:54:39Z
24,264.875293,0.282064,7.255936,44.937167,292.285293,359.884857,2.000932,3,-93.166964,15.362942,2025-02-19T21:54:41Z,-0.177342,-0.980974,-0.080117,2025-02-19T21:54:40Z,-0.126369,0.027077,-0.091425,2025-02-19T21:54:40Z
25,265.052537,0.267271,7.251513,44.937309,292.462537,359.884857,2.000408,3,-93.166963,15.538219,2025-02-19T21:54:42Z,-0.187214,-0.973351,-0.078984,2025-02-19T21:54:41Z,-0.257825,0.111851,-0.021711,2025-02-19T21:54:41Z
26,265.207878,0.274011,7.252365,44.937448,292.617878,359.884857,2.000178,3,-93.166963,15.301832,2025-02-19T21:54:43Z,-0.249566,-0.96456,-0.065236,2025-02-19T21:54:42Z,-0.807926,0.190203,0.040806,2025-02-19T21:54:42Z
27,265.324667,0.291746,7.255183,44.937581,292.734666,0.565796,2.000079,3,-93.166965,14.798057,2025-02-19T21:54:44Z,-0.247279,-0.961154,-0.082357,2025-02-19T21:54:43Z,-0.751938,0.204366,-0.10965,2025-02-19T21:54:43Z
28,265.526137,0.288128,7.255902,44.937711,292.936137,0.565796,2.000036,3,-93.166966,14.250992,2025-02-19T21:54:45Z,-0.250765,-0.971526,-0.093102,2025-02-19T21:54:44Z,-0.737764,0.101,-0.225114,2025-02-19T21:54:44Z
29,265.499161,0.32216,7.258591,44.937834,292.909161,0,2.626954,3,-93.166965,13.765801,2025-02-19T21:54:46Z,-0.219355,-0.961025,-0.071169,2025-02-19T21:54:45Z,-0.351295,0.198007,-0.022222,2025-02-19T21:54:45Z
30,265.538174,0.33859,7.257471,44.937956,292.948174,0,2.345879,3,-93.166962,13.591997,2025-02-19T21:54:47Z,-0.208515,-0.964953,-0.095595,2025-02-19T21:54:46Z,-0.223673,0.134509,-0.141204,2025-02-19T21:54:46Z
31,265.484228,0.415832,7.243277,44.938075,292.894227,0,3.058001,3,-93.166965,13.481462,2025-02-19T21:54:48Z,-0.217895,-0.951298,-0.073344,2025-02-19T21:54:47Z,-0.134531,0.247782,0.019294,2025-02-19T21:54:47Z
32,265.334993,0.444542,7.233282,44.938195,292.744993,0,2.696282,3,-93.166965,13.297552,2025-02-19T21:54:49Z,-0.215623,-0.967708,-0.075369,2025-02-19T21:54:48Z,-0.04457,0.065753,0.011684,2025-02-19T21:54:48Z
33,265.101746,0.42144,7.239975,44.938315,292.511746,0.435836,2.343056,3,-93.166964,13.325811,2025-02-19T21:54:50Z,-0.219522,-0.973868,-0.06384,2025-02-19T21:54:49Z,-0.06644,0.012107,0.02021,2025-02-19T21:54:49Z
34,264.839518,0.408132,7.241964,44.938435,292.249518,0.435836,2.617421,3,-93.166962,13.368611,2025-02-19T21:54:51Z,-0.219113,-0.974391,-0.062289,2025-02-19T21:54:50Z,-0.068153,0.006131,0.030064,2025-02-19T21:54:50Z
35,264.611229,0.406447,7.240683,44.938556,292.021229,0.435836,2.430486,3,-93.166964,13.42028,2025-02-19T21:54:52Z,-0.218982,-0.968492,-0.064282,2025-02-19T21:54:51Z,-0.051619,0.060401,0.008359,2025-02-19T21:54:51Z
36,264.67267,0.390562,7.245907,44.938677,292.08267,0.435836,2.942172,3,-93.166964,13.216774,2025-02-19T21:54:53Z,-0.238151,-0.969374,-0.066212,2025-02-19T21:54:52Z,-0.238553,0.047956,0.055904,2025-02-19T21:54:52Z
37,264.56839,0.420064,7.23692,44.938794,291.97839,0.435836,2.465223,3,-93.166965,13.029677,2025-02-19T21:54:54Z,-0.231967,-0.967788,-0.07965,2025-02-19T21:54:53Z,-0.184666,0.061629,-0.022296,2025-02-19T21:54:53Z
38,264.495447,0.431536,7.235771,44.938909,291.905447,0.283031,2.357284,3,-93.166966,12.748781,2025-02-19T21:54:55Z,-0.238812,-0.972089,-0.090726,2025-02-19T21:54:54Z,-0.245647,0.016311,-0.141526,2025-02-19T21:54:54Z
39,264.474458,0.400141,7.246942,44.939022,291.884458,0.283031,2.179883,3,-93.166965,12.488954,2025-02-19T21:54:56Z,-0.232445,-0.96053,-0.09626,2025-02-19T21:54:55Z,-0.23791,0.130458,-0.08283,2025-02-19T21:54:55Z
40,264.14619,0.54481,7.18258,44.939131,291.556189,0.283031,2.308961,3,-93.166965,12.200465,2025-02-19T21:54:57Z,-0.234499,-0.958677,-0.095552,2025-02-19T21:54:56Z,-0.157829,0.113946,0.079227,2025-02-19T21:54:56Z
41,263.740705,0.623769,7.105396,44.939238,291.150705,0.225607,2.160441,3,-93.166968,11.901705,2025-02-19T21:54:58Z,-0.288412,-0.953054,-0.126415,2025-02-19T21:54:57Z,-0.644988,0.151719,-0.145146,2025-02-19T21:54:57Z
42,263.416389,0.739478,7.002782,44.939336,290.826389,0.225607,2.112697,3,-93.166967,10.940896,2025-02-19T21:54:59Z,-0.309138,-0.949624,-0.121867,2025-02-19T21:54:58Z,-0.823437,0.185969,-0.143425,2025-02-19T21:54:58Z
43,263.272929,0.74138,6.932403,44.939425,290.682929,359.584412,2.062002,3,-93.166966,10.003047,2025-02-19T21:55:00Z,-0.305986,-0.948513,-0.118431,2025-02-19T21:54:59Z,-0.757677,0.188157,-0.153698,2025-02-19T21:54:59Z
44,262.937139,0.784317,6.739285,44.939508,290.347139,0,2.035154,3,-93.166965,9.097815,2025-02-19T21:55:01Z,-0.304399,-0.949665,-0.11762,2025-02-19T21:55:00Z,-0.636782,0.156155,-0.159909,2025-02-19T21:55:00Z
45,262.831371,0.743795,6.69229,44.939582,290.241371,0,2.02088,3,-93.166963,8.208012,2025-02-19T21:55:02Z,-0.305016,-0.94763,-0.116253,2025-02-19T21:55:01Z,-0.593958,0.16621,-0.147671,2025-02-19T21:55:01Z
46,262.659766,0.749792,6.505199,44.939647,290.069766,359.6922,2.012812,3,-93.166961,7.339157,2025-02-19T21:55:03Z,-0.284058,-0.956513,-0.110019,2025-02-19T21:55:02Z,-0.297169,0.05399,-0.074304,2025-02-19T21:55:02Z
47,262.688552,0.674022,6.678212,44.939711,290.098552,359.6922,2.008862,3,-93.166958,6.866178,2025-02-19T21:55:04Z,-0.271783,-0.967884,-0.089706,2025-02-19T21:55:03Z,-0.193211,-0.046502,0.032939,2025-02-19T21:55:03Z
48,262.489917,0.681442,6.487153,44.939768,289.899917,359.6922,2.096756,3,-93.166958,6.42935,2025-02-19T21:55:05Z,-0.251443,-0.955008,-0.099311,2025-02-19T21:55:04Z,0.047509,0.063253,1.62e-4,2025-02-19T21:55:04Z
49,262.541696,0.643424,6.577646,44.939821,289.951696,0,2.121337,3,-93.166956,5.968242,2025-02-19T21:55:06Z,-0.261066,-0.956409,-0.091436,2025-02-19T21:55:05Z,-0.008514,0.038089,0.031977,2025-02-19T21:55:05Z
50,262.508007,0.611283,6.745526,44.939872,289.918007,0,2.1333,3,-93.166955,5.634198,2025-02-19T21:55:07Z,-0.226525,-0.975611,-0.08713,2025-02-19T21:55:06Z,0.309157,-0.13623,0.10598,2025-02-19T21:55:06Z
51,262.638868,0.598531,6.910817,44.939925,290.048868,0,2.114257,3,-93.166955,5.697624,2025-02-19T21:55:08Z,-0.19536,-0.975147,-0.093183,2025-02-19T21:55:07Z,0.521141,-0.119712,0.103784,2025-02-19T21:55:07Z
52,262.710268,0.605164,7.512724,44.939979,290.120268,0,2.146273,3,-93.166954,5.991142,2025-02-19T21:55:09Z,-0.178444,-0.979446,-0.084898,2025-02-19T21:55:08Z,0.677161,-0.154942,0.137993,2025-02-19T21:55:08Z
53,262.758847,0.437175,7.206052,44.940037,290.168847,0,2.129606,3,-93.166953,6.279657,2025-02-19T21:55:10Z,-0.167336,-0.9883,-0.067191,2025-02-19T21:55:09Z,0.689372,-0.201633,0.177683,2025-02-19T21:55:09Z
54,262.873543,0.305611,7.257368,44.940098,290.283543,0,2.12978,3,-93.166957,6.745494,2025-02-19T21:55:11Z,-0.142943,-0.981918,-0.084594,2025-02-19T21:55:10Z,0.769456,-0.118246,0.118002,2025-02-19T21:55:10Z
55,262.878713,0.303361,7.256114,44.940166,290.288712,0.195515,2.108422,3,-93.166959,7.315377,2025-02-19T21:55:12Z,-0.148394,-0.970994,-0.086354,2025-02-19T21:55:11Z,0.781493,-0.027182,0.162218,2025-02-19T21:55:11Z
56,262.635237,0.278997,7.254085,44.940237,290.045237,0.195515,2.090082,3,-93.166959,7.845851,2025-02-19T21:55:13Z,-0.164859,-0.986122,-0.075309,2025-02-19T21:55:12Z,0.765855,-0.193297,0.139448,2025-02-19T21:55:12Z
57,262.645327,0.277362,7.255252,44.940316,290.055327,0.195515,2.206215,3,-93.166962,8.457467,2025-02-19T21:55:14Z,-0.173834,-0.985333,-0.082959,2025-02-19T21:55:13Z,0.563611,-0.157404,0.012327,2025-02-19T21:55:13Z
58,262.683219,0.290522,7.256317,44.940396,290.093219,0.195515,2.268486,3,-93.166962,8.681414,2025-02-19T21:55:15Z,-0.220424,-0.971428,-0.097177,2025-02-19T21:55:14Z,0.03325,-0.005218,-0.125988,2025-02-19T21:55:14Z
59,262.766424,0.296541,7.256876,44.940474,290.176423,0.195515,2.174215,3,-93.166961,8.541966,2025-02-19T21:55:16Z,-0.22986,-0.96614,-0.096362,2025-02-19T21:55:15Z,-0.122426,0.059168,-0.110957,2025-02-19T21:55:15Z
60,262.806784,0.296178,7.256566,44.940549,290.216784,0.195515,2.115155,3,-93.16696,8.368584,2025-02-19T21:55:17Z,-0.231078,-0.965264,-0.096336,2025-02-19T21:55:16Z,-0.153347,0.068542,-0.059208,2025-02-19T21:55:16Z
61,262.8456,0.295947,7.257324,44.940622,290.2556,0.195515,2.815095,3,-93.166959,8.154959,2025-02-19T21:55:18Z,-0.228608,-0.969764,-0.089346,2025-02-19T21:55:17Z,-0.136447,0.024443,-0.00752,2025-02-19T21:55:17Z
62,262.667688,0.294816,7.256794,44.940693,290.077688,0.195515,2.563449,3,-93.166958,7.960289,2025-02-19T21:55:19Z,-0.221142,-0.966366,-0.070516,2025-02-19T21:55:18Z,0.018892,0.056597,0.07669,2025-02-19T21:55:18Z
63,262.692347,0.302601,7.258628,44.940766000000004,290.102347,359.438263,2.472348,3,-93.166962,8.153742,2025-02-19T21:55:20Z,-0.157719,-0.985105,-0.052425,2025-02-19T21:55:19Z,0.588351,-0.10667,0.131672,2025-02-19T21:55:19Z
64,262.543822,0.286184,7.257693,44.940845,289.953822,359.107117,2.494181,3,-93.166963,8.632206,2025-02-19T21:55:21Z,-0.211487,-0.97467,-0.05615,2025-02-19T21:55:20Z,0.056634,-0.008399,0.093141,2025-02-19T21:55:20Z
65,262.459867,0.293468,7.257542,44.940922,289.869867,359.107208,2.411618,3,-93.166962,8.428259,2025-02-19T21:55:22Z,-0.242626,-0.96628,-0.07027,2025-02-19T21:55:21Z,-0.237041,0.056046,-0.038319,2025-02-19T21:55:21Z
66,262.241718,0.295245,7.25748,44.940997,289.651718,359.107208,2.749118,3,-93.166964,8.3503520000000009,2025-02-19T21:55:23Z,-0.233149,-0.973421,-0.066416,2025-02-19T21:55:22Z,-0.156201,0.019086,-0.012356,2025-02-19T21:55:22Z
67,262.132238,0.296558,7.257796,44.941072,289.542238,0.206399,2.762398,3,-93.166965,8.307814,2025-02-19T21:55:24Z,-0.227245,-0.969206,-0.060698,2025-02-19T21:55:23Z,-0.113981,0.046941,-0.006807,2025-02-19T21:55:23Z
68,262.07506,0.296026,7.257641,44.941146,289.485059,0.206399,2.623299,3,-93.166966,8.1228,2025-02-19T21:55:25Z,-0.247813,-0.969031,-0.073786,2025-02-19T21:55:24Z,-0.300917,0.05346,-0.092672,2025-02-19T21:55:24Z
69,261.898911,0.284539,7.25792,44.941212,289.308911,0.206399,2.723851,3,-93.166969,7.416642,2025-02-19T21:55:26Z,-0.294856,-0.943644,-0.099055,2025-02-19T21:55:25Z,-0.702031,0.279859,-0.406706,2025-02-19T21:55:25Z
70,261.993035,0.303204,7.258935,44.941274,289.403035,0.206399,2.782199,3,-93.166968,6.903407,2025-02-19T21:55:27Z,-0.227334,-0.984213,-0.050522,2025-02-19T21:55:26Z,-0.129954,-0.084408,0.046284,2025-02-19T21:55:26Z
71,262.078287,0.313353,7.258778,44.941336,289.488287,0,2.561305,3,-93.166966,6.943594,2025-02-19T21:55:28Z,-0.119618,-0.975279,-0.067087,2025-02-19T21:55:27Z,0.827318,-0.001913,0.188255,2025-02-19T21:55:27Z
72,261.81942,0.289386,7.258567,44.941405,289.22942,0,2.524761,3,-93.166966,7.793355,2025-02-19T21:55:29Z,-0.116349,-1.015371,-0.0501,2025-02-19T21:55:28Z,0.95896,-0.402406,0.198874,2025-02-19T21:55:28Z
73,262.048212,0.322887,7.258812,44.941486,289.458212,0,2.561636,3,-93.166965,8.749636,2025-02-19T21:55:30Z,-0.12234,-0.980678,-0.054165,2025-02-19T21:55:29Z,0.690101,-0.02664,0.27131,2025-02-19T21:55:29Z
74,261.618726,0.289213,7.258738,44.941569,289.028726,0.320952,2.613618,3,-93.166961,9.367547,2025-02-19T21:55:31Z,-0.151216,-0.966135,-0.093409,2025-02-19T21:55:30Z,0.516763,0.071838,0.080406,2025-02-19T21:55:30Z
75,NA,NA,NA,NA,NA,NA,NA,NA,NA,NA,NA,-0.161124,-0.994976,-0.099344,2025-02-19T21:55:31Z,0.465623,-0.227642,-0.055411,2025-02-19T21:55:31Z
