seconds_elapsed,location_altitude,location_speedAccuracy,location_bearingAccuracy,location_latitude,location_altitudeAboveMeanSeaLevel,location_bearing,location_horizontalAccuracy,location_verticalAccuracy,location_longitude,location_speed,location_local_time,accelerometerUncalibrated_z,accelerometerUncalibrated_y,accelerometerUncalibrated_x,accelerometerUncalibrated_local_time,accelerometer_z,accelerometer_y,accelerometer_x,accelerometer_local_time
0,261.987446,2.205025,35.293429,44.941362,289.397446,157.573191,2.70224,3,-93.167073,5.057222,2025-02-19T21:47:44Z,-0.0984,-0.991154,-0.147998,2025-02-19T21:47:43Z,0.421092,-0.023938,-0.970739,2025-02-19T21:47:43Z
1,262.018268,2.165999,31.06,44.941306,289.428268,175.687511,2.667128,3,-93.167078,5.648979,2025-02-19T21:47:45Z,-0.106468,-0.993618,-0.035028,2025-02-19T21:47:44Z,0.382025,-0.049486,0.06071,2025-02-19T21:47:44Z
2,262.043191,2.083239,25.615887,44.941243,289.453191,181.557327,2.667223,3,-93.167087,6.589655,2025-02-19T21:47:46Z,-0.160046,-1.001202,0.054304,2025-02-19T21:47:45Z,-0.095966,-0.124895,0.759835,2025-02-19T21:47:45Z
3,262.046619,2.023268,22.9014,44.941177,289.456619,181.25354,2.617733,3,-93.167087,7.138676,2025-02-19T21:47:47Z,-0.143534,-0.987571,-0.010515,2025-02-19T21:47:46Z,-0.15229,0.032153,0.28261,2025-02-19T21:47:46Z
4,262.139627,2.029333,21.713491,44.941108,289.549627,181.25354,2.514888,3,-93.167079,7.514,2025-02-19T21:47:48Z,-0.141805,-0.983501,-0.045322,2025-02-19T21:47:47Z,-0.143973,0.072035,-0.071283,2025-02-19T21:47:47Z
5,262.219801,1.983677,20.329672,44.941036,289.629801,181.25354,2.525354,3,-93.167069,7.857388,2025-02-19T21:47:49Z,-0.14058,-0.988572,-0.04692,2025-02-19T21:47:48Z,-0.109819,0.022941,-0.08251,2025-02-19T21:47:48Z
6,262.274354,1.932235,18.97678,44.940961,289.684354,180.86116,2.37471,3,-93.167062,8.229759,2025-02-19T21:47:50Z,-0.165542,-0.981017,-0.049861,2025-02-19T21:47:49Z,-0.329495,0.092241,-0.135122,2025-02-19T21:47:49Z
7,262.283867,1.93793,18.587352,44.940885,289.693867,180.86116,2.387285,3,-93.167061,8.43897,2025-02-19T21:47:51Z,-0.215186,-0.976427,-0.038916,2025-02-19T21:47:50Z,-0.734206,0.129461,-0.108712,2025-02-19T21:47:50Z
8,262.335273,1.949655,19.216314,44.94081,289.745273,180.112579,2.25565,3,-93.167063,8.212526,2025-02-19T21:47:52Z,-0.220405,-0.974074,-0.051223,2025-02-19T21:47:51Z,-0.78037,0.151428,-0.12451,2025-02-19T21:47:51Z
9,262.441565,1.969622,20.206435,44.940737,289.851565,180.112579,2.711455,3,-93.167063,7.887237,2025-02-19T21:47:53Z,-0.21977,-0.97337,-0.033084,2025-02-19T21:47:52Z,-0.725088,0.148921,-0.00177,2025-02-19T21:47:52Z
10,262.600627,2.000925,21.486777,44.94067,290.010627,180.112579,2.485831,3,-93.167065,7.504904,2025-02-19T21:47:54Z,-0.220223,-0.975403,-0.029763,2025-02-19T21:47:53Z,-0.679402,0.126371,0.00731,2025-02-19T21:47:53Z
11,262.755925,2.063224,22.930395,44.940604,290.165925,180.112579,2.637861,3,-93.167065,7.172705,2025-02-19T21:47:55Z,-0.213967,-0.967047,-0.029183,2025-02-19T21:47:54Z,-0.566042,0.193296,0.029875,2025-02-19T21:47:54Z
12,262.81577,2.049132,24.165893,44.94054,290.22577,180.112579,2.491094,3,-93.167067,6.869776,2025-02-19T21:47:56Z,-0.218908,-0.983576,-0.036261,2025-02-19T21:47:55Z,-0.551515,0.031295,0.028307,2025-02-19T21:47:55Z
13,263.019642,2.082077,25.572491,44.94048,290.429642,180.112579,2.382901,3,-93.167066,6.576209,2025-02-19T21:47:57Z,-0.208459,-0.972809,-0.039531,2025-02-19T21:47:56Z,-0.464836,0.127315,0.007578,2025-02-19T21:47:56Z
14,263.244008,2.10591,26.580299,44.940422,290.654008,180.112579,2.276989,3,-93.167064,6.298313,2025-02-19T21:47:58Z,-0.164872,-0.987036,-0.033151,2025-02-19T21:47:57Z,-0.019328,-0.013884,0.100245,2025-02-19T21:47:57Z
15,263.663827,2.211024,25.394935,44.940362,291.073827,180.112579,2.416066,3,-93.167062,6.368568,2025-02-19T21:47:59Z,-0.137701,-0.989237,-0.037519,2025-02-19T21:47:58Z,0.253297,-0.038476,0.061336,2025-02-19T21:47:58Z
16,263.173411,2.069664,25.276464,44.940303,290.583411,179.59111,2.326689,3,-93.167059,6.629616,2025-02-19T21:48:00Z,-0.131189,-0.992036,-0.031909,2025-02-19T21:47:59Z,0.326849,-0.066716,0.099561,2025-02-19T21:47:59Z
17,263.301944,2.033674,23.177104,44.940237,290.711944,179.59111,2.352446,3,-93.167055,7.10799,2025-02-19T21:48:01Z,-0.122512,-0.990805,-0.042635,2025-02-19T21:48:00Z,0.363698,-0.047107,0.078629,2025-02-19T21:48:00Z
18,263.54842,2.005956,21.116848,44.940166,290.95842,179.59111,2.270773,3,-93.167055,7.626435,2025-02-19T21:48:02Z,-0.104124,-0.99279,-0.041415,2025-02-19T21:48:01Z,0.559771,-0.06745,0.128626,2025-02-19T21:48:01Z
19,263.639773,1.949381,18.844574,44.94009,291.049773,179.59111,2.196457,3,-93.167055,8.369428,2025-02-19T21:48:03Z,-0.101928,-0.989987,-0.036725,2025-02-19T21:48:02Z,0.58714,-0.049906,0.17545,2025-02-19T21:48:02Z
20,263.714032,1.905006,16.831301,44.940006,291.124032,180.917862,2.345157,3,-93.167056,9.167355,2025-02-19T21:48:04Z,-0.114941,-1.000338,-0.035928,2025-02-19T21:48:03Z,0.462793,-0.144374,0.133438,2025-02-19T21:48:03Z
21,263.793594,1.902423,15.466544,44.939916,291.203593,180.917862,2.345504,3,-93.167058,9.866333,2025-02-19T21:48:05Z,-0.117897,-0.997327,-0.020364,2025-02-19T21:48:04Z,0.347554,-0.096211,0.147834,2025-02-19T21:48:04Z
22,263.950342,0.323115,7.239273,44.93982,291.360341,180.917862,2.695126,3,-93.167058,10.600447,2025-02-19T21:48:06Z,-0.110558,-0.998146,-0.02587,2025-02-19T21:48:05Z,0.323226,-0.09114,0.089164,2025-02-19T21:48:05Z
23,264.061111,0.30772,7.249795,44.939719,291.47111,180.917862,2.497368,3,-93.167062,11.2426,2025-02-19T21:48:07Z,-0.119906,-0.994512,-0.02224,2025-02-19T21:48:06Z,0.199666,-0.046069,0.118272,2025-02-19T21:48:06Z
24,264.107487,0.283319,7.249317,44.939611,291.517487,180.917862,2.320527,3,-93.167064,11.896031,2025-02-19T21:48:08Z,-0.123969,-0.989903,-0.020853,2025-02-19T21:48:07Z,0.142665,0.002241,0.096633,2025-02-19T21:48:07Z
25,264.251663,0.329548,7.255671,44.939499,291.661663,180.49446,2.16887,3,-93.167065,12.447212,2025-02-19T21:48:09Z,-0.118633,-0.995305,-0.022947,2025-02-19T21:48:08Z,0.156961,-0.048236,0.070559,2025-02-19T21:48:08Z
26,264.450436,0.333777,7.257454,44.93938,291.860436,180.805062,2.281732,3,-93.167067,13.036153,2025-02-19T21:48:10Z,-0.142569,-0.991822,-0.024021,2025-02-19T21:48:09Z,-0.0582,-0.021927,0.060562,2025-02-19T21:48:09Z
27,264.604443,0.332229,7.257758,44.939258,292.01444300000003,180.933833,2.139835,3,-93.16707,13.407517,2025-02-19T21:48:11Z,-0.146814,-0.988598,-0.035931,2025-02-19T21:48:10Z,-0.141875,0.021006,0.039568,2025-02-19T21:48:10Z
28,264.746154,0.333683,7.257635,44.939133,292.156154,180.793693,2.068333,3,-93.16707,13.746438,2025-02-19T21:48:12Z,-0.14607,-0.979457,-0.036157,2025-02-19T21:48:11Z,-0.089878,0.09474,0.017846,2025-02-19T21:48:11Z
29,264.862843,0.323211,7.258568,44.939006,292.272843,179.57132,2.032756,3,-93.167071000000007,14.099971,2025-02-19T21:48:13Z,-0.155108,-0.983902,-0.045204,2025-02-19T21:48:12Z,-0.184752,0.064983,-0.020093,2025-02-19T21:48:12Z
30,265.025325,0.320078,7.258758,44.938875,292.435325,180.472351,2.039625,3,-93.167072,14.374142,2025-02-19T21:48:14Z,-0.15865,-0.987463,-0.039504,2025-02-19T21:48:13Z,-0.178655,0.010166,0.01013,2025-02-19T21:48:13Z
31,265.118346,0.312105,7.258951,44.938744,292.528345,180.472351,2.018605,3,-93.167072,14.598595,2025-02-19T21:48:15Z,-0.155352,-0.985805,-0.045158,2025-02-19T21:48:14Z,-0.153307,0.036396,-0.021246,2025-02-19T21:48:14Z
32,265.315473,0.317427,7.258864,44.938611,292.725473,180.219025,2.008616,3,-93.167071000000007,14.817472,2025-02-19T21:48:16Z,-0.157592,-0.985565,-0.045596,2025-02-19T21:48:15Z,-0.15022,0.030626,-0.042353,2025-02-19T21:48:15Z
33,265.408277,0.319113,7.258827,44.938477,292.818276,180.219025,2.213337,3,-93.167071000000007,14.978978,2025-02-19T21:48:17Z,-0.155327,-0.982584,-0.048447,2025-02-19T21:48:16Z,-0.128551,0.068573,-0.047821,2025-02-19T21:48:16Z
34,265.530251,0.319476,7.258827,44.93834,292.940251,179.689209,2.096839,3,-93.167071000000007,15.189551,2025-02-19T21:48:18Z,-0.157526,-0.986423,-0.045052,2025-02-19T21:48:17Z,-0.122013,0.01272,-0.013048,2025-02-19T21:48:17Z
35,265.709634,0.325707,7.258654,44.938201,293.119634,180,2.043176,3,-93.167072,15.410481,2025-02-19T21:48:19Z,-0.164274,-0.986526,-0.047178,2025-02-19T21:48:18Z,-0.184188,0.017792,-0.049521,2025-02-19T21:48:18Z
36,265.802046,0.321109,7.258813,44.938061,293.212045,180.672775,2.297259,3,-93.167073,15.59856,2025-02-19T21:48:20Z,-0.158607,-0.970472,-0.041367,2025-02-19T21:48:19Z,-0.090892,0.172024,0.038312,2025-02-19T21:48:19Z
37,265.720102,0.303801,7.25896,44.937919,293.130102,180.672775,2.244917,3,-93.167076,15.852453,2025-02-19T21:48:21Z,-0.170246,-0.9675,-0.032304,2025-02-19T21:48:20Z,-0.078479,0.18133,0.07851,2025-02-19T21:48:20Z
38,265.590803,0.284985,7.258616,44.937775,293.000803,181.013855,2.106421,3,-93.167077,16.051483,2025-02-19T21:48:22Z,-0.184019,-0.961968,-0.055767,2025-02-19T21:48:21Z,-0.140869,0.216568,-0.032106,2025-02-19T21:48:21Z
39,265.290675,0.268101,7.257925,44.937629,292.700675,180.398468,2.327885,3,-93.167077,16.22351,2025-02-19T21:48:23Z,-0.206908,-0.987159,-0.054281,2025-02-19T21:48:22Z,-0.321337,-0.029348,-0.091363,2025-02-19T21:48:22Z
40,265.150399,0.275747,7.257934,44.937484,292.560399,180.398468,2.288104,3,-93.167077,16.194415,2025-02-19T21:48:24Z,-0.203783,-0.971704,-0.042493,2025-02-19T21:48:23Z,-0.273459,0.114654,-0.016337,2025-02-19T21:48:23Z
41,264.856305,0.281715,7.257829,44.937338,292.266305,180.398468,2.834485,3,-93.167077,16.207098,2025-02-19T21:48:25Z,-0.206189,-0.977878,-0.041328,2025-02-19T21:48:24Z,-0.285439,0.054312,0.004098,2025-02-19T21:48:24Z
42,264.619037,0.284841,7.257808,44.937192,292.029037,180,2.738134,3,-93.167076,16.19284,2025-02-19T21:48:26Z,-0.218208,-0.979289,-0.052124,2025-02-19T21:48:25Z,-0.415945,0.033746,-0.027321,2025-02-19T21:48:25Z
43,264.48207,0.290437,7.258244,44.937047,291.89207,178.838974,2.313352,3,-93.167076,16.08353,2025-02-19T21:48:27Z,-0.234714,-0.96719,-0.057214,2025-02-19T21:48:26Z,-0.535805,0.150346,-0.096058,2025-02-19T21:48:26Z
44,264.238477,0.287824,7.25793,44.936905,291.648477,179.416718,2.133227,3,-93.167076,15.742108,2025-02-19T21:48:28Z,-0.23491,-0.967257,-0.05519,2025-02-19T21:48:27Z,-0.521548,0.14634,-0.071471,2025-02-19T21:48:27Z
45,264.183233,0.289501,7.258231,44.936767,291.593233,179.416718,2.101888,3,-93.167075,15.487937,2025-02-19T21:48:29Z,-0.218729,-0.978805,-0.05167,2025-02-19T21:48:28Z,-0.348921,0.027916,-0.027794,2025-02-19T21:48:28Z
46,264.048207,0.288316,7.258208,44.93663,291.458207,180.224655,2.141206,3,-93.167073,15.294806,2025-02-19T21:48:30Z,-0.212014,-0.97652,-0.049027,2025-02-19T21:48:29Z,-0.259178,0.049824,-0.008988,2025-02-19T21:48:29Z
47,263.944813,0.288585,7.258167,44.936489,291.354813,180,2.611222,3,-93.167073,15.350265,2025-02-19T21:48:31Z,-0.211594,-0.978067,-0.061337,2025-02-19T21:48:30Z,-0.240549,0.025883,-0.092191,2025-02-19T21:48:30Z
48,263.958094,0.291333,7.258315,44.936352,291.368094,180.705368,2.408886,3,-93.167073,15.098292,2025-02-19T21:48:32Z,-0.20437,-0.971147,-0.08006,2025-02-19T21:48:31Z,-0.143767,0.086355,-0.176046,2025-02-19T21:48:31Z
49,263.703986,0.291741,7.258336,44.936218,291.113986,180,2.197397,3,-93.167074,15.011735,2025-02-19T21:48:33Z,-0.219792,-0.970314,-0.064599,2025-02-19T21:48:32Z,-0.265331,0.088955,-0.065483,2025-02-19T21:48:32Z
50,263.329547,0.292905,7.258475,44.936085,290.739547,180,2.089535,3,-93.167078,14.744054,2025-02-19T21:48:34Z,-0.240311,-0.964917,-0.062453,2025-02-19T21:48:33Z,-0.464709,0.148008,-0.073948,2025-02-19T21:48:33Z
51,263.245242,0.292718,7.258784,44.935956,290.655242,180.326828,2.590281,3,-93.167079,14.371837,2025-02-19T21:48:35Z,-0.236896,-0.971165,-0.054016,2025-02-19T21:48:34Z,-0.37999,0.071863,0.017737,2025-02-19T21:48:34Z
52,263.054595,0.282798,7.258663,44.935829,290.464594,180.326828,2.274431,3,-93.167079,14.075674,2025-02-19T21:48:36Z,-0.214631,-0.979653,-0.057072,2025-02-19T21:48:35Z,-0.161837,-0.015283,0.042362,2025-02-19T21:48:35Z
53,262.939591,0.284896,7.258529,44.935704,290.34959,180.110123,2.129845,3,-93.167079,13.927175,2025-02-19T21:48:37Z,-0.20509,-0.970859,-0.051417,2025-02-19T21:48:36Z,-0.040048,0.068512,0.065586,2025-02-19T21:48:36Z
54,262.832225,0.290389,7.258508,44.935577,290.242225,180.110123,2.652988,3,-93.167077,13.933199,2025-02-19T21:48:38Z,-0.210891,-0.973794,-0.064319,2025-02-19T21:48:37Z,-0.090925,0.038396,-0.016923,2025-02-19T21:48:37Z
55,262.814235,0.293596,7.258547,44.935452,290.224235,180.110123,2.687624,3,-93.167075,13.895029,2025-02-19T21:48:39Z,-0.212995,-0.972946,-0.068328,2025-02-19T21:48:38Z,-0.094774,0.036007,-0.068565,2025-02-19T21:48:38Z
56,262.812029,0.294932,7.258592,44.935329,290.222029,180.110123,4.094203,3,-93.167074,13.707883,2025-02-19T21:48:40Z,-0.223542,-0.977888,-0.059549,2025-02-19T21:48:39Z,-0.171375,-0.005332,-0.012899,2025-02-19T21:48:39Z
57,262.782774,0.296393,7.258728,44.935209,290.192774,180,3.019935,3,-93.167075,13.38073,2025-02-19T21:48:41Z,-0.217609,-0.971942,-0.059999,2025-02-19T21:48:40Z,-0.120354,0.050181,-0.027026,2025-02-19T21:48:40Z
58,262.798032,0.299585,7.258895,44.935088,290.208032,180,2.495892,3,-93.167075,13.314552,2025-02-19T21:48:42Z,-0.294722,-0.956809,-0.076832,2025-02-19T21:48:41Z,-0.836994,0.183884,-0.131655,2025-02-19T21:48:41Z
59,262.791482,0.28462,7.258828,44.934975,290.201482,180,2.243075,3,-93.167076,12.426945,2025-02-19T21:48:43Z,-0.321683,-0.951019,-0.073894,2025-02-19T21:48:42Z,-1.049221,0.230697,-0.12149,2025-02-19T21:48:42Z
60,262.789339,0.269098,7.258809,44.934874,290.199338,180,2.244248,3,-93.167077,11.196087,2025-02-19T21:48:44Z,-0.328299,-0.943311,-0.063837,2025-02-19T21:48:43Z,-1.01909,0.284871,5.26e-4,2025-02-19T21:48:43Z
61,262.614633,0.276627,7.258727,44.934783,290.024633,180,2.296028,3,-93.167076,10.166168,2025-02-19T21:48:45Z,-0.322934,-0.963285,-0.030683,2025-02-19T21:48:44Z,-0.918084,0.076544,0.377348,2025-02-19T21:48:44Z
62,262.54107,0.289211,7.25885,44.934705,289.95107,180,2.169222,3,-93.167067,8.815564,2025-02-19T21:48:46Z,-0.292845,-0.962227,-0.035916,2025-02-19T21:48:45Z,-0.545098,0.071503,0.24568,2025-02-19T21:48:45Z
63,262.651474,0.303166,7.258962,44.934635,290.061474,180,2.193096,3,-93.167052,7.877088,2025-02-19T21:48:47Z,-0.285718,-0.955979,-0.079778,2025-02-19T21:48:46Z,-0.433636,0.121565,-0.15644,2025-02-19T21:48:46Z
64,262.604285,0.301145,7.258949,44.934572,290.014285,180,2.908558,3,-93.167065,7.042053,2025-02-19T21:48:48Z,-0.282048,-0.956951,-0.141114,2025-02-19T21:48:47Z,-0.414359,0.103115,-0.635097,2025-02-19T21:48:47Z
65,262.608335,0.312873,7.258962,44.934518,290.018335,180,2.768738,3,-93.167065,6.090158,2025-02-19T21:48:49Z,-0.289745,-0.954987,-0.128004,2025-02-19T21:48:48Z,-0.49966,0.125425,-0.458731,2025-02-19T21:48:48Z
66,262.6184,0.311319,7.258824,44.934474,290.0284,180,2.768738,3,-93.167065,5.070431,2025-02-19T21:48:50Z,-0.301162,-0.956361,-0.107493,2025-02-19T21:48:49Z,-0.578925,0.096939,-0.219371,2025-02-19T21:48:49Z
67,262.643243,0.378901,7.441215,44.934439,290.053243,180,2.602976,3,-93.167065,3.965257,2025-02-19T21:48:51Z,-0.305862,-0.952107,-0.102147,2025-02-19T21:48:50Z,-0.608795,0.137039,-0.144405,2025-02-19T21:48:50Z
68,262.525893,0.448277,10.535701,44.934415,289.935893,180,2.644089,3,-93.167042,2.789134,2025-02-19T21:48:52Z,-0.302897,-0.954819,-0.101083,2025-02-19T21:48:51Z,-0.503158,0.090141,-0.12363,2025-02-19T21:48:51Z
69,262.553659,0.409897,15.334546,44.934405,289.963659,180,2.728738,3,-93.167052,1.56424,2025-02-19T21:48:53Z,-0.297071,-0.954449,-0.100418,2025-02-19T21:48:52Z,-0.401978,0.078797,-0.089237,2025-02-19T21:48:52Z
70,262.68935,0.327592,57.582208,44.934401,290.09935,180,2.58299,3,-93.167052,0.431057,2025-02-19T21:48:54Z,-0.221682,-0.97032,-0.08667,2025-02-19T21:48:53Z,0.309049,-0.077072,0.064952,2025-02-19T21:48:53Z
71,262.889601,0.299525,136.491354,44.934398,290.299601,180,2.784172,3,-93.167051,0.180703,2025-02-19T21:48:55Z,-0.183166,-0.978314,-0.079506,2025-02-19T21:48:54Z,0.633289,-0.13376,0.119477,2025-02-19T21:48:54Z
