seconds_elapsed,location_altitude,location_speedAccuracy,location_bearingAccuracy,location_latitude,location_altitudeAboveMeanSeaLevel,location_bearing,location_horizontalAccuracy,location_verticalAccuracy,location_longitude,location_speed,location_local_time,accelerometerUncalibrated_z,accelerometerUncalibrated_y,accelerometerUncalibrated_x,accelerometerUncalibrated_local_time,accelerometer_z,accelerometer_y,accelerometer_x,accelerometer_local_time
0,253.182206,1.834064,14.18681,44.941342,280.592206,86.857887,2.72441,3,-93.174703,10.466892,2025-02-19T22:00:24Z,-0.23465,-0.964916,-0.12049,2025-02-19T22:00:23Z,-0.567949,0.175148,-0.445872,2025-02-19T22:00:23Z
1,253.260998,1.863571,15.382593,44.941338,280.670998,82.935677,2.746984,3,-93.17458,9.814745,2025-02-19T22:00:25Z,-0.204128,-0.959433,-0.12412,2025-02-19T22:00:24Z,-0.33131,0.202792,-0.363553,2025-02-19T22:00:24Z
2,253.4255,1.876501,16.267763,44.94133,280.8355,95.066447,2.432026,3,-93.174464,9.314915,2025-02-19T22:00:26Z,-0.230163,-0.968974,-0.059648,2025-02-19T22:00:25Z,-0.402631,0.11007,-0.039503,2025-02-19T22:00:25Z
3,253.420811,1.905021,17.069425,44.941321,280.830811,95.942789,2.427179,3,-93.174349,9.033937,2025-02-19T22:00:27Z,-0.233492,-0.970053,-0.080734,2025-02-19T22:00:26Z,-0.493432,0.104407,0.015464,2025-02-19T22:00:26Z
4,253.609614,1.930744,17.988057,44.941312,281.019614,96.33484,2.470545,3,-93.174242,8.619494,2025-02-19T22:00:28Z,-0.2002,-0.970864,-0.097704,2025-02-19T22:00:27Z,-0.120358,0.018334,0.224124,2025-02-19T22:00:27Z
5,253.789782,1.948203,18.627706,44.941305,281.199781,95.724492,2.31526,3,-93.174134,8.453547,2025-02-19T22:00:29Z,-0.202421,-0.969622,-0.101993,2025-02-19T22:00:28Z,-0.026526,0.025296,0.234649,2025-02-19T22:00:28Z
6,253.462825,1.946528,18.963374,44.941299,280.872825,94.871712,2.404027,3,-93.17403,8.281855,2025-02-19T22:00:30Z,-0.176109,-0.971527,-0.082684,2025-02-19T22:00:29Z,0.127483,0.039626,0.291009,2025-02-19T22:00:29Z
7,253.429593,1.961228,19.287846,44.941295,280.839593,93.900284,2.324836,3,-93.173927,8.230708,2025-02-19T22:00:31Z,-0.159288,-0.988008,-0.090394,2025-02-19T22:00:30Z,0.240678,-0.131745,0.334629,2025-02-19T22:00:30Z
8,253.556587,1.934257,18.828908,44.941295,280.966587,92.663669,2.216429,3,-93.173821,8.319728,2025-02-19T22:00:32Z,-0.156985,-0.975613,-0.128925,2025-02-19T22:00:31Z,0.28197,-0.026935,0.061974,2025-02-19T22:00:31Z
9,253.533739,1.94566,18.493721,44.941295,280.943739,91.903384,2.14135,3,-93.173708,8.523478,2025-02-19T22:00:33Z,-0.14231,-0.977028,-0.118457,2025-02-19T22:00:32Z,0.413133,-0.029312,0.150888,2025-02-19T22:00:32Z
10,253.371044,1.926903,17.642536,44.941299,280.781044,91.068062,2.479286,3,-93.173595,8.839843,2025-02-19T22:00:34Z,-0.154114,-0.986851,-0.121935,2025-02-19T22:00:33Z,0.306797,-0.089094,-0.212425,2025-02-19T22:00:33Z
11,253.412196,1.901281,16.874045,44.9413,280.822195,91.311474,2.309061,3,-93.173478,9.129799,2025-02-19T22:00:35Z,-0.172903,-0.972254,-0.092976,2025-02-19T22:00:34Z,0.155882,0.048416,-0.00326,2025-02-19T22:00:34Z
12,253.552284,1.885927,16.525887,44.941297,280.962284,92.596195,2.771112,3,-93.173356,9.237863,2025-02-19T22:00:36Z,-0.177068,-0.980428,-0.070978,2025-02-19T22:00:35Z,0.139021,-0.025683,0.142072,2025-02-19T22:00:35Z
13,253.57758,1.889558,16.264755,44.9413,280.987579,91.954948,2.489828,3,-93.173237,9.389587,2025-02-19T22:00:37Z,-0.169198,-0.979836,-0.085223,2025-02-19T22:00:36Z,0.177105,-0.009793,-0.002003,2025-02-19T22:00:36Z
14,253.840856,1.866165,15.647821,44.941305,281.250856,90.510112,2.332717,3,-93.173109,9.657359,2025-02-19T22:00:38Z,-0.189004,-0.980588,-0.063875,2025-02-19T22:00:37Z,0.00995,-2.58e-4,-0.077853,2025-02-19T22:00:37Z
15,253.998444,1.865657,15.407552,44.941306,281.408444,90.258426,2.203158,3,-93.172982,9.809413,2025-02-19T22:00:39Z,-0.195679,-0.968983,-0.07185,2025-02-19T22:00:38Z,-0.092895,0.114272,-0.049708,2025-02-19T22:00:38Z
16,254.278594,1.866657,15.443817,44.941305,281.688594,90.544214,2.219056,3,-93.172857,9.792802,2025-02-19T22:00:40Z,-0.191248,-0.974819,-0.080707,2025-02-19T22:00:39Z,-0.070677,0.036927,0.003533,2025-02-19T22:00:39Z
17,254.397279,1.870402,15.496504,44.941303,281.807279,90.629819,2.219056,3,-93.172732,9.770574,2025-02-19T22:00:41Z,-0.190863,-0.975217,-0.093077,2025-02-19T22:00:40Z,-0.032732,0.03284,-0.052492,2025-02-19T22:00:40Z
18,254.455455,1.866276,15.380946,44.941301,281.865455,90.83564,2.219056,3,-93.172604,9.827896,2025-02-19T22:00:42Z,-0.173583,-0.979294,-0.068493,2025-02-19T22:00:41Z,0.170534,-0.006612,0.05928,2025-02-19T22:00:41Z
19,254.782038,1.859474,15.124115,44.9413,282.192038,90.866694,2.490027,3,-93.172477,9.962046,2025-02-19T22:00:43Z,-0.163495,-0.978968,-0.076195,2025-02-19T22:00:42Z,0.212848,0.013519,-0.021189,2025-02-19T22:00:42Z
20,254.935098,1.861481,14.727328,44.941301,282.345098,90.525651,2.378946,3,-93.172347,10.187366,2025-02-19T22:00:44Z,-0.185261,-0.987283,-0.084901,2025-02-19T22:00:43Z,0.028643,-0.074324,-0.075474,2025-02-19T22:00:43Z
21,255.045493,1.847176,14.415002,44.941299,282.455493,90.64663,2.622632,3,-93.172216,10.340449,2025-02-19T22:00:45Z,-0.183936,-0.970145,-0.074372,2025-02-19T22:00:44Z,0.035859,0.086301,0.116207,2025-02-19T22:00:44Z
22,255.164418,1.842804,14.312646,44.941299,282.574418,90.428504,2.448435,3,-93.172084,10.402026,2025-02-19T22:00:46Z,-0.194007,-0.968925,-0.076362,2025-02-19T22:00:45Z,-0.124191,0.08765,-4.71e-4,2025-02-19T22:00:45Z
23,255.305647,1.851466,14.525469,44.941303,282.715647,89.713088,3.009718,3,-93.171955,10.269163,2025-02-19T22:00:47Z,-0.216825,-0.981118,-0.083408,2025-02-19T22:00:46Z,-0.300976,-0.011125,-0.035968,2025-02-19T22:00:46Z
24,255.366545,1.829488,14.483562,44.941303,282.776545,89.636833,2.618475,3,-93.171823,10.225326,2025-02-19T22:00:48Z,-0.189661,-0.967578,-0.098378,2025-02-19T22:00:47Z,-0.056131,0.112244,-0.059351,2025-02-19T22:00:47Z
25,255.692941,1.859899,14.734272,44.941304,283.102941,89.63006,2.348653,3,-93.171694,10.135274,2025-02-19T22:00:49Z,-0.191609,-0.978508,-0.102651,2025-02-19T22:00:48Z,-0.064177,-0.007525,-0.079358,2025-02-19T22:00:48Z
26,255.785135,1.844398,14.700427,44.941306,283.195135,89.67043,2.877998,3,-93.171566,10.127403,2025-02-19T22:00:50Z,-0.182655,-0.970327,-0.11338,2025-02-19T22:00:49Z,0.007011,0.075923,-0.121896,2025-02-19T22:00:49Z
27,255.877638,1.860341,14.845897,44.941307,283.287638,89.842049,2.655208,3,-93.171438,10.14058,2025-02-19T22:00:51Z,-0.200414,-0.982055,-0.086727,2025-02-19T22:00:50Z,-0.118163,-0.033456,-0.049733,2025-02-19T22:00:50Z
28,256.054916,1.867774,14.910529,44.941307,283.464916,90.139536,2.372262,3,-93.17131,10.103362,2025-02-19T22:00:52Z,-0.218612,-0.962721,-0.068287,2025-02-19T22:00:51Z,-0.264617,0.153728,0.001293,2025-02-19T22:00:51Z
29,256.318099,1.853784,15.110932,44.941305,283.728099,90.428054,2.355109,3,-93.171185,9.843534,2025-02-19T22:00:53Z,-0.246104,-0.968027,-0.093567,2025-02-19T22:00:52Z,-0.521053,0.105676,-0.142058,2025-02-19T22:00:52Z
30,256.381887,1.88672,15.935504,44.941305,283.791887,90.108418,2.438207,3,-93.171064,9.512158,2025-02-19T22:00:54Z,-0.286043,-0.950414,-0.078295,2025-02-19T22:00:53Z,-0.829322,0.268542,-0.153475,2025-02-19T22:00:53Z
31,256.425323,1.931275,17.811253,44.941305,283.835323,89.837846,2.656569,3,-93.170956,8.736755,2025-02-19T22:00:55Z,-0.314577,-0.95603,-0.079351,2025-02-19T22:00:54Z,-1.055884,0.183176,-0.146917,2025-02-19T22:00:54Z
32,256.417785,2.012019,20.787708,44.941308,283.827784,88.948045,2.6837,3,-93.170862,7.670968,2025-02-19T22:00:56Z,-0.350549,-0.943776,-0.107019,2025-02-19T22:00:55Z,-1.373592,0.312127,-0.319804,2025-02-19T22:00:55Z
33,256.456716,2.168486,25.673198,44.941307,283.866716,89.29077,2.822258,3,-93.170786,6.311346,2025-02-19T22:00:57Z,-0.351372,-0.94109,-0.110939,2025-02-19T22:00:56Z,-1.334036,0.312148,-0.299021,2025-02-19T22:00:56Z
34,256.558468,2.663726,33.207715,44.941306,283.968468,89.798021,2.609049,3,-93.170728,4.777109,2025-02-19T22:00:58Z,-0.360376,-0.944819,-0.111982,2025-02-19T22:00:57Z,-1.293285,0.244013,-0.22062,2025-02-19T22:00:57Z
35,256.55054,3.209256,46.368485,44.941306,283.96054,90.041209,2.792203,3,-93.17069,3.222499,2025-02-19T22:00:59Z,-0.312327,-0.943574,-0.118278,2025-02-19T22:00:58Z,-0.719979,0.216797,-0.197321,2025-02-19T22:00:58Z
36,256.5986,4.012023,59.362436,44.941305,284.0086,90.208816,2.899817,3,-93.170673,1.677196,2025-02-19T22:01:00Z,-0.200643,-0.974678,-0.089341,2025-02-19T22:00:59Z,0.415493,-0.09575,0.109461,2025-02-19T22:00:59Z
37,256.544276,3.760676,180,44.941306,283.954276,90.143806,2.882239,3,-93.170668,0.663753,2025-02-19T22:01:01Z,-0.113892,-0.991215,-0.078506,2025-02-19T22:01:00Z,1.246545,-0.257289,0.242266,2025-02-19T22:01:00Z
38,256.56709,3.746757,180,44.941308,283.97709,90.143815,2.771959,3,-93.170656,0.982411,2025-02-19T22:01:02Z,-0.053968,-1.007392,-0.061084,2025-02-19T22:01:01Z,1.803934,-0.407655,0.403505,2025-02-19T22:01:01Z
39,256.59,3.760377,156.7774,44.941309,284,90.143833,2.795086,3,-93.17063,1.920083,2025-02-19T22:01:03Z,-0.069711,-1.001942,-0.059606,2025-02-19T22:01:02Z,1.478555,-0.307288,0.374079,2025-02-19T22:01:02Z
40,256.454838,2.465359,59.714466,44.941309,283.864838,85.538714,2.731258,3,-93.17058,3.29397,2025-02-19T22:01:04Z,-0.091604,-0.999663,-0.078503,2025-02-19T22:01:03Z,1.283532,-0.289323,0.204198,2025-02-19T22:01:03Z
41,256.472842,2.310358,42.554632,44.94131,283.882842,86.938079,2.66478,3,-93.170518,4.394649,2025-02-19T22:01:05Z,-0.109804,-0.997862,-0.083899,2025-02-19T22:01:04Z,1.047488,-0.262127,0.141393,2025-02-19T22:01:04Z
42,256.555098,2.216663,33.335597,44.941308,283.965098,87.995857,2.609382,3,-93.170446,5.338178,2025-02-19T22:01:06Z,-0.160731,-0.960358,-0.064493,2025-02-19T22:01:05Z,0.545747,0.118241,0.10718,2025-02-19T22:01:05Z
43,256.548169,2.132282,28.566535,44.941307,283.958169,87.995857,2.621035,3,-93.170366,6.011832,2025-02-19T22:01:07Z,-0.169337,-1.009601,-0.060447,2025-02-19T22:01:06Z,0.422918,-0.336347,0.115507,2025-02-19T22:01:06Z
44,257.045918,2.139328,26.39658,44.941306,284.455918,89.654169,2.60441,3,-93.170283,6.355813,2025-02-19T22:01:08Z,-0.163112,-0.961708,-0.078189,2025-02-19T22:01:07Z,0.30788,0.162494,-0.053307,2025-02-19T22:01:07Z
45,257.133267,2.101195,25.426276,44.941304,284.543267,90.258709,2.883446,3,-93.1702,6.567242,2025-02-19T22:01:09Z,-0.208412,-0.971792,-0.065952,2025-02-19T22:01:08Z,-0.092369,0.06113,0.020855,2025-02-19T22:01:08Z
46,256.659333,2.070585,25.265535,44.941314,284.069332,87.403457,2.7877710000000002,3,-93.17012,6.619678,2025-02-19T22:01:10Z,-0.237573,-0.971236,-0.066213,2025-02-19T22:01:09Z,-0.399379,0.061668,-0.001318,2025-02-19T22:01:09Z
47,256.548062,2.090969,26.710967,44.941309,283.958062,88.968415,2.67168,3,-93.170037,6.33451,2025-02-19T22:01:11Z,-0.244759,-0.969897,-0.064329,2025-02-19T22:01:10Z,-0.430661,0.090491,-0.049129,2025-02-19T22:01:10Z
48,256.545299,2.132725,29.026107,44.94131,283.955299,89.014766,2.731699,3,-93.169962,5.951942,2025-02-19T22:01:12Z,-0.237368,-0.963814,-0.077,2025-02-19T22:01:11Z,-0.406581,0.134453,-0.125834,2025-02-19T22:01:11Z
49,256.53025,2.183336,31.974062,44.941308,283.94025,89.803426,2.674229,3,-93.169896,5.462883,2025-02-19T22:01:13Z,-0.238894,-0.961381,-0.078499,2025-02-19T22:01:12Z,-0.439458,0.165365,-0.037621,2025-02-19T22:01:12Z
50,256.449456,2.212064,34.945437,44.941304,283.859456,91.016355,2.642772,3,-93.16983,5.085054,2025-02-19T22:01:14Z,-0.298185,-0.952159,-0.104439,2025-02-19T22:01:13Z,-0.971045,0.222956,-0.165659,2025-02-19T22:01:13Z
51,256.355079,2.26459,42.178299,44.941301,283.765079,91.948985,2.603626,3,-93.169776,4.346125,2025-02-19T22:01:15Z,-0.333005,-0.952957,-0.11136,2025-02-19T22:01:14Z,-1.267612,0.235008,-0.290194,2025-02-19T22:01:14Z
52,256.579652,2.429854,61.216706,44.941305,283.989652,90.513377,2.557594,3,-93.169739,3.150985,2025-02-19T22:01:16Z,-0.324296,-0.946409,-0.094444,2025-02-19T22:01:15Z,-1.085719,0.27469,-0.222777,2025-02-19T22:01:15Z
53,256.536622,2.534378,119.247423,44.941304,283.946622,91.298371,2.511128,3,-93.169721,1.711289,2025-02-19T22:01:17Z,-0.232599,-0.968909,-0.072964,2025-02-19T22:01:16Z,-0.140873,0.041088,-0.031901,2025-02-19T22:01:16Z
54,256.644021,3.749634,180,44.941304,284.054021,91.870846,2.558041,3,-93.169716,0.611438,2025-02-19T22:01:18Z,-0.122337,-0.994118,-0.050628,2025-02-19T22:01:17Z,0.876799,-0.182598,0.141716,2025-02-19T22:01:17Z
55,256.691397,3.757859,180,44.941303,284.101397,91.870855,2.684668,3,-93.169703,0.781378,2025-02-19T22:01:19Z,-0.065618,-1.007799,-0.037336,2025-02-19T22:01:18Z,1.389649,-0.311624,0.291719,2025-02-19T22:01:18Z
56,256.647493,3.747659,154.017845,44.941306,284.057493,89.920229,2.718324,3,-93.169675,1.970469,2025-02-19T22:01:20Z,-0.063098,-1.005092,-0.036797,2025-02-19T22:01:19Z,1.255866,-0.26126,0.337879,2025-02-19T22:01:19Z
57,256.76149,2.49991,69.123692,44.941307,284.17149,87.122464,2.733613,3,-93.169631999999993,2.91485,2025-02-19T22:01:21Z,-0.130133,-0.985517,-0.040242,2025-02-19T22:01:20Z,0.727161,-0.088782,0.291655,2025-02-19T22:01:20Z
58,256.813796,2.348817,47.575932,44.941311,284.223795,86.386671,2.690459,3,-93.169577,3.993853,2025-02-19T22:01:22Z,-0.149243,-0.979817,-0.088326,2025-02-19T22:01:21Z,0.503323,-0.044445,-0.003139,2025-02-19T22:01:21Z
59,256.587455,2.273156,39.51037,44.941281,283.997455,93.634232,2.6521,3,-93.169521,4.600535,2025-02-19T22:01:23Z,-0.210414,-0.960754,-0.103875,2025-02-19T22:01:22Z,-0.095639,0.14184,-0.070804,2025-02-19T22:01:22Z
60,256.615068,2.260578,38.160083,44.941278,284.025068,93.634232,2.617779,3,-93.169461,4.735406,2025-02-19T22:01:24Z,-0.34275,-0.942751,-0.153566,2025-02-19T22:01:23Z,-1.296368,0.274792,-0.410199,2025-02-19T22:01:23Z
61,256.518004,2.421918,49.21922,44.941276,283.928004,93.634232,2.58689,3,-93.169414,3.770978,2025-02-19T22:01:25Z,-0.255332,-0.951624,-0.164575,2025-02-19T22:01:24Z,-0.605438,0.181051,-0.183616,2025-02-19T22:01:24Z
62,256.546139,2.488422,78.45239,44.941274,283.956139,93.634232,2.573827,3,-93.169385,2.568125,2025-02-19T22:01:26Z,-0.159847,-0.978479,-0.140703,2025-02-19T22:01:25Z,0.003271,0.001945,-0.046589,2025-02-19T22:01:25Z
63,256.592259,2.547718,94.46591,44.941282,284.002259,90.25396,4.534806,3,-93.169353,2.182727,2025-02-19T22:01:27Z,-0.142356,-0.981856,-0.12045,2025-02-19T22:01:26Z,0.42473,-0.082958,0.068972,2025-02-19T22:01:26Z
64,256.663303,2.584684,92.540306,44.941282,284.073303,90.25396,4.526712,3,-93.169325,2.196836,2025-02-19T22:01:28Z,-0.088703,-0.99235,-0.114671,2025-02-19T22:01:27Z,0.893489,-0.168907,0.128154,2025-02-19T22:01:27Z
65,256.707085,2.601286,70.71468,44.941281,284.117085,90.25396,4.532782,3,-93.169285,2.79755,2025-02-19T22:01:29Z,-0.074643,-0.993152,-0.10464,2025-02-19T22:01:28Z,0.969128,-0.157105,0.194836,2025-02-19T22:01:28Z
66,256.812026,2.482119,49.422412,44.941281,284.222026,90.25396,4.654225,3,-93.169234,3.804022,2025-02-19T22:01:30Z,-0.099326,-0.991249,-0.109521,2025-02-19T22:01:29Z,0.727339,-0.148363,0.129145,2025-02-19T22:01:29Z
67,256.982063,2.389365,39.265141,44.941281,284.392063,90.25396,4.844232,3,-93.169174,4.575693,2025-02-19T22:01:31Z,-0.140358,-0.981298,-0.116449,2025-02-19T22:01:30Z,0.256178,-0.018992,0.050635,2025-02-19T22:01:30Z
68,257.078604,2.321278,33.627932,44.941281,284.488603,90.25396,4.818297,3,-93.169104,5.171814,2025-02-19T22:01:32Z,-0.162631,-0.972143,-0.106169,2025-02-19T22:01:31Z,0.025992,0.064414,0.097358,2025-02-19T22:01:31Z
69,256.958309,2.204089,33.360214,44.941281,284.368309,90.25396,4.615699,3,-93.169037,5.275389,2025-02-19T22:01:33Z,-0.155597,-0.98786,-0.126184,2025-02-19T22:01:32Z,0.060431,-0.074554,-0.05745,2025-02-19T22:01:32Z
70,257.118385,2.230224,32.057302,44.94128,284.528385,90.25396,4.559426,3,-93.168965,5.458319,2025-02-19T22:01:34Z,-0.147212,-0.986243,-0.106524,2025-02-19T22:01:33Z,0.091498,-0.046874,0.049578,2025-02-19T22:01:33Z
71,256.96795,2.188239,30.226321,44.94128,284.37795,90.25396,2.432585,3,-93.168887,5.739533,2025-02-19T22:01:35Z,-0.131376,-0.989169,-0.105773,2025-02-19T22:01:34Z,0.265492,-0.08062,0.069194,2025-02-19T22:01:34Z
72,256.437995,2.131808,28.461298,44.941292,283.84799400000003,90.25396,2.427084,3,-93.168808,6.068865,2025-02-19T22:01:36Z,-0.133243,-0.978748,-0.110747,2025-02-19T22:01:35Z,0.208222,0.032758,0.007964,2025-02-19T22:01:35Z
73,256.352333,2.073484,25.799062,44.94129,283.762333,90.25396,2.478779,3,-93.168724,6.512169,2025-02-19T22:01:37Z,-0.150284,-0.983532,-0.084664,2025-02-19T22:01:36Z,0.070349,-0.012486,0.210231,2025-02-19T22:01:36Z
74,256.60602,2.035427,24.19266,44.941292,284.01602,90.25396,2.493512,3,-93.168637,6.817042,2025-02-19T22:01:38Z,-0.144558,-0.98146,-0.130811,2025-02-19T22:01:37Z,-0.018735,0.01627,-0.172952,2025-02-19T22:01:37Z
75,256.671984,2.050096,23.845482,44.941292,284.081984,90.25396,2.806003,3,-93.16855,6.932739,2025-02-19T22:01:39Z,-0.167474,-0.976009,-0.106477,2025-02-19T22:01:38Z,-0.223053,0.070062,-0.025835,2025-02-19T22:01:38Z
76,256.772407,2.030903,23.332401,44.941286,284.182407,90.25396,2.66057,3,-93.168458,7.019413,2025-02-19T22:01:40Z,-0.155613,-0.982168,-0.111997,2025-02-19T22:01:39Z,-0.122794,0.023219,-0.049882,2025-02-19T22:01:39Z
77,257.256884,2.079939,23.719276,44.941292,284.666884,90.25396,2.529481,3,-93.168371,6.922321,2025-02-19T22:01:41Z,-0.154139,-0.976202,-0.108309,2025-02-19T22:01:40Z,-0.124248,0.070077,-0.040004,2025-02-19T22:01:40Z
78,257.292482,2.072594,23.942719,44.941287,284.702482,89.704308,2.866284,3,-93.168283,6.876902,2025-02-19T22:01:42Z,-0.182504,-0.972169,-0.10749,2025-02-19T22:01:41Z,-0.365344,0.107509,-0.04087,2025-02-19T22:01:41Z
79,257.601968,2.05358,24.121931,44.94129,285.011968,89.704308,3.306644,3,-93.168195,6.786816,2025-02-19T22:01:43Z,-0.188979,-0.980263,-0.103115,2025-02-19T22:01:42Z,-0.410331,0.051542,-0.017821,2025-02-19T22:01:42Z
80,258.205476,2.113893,24.757051,44.941288,285.615476,89.704308,3.129508,3,-93.168107,6.658292,2025-02-19T22:01:44Z,-0.173155,-0.97596,-0.098441,2025-02-19T22:01:43Z,-0.153468,0.065268,-0.054708,2025-02-19T22:01:43Z
81,258.250223,2.095975,24.701107,44.941284,285.660222,89.704308,3.119564,3,-93.168018,6.710448,2025-02-19T22:01:45Z,-0.186349,-0.978637,-0.081508,2025-02-19T22:01:44Z,-0.303704,0.056673,0.032548,2025-02-19T22:01:44Z
82,258.448694,2.123283,25.826868,44.941286,285.858694,89.704308,3.168802,3,-93.167941,6.483667,2025-02-19T22:01:46Z,-0.127948,-0.990624,-0.089151,2025-02-19T22:01:45Z,0.205832,-0.047954,-0.078127,2025-02-19T22:01:45Z
83,258.627753,2.124082,25.449367,44.941287,286.037753,89.704308,3.870414,3,-93.167857,6.549639,2025-02-19T22:01:47Z,-0.12447,-0.986828,-0.076075,2025-02-19T22:01:46Z,0.28486,-0.036753,0.097054,2025-02-19T22:01:46Z
84,259.041665,2.105539,24.113171,44.941287,286.451665,89.704308,3.840516,3,-93.167771,6.819197,2025-02-19T22:01:48Z,-0.165779,-0.972006,-0.08446,2025-02-19T22:01:47Z,-0.09926,0.129112,-0.049714,2025-02-19T22:01:47Z
85,259.384331,2.054341,23.150957,44.941288,286.79433,89.704308,3.582748,3,-93.167681,7.043013,2025-02-19T22:01:49Z,-0.228402,-0.979067,-0.107141,2025-02-19T22:01:48Z,-0.695632,0.050426,-0.177363,2025-02-19T22:01:48Z
86,259.772181,2.144378,25.34541,44.941291,287.182181,89.704308,3.346215,3,-93.167601,6.492625,2025-02-19T22:01:50Z,-0.16151,-0.978242,-0.084432,2025-02-19T22:01:49Z,-0.061508,0.051945,0.059709,2025-02-19T22:01:49Z
87,260.07574,2.179453,27.100329,44.941295,287.48574,89.704308,3.32654,3,-93.167527,6.16198,2025-02-19T22:01:51Z,-0.202974,-0.972442,-0.100276,2025-02-19T22:01:50Z,-0.445609,0.111297,-0.144895,2025-02-19T22:01:50Z
88,260.493146,2.295437,27.11392,44.941288,287.903146,89.704308,3.137451,3,-93.167448,6.036114,2025-02-19T22:01:52Z,-0.222792,-0.965883,-0.094892,2025-02-19T22:01:51Z,-0.682103,0.188371,-0.176299,2025-02-19T22:01:51Z
89,260.917747,2.503721,29.360948,44.94129,288.327747,89.704308,2.989072,3,-93.167382,5.382282,2025-02-19T22:01:53Z,-0.199143,-0.970112,-0.136228,2025-02-19T22:01:52Z,-0.420459,0.14218,-0.537516,2025-02-19T22:01:52Z
90,261.433194,2.567393,34.948203,44.941293,288.843194,89.704308,3.100699,3,-93.167325,4.752808,2025-02-19T22:01:54Z,-0.193186,-0.970116,-0.089906,2025-02-19T22:01:53Z,-0.317091,0.123547,-0.010783,2025-02-19T22:01:53Z
