seconds_elapsed,location_altitude,location_speedAccuracy,location_bearingAccuracy,location_latitude,location_altitudeAboveMeanSeaLevel,location_bearing,location_horizontalAccuracy,location_verticalAccuracy,location_longitude,location_speed,location_local_time,accelerometerUncalibrated_z,accelerometerUncalibrated_y,accelerometerUncalibrated_x,accelerometerUncalibrated_local_time,accelerometer_z,accelerometer_y,accelerometer_x,accelerometer_local_time
0.000000,257.456818,-0.615000,0.413153,44.941436,284.866818,42.228516,168.625779,5.250000,-93.169073,0.915000,2025-04-03T22:16:47.799-05:00,-0.308761,-0.951940,0.110994,2025-04-03T22:16:47.790-05:00,-0.502503,0.112198,0.528059,2025-04-03T22:16:47.803-05:00
1.000000,256.349060,1.150000,11.219918,44.941330,283.759060,171.914062,14.000000,4.000000,-93.169676,6.660000,2025-04-03T22:16:48.999-05:00,-0.271514,-0.973214,0.045978,2025-04-03T22:16:48.784-05:00,-0.389884,-0.007393,-0.034668,2025-04-03T22:16:48.778-05:00
2.000000,255.482300,1.010000,14.353596,44.941336,282.892300,176.835938,3.823758,4.000000,-93.169617,6.640000,2025-04-03T22:16:49.999-05:00,-0.209989,-0.952961,-0.015656,2025-04-03T22:16:49.779-05:00,0.044418,0.220911,-0.436142,2025-04-03T22:16:49.783-05:00
3.000000,254.548950,0.630000,8.995915,44.941296,281.958950,177.187500,3.535534,3.000000,-93.169613,4.570000,2025-04-03T22:16:50.999-05:00,-0.237450,-0.981497,0.004176,2025-04-03T22:16:50.784-05:00,0.010656,-0.100204,-0.324375,2025-04-03T22:16:50.778-05:00
4.000000,252.772400,0.620000,7.794031,44.941249,280.182400,180.705307,3.535534,3.000000,-93.169608,4.570000,2025-04-03T22:16:51.999-05:00,-0.231905,-0.990735,0.013425,2025-04-03T22:16:51.779-05:00,-0.040881,-0.186062,-0.448413,2025-04-03T22:16:51.782-05:00
5.000000,252.748596,0.750000,9.051666,44.941204,280.158596,182.630737,3.535534,3.000000,-93.169606,5.370000,2025-04-03T22:16:52.999-05:00,-0.230631,-0.957009,0.022469,2025-04-03T22:16:52.783-05:00,-0.120498,0.161258,-0.449587,2025-04-03T22:16:52.777-05:00
6.000000,252.608765,0.270000,3.125172,44.941153,280.018764,182.630737,3.535534,3.000000,-93.169605,5.620000,2025-04-03T22:16:53.999-05:00,-0.194753,-0.975813,0.031864,2025-04-03T22:16:53.778-05:00,0.278490,-0.064255,-0.310370,2025-04-03T22:16:53.782-05:00
7.000000,252.558838,0.200000,2.223512,44.941100,279.968838,179.642822,3.535534,3.000000,-93.169599,5.620000,2025-04-03T22:16:54.999-05:00,-0.193604,-0.985148,0.028902,2025-04-03T22:16:54.783-05:00,0.243072,-0.081357,-0.382478,2025-04-03T22:16:54.776-05:00
8.000000,252.459778,1.270000,13.492662,44.941046,279.869778,179.642822,3.535534,3.000000,-93.169599,6.010000,2025-04-03T22:16:55.999-05:00,-0.207225,-0.979944,0.024802,2025-04-03T22:16:55.777-05:00,0.103478,-0.040218,-0.389828,2025-04-03T22:16:55.781-05:00
9.000000,252.604126,0.470000,4.417158,44.940983,280.014126,179.642822,3.535534,3.000000,-93.169596,6.990000,2025-04-03T22:16:56.999-05:00,-0.217050,-0.968310,0.032448,2025-04-03T22:16:56.782-05:00,0.049841,0.032168,-0.284194,2025-04-03T22:16:56.776-05:00
10.000000,252.638855,0.040000,0.430784,44.940921,280.048855,179.642822,3.535534,3.000000,-93.169592,7.230000,2025-04-03T22:16:57.999-05:00,-0.215218,-0.975575,0.021280,2025-04-03T22:16:57.777-05:00,0.090986,-0.043226,-0.302621,2025-04-03T22:16:57.780-05:00
11.000000,252.688293,0.330000,2.861635,44.940858,280.098293,179.642822,3.535534,3.000000,-93.169592,7.230000,2025-04-03T22:16:58.999-05:00,-0.221240,-0.988076,0.010607,2025-04-03T22:16:58.781-05:00,-0.041431,-0.113959,-0.351954,2025-04-03T22:16:58.775-05:00
12.000000,252.645752,0.290000,2.447897,44.940791,280.055752,180.187592,3.535534,3.000000,-93.169591,7.460000,2025-04-03T22:16:59.999-05:00,-0.259864,-0.943302,0.010780,2025-04-03T22:16:59.776-05:00,-0.444454,0.313158,-0.382601,2025-04-03T22:16:59.780-05:00
13.000000,252.645756,0.308016,7.258975,44.940724,280.055756,180.187592,4.748652,4.029364,-93.169591,7.460000,2025-04-03T22:17:00.999-05:00,-0.272182,-0.959385,0.014002,2025-04-03T22:17:00.781-05:00,-0.414821,0.129618,-0.300301,2025-04-03T22:17:00.775-05:00
14.000000,252.890629,0.308016,7.258975,44.940658,280.300629,180.187592,4.748652,4.029364,-93.169593,7.460000,2025-04-03T22:17:01.999-05:00,-0.270763,-0.968368,0.022181,2025-04-03T22:17:01.775-05:00,-0.418765,0.046498,-0.223898,2025-04-03T22:17:01.779-05:00
15.000000,253.116520,0.308016,7.258975,44.940595,280.526520,180.187592,4.748652,4.029364,-93.169590,7.100000,2025-04-03T22:17:02.999-05:00,-0.246080,-0.967366,0.021947,2025-04-03T22:17:02.780-05:00,-0.224693,0.054502,-0.242762,2025-04-03T22:17:02.784-05:00
16.000000,253.181034,0.308016,7.258975,44.940531,280.591034,180.187592,4.748652,4.029364,-93.169591,7.100000,2025-04-03T22:17:03.999-05:00,-0.269832,-0.959241,-0.001118,2025-04-03T22:17:03.775-05:00,-0.402090,0.130944,-0.398827,2025-04-03T22:17:03.779-05:00
17.000000,253.361576,0.308016,7.258975,44.940468,280.771576,180.485291,4.748652,4.029364,-93.169593,7.070000,2025-04-03T22:17:04.999-05:00,-0.273944,-0.956722,0.005369,2025-04-03T22:17:04.780-05:00,-0.427853,0.121966,-0.323854,2025-04-03T22:17:04.783-05:00
18.000000,253.368351,0.550000,7.258975,44.940409,280.778351,180.485291,4.748652,4.029364,-93.169603,7.010000,2025-04-03T22:17:05.999-05:00,-0.300598,-0.956421,-0.006854,2025-04-03T22:17:05.784-05:00,-0.700289,0.197575,-0.358994,2025-04-03T22:17:05.778-05:00
19.000000,253.636661,1.390000,17.301009,44.940354,281.046661,180.485291,4.748652,4.029364,-93.169596,6.510000,2025-04-03T22:17:06.999-05:00,-0.353564,-0.931267,-0.007852,2025-04-03T22:17:06.779-05:00,-1.109815,0.390995,-0.456707,2025-04-03T22:17:06.783-05:00
20.000000,253.669254,1.600000,19.914831,44.940299,281.079254,180.485291,4.748652,4.029364,-93.169602,6.510000,2025-04-03T22:17:07.999-05:00,-0.394137,-0.932118,-0.017590,2025-04-03T22:17:07.784-05:00,-1.440535,0.343592,-0.498087,2025-04-03T22:17:07.777-05:00
21.000000,253.453860,0.910000,12.413452,44.940256,280.863860,180.485291,4.748652,4.029364,-93.169603,5.940000,2025-04-03T22:17:08.999-05:00,-0.410679,-0.924050,-0.028742,2025-04-03T22:17:08.778-05:00,-1.563700,0.427060,-0.522213,2025-04-03T22:17:08.782-05:00
22.000000,253.637209,0.310000,7.394890,44.940230,281.047209,180.485291,4.748652,4.029364,-93.169600,5.440000,2025-04-03T22:17:09.999-05:00,-0.354661,-0.938310,-0.025739,2025-04-03T22:17:09.783-05:00,-1.040240,0.296230,-0.423985,2025-04-03T22:17:09.777-05:00
23.000000,253.591675,0.308016,20.127453,44.940247,281.001675,180.485291,4.748652,4.029364,-93.169600,1.240000,2025-04-03T22:17:10.999-05:00,-0.238999,-0.970170,0.004469,2025-04-03T22:17:10.778-05:00,0.108677,-0.016952,-0.090343,2025-04-03T22:17:10.781-05:00
24.000000,253.697998,0.910000,59.464442,44.940238,281.107998,180.485291,4.748652,4.029364,-93.169605,1.240000,2025-04-03T22:17:11.999-05:00,-0.139951,-0.992535,0.024648,2025-04-03T22:17:11.782-05:00,1.039869,-0.231746,0.143991,2025-04-03T22:17:11.776-05:00
25.000000,254.019165,1.020000,93.919360,44.940237,281.429165,180.485291,4.748652,4.029364,-93.169604,0.880000,2025-04-03T22:17:12.999-05:00,-0.082397,-1.012722,0.035305,2025-04-03T22:17:12.777-05:00,1.582080,-0.412286,0.267298,2025-04-03T22:17:12.781-05:00
26.000000,254.770874,1.420000,130.750480,44.940224,282.180874,180.485291,4.748652,4.029364,-93.169604,0.880000,2025-04-03T22:17:13.999-05:00,-0.111086,-0.997793,0.035003,2025-04-03T22:17:13.782-05:00,1.238128,-0.270632,0.239587,2025-04-03T22:17:13.776-05:00
27.000000,254.699524,1.650000,85.703190,44.940213,282.109524,180.485291,4.748652,4.029364,-93.169577,1.560000,2025-04-03T22:17:14.999-05:00,-0.131787,-0.999292,0.028664,2025-04-03T22:17:14.776-05:00,0.917820,-0.223634,0.167748,2025-04-03T22:17:14.780-05:00
28.000000,254.923952,0.780000,11.857824,44.940131,282.333952,180.485291,4.748652,4.029364,-93.169617,5.330000,2025-04-03T22:17:15.999-05:00,-0.151846,-0.972179,0.024993,2025-04-03T22:17:15.781-05:00,0.959336,-0.060354,0.216352,2025-04-03T22:17:15.775-05:00
29.000000,254.966921,0.310000,7.258975,44.940094,282.376921,180.485291,4.748652,4.029364,-93.169601,5.330000,2025-04-03T22:17:16.999-05:00,-0.166993,-0.978157,0.019276,2025-04-03T22:17:16.776-05:00,0.994706,-0.145425,0.212177,2025-04-03T22:17:16.780-05:00
30.000000,254.762026,0.308016,7.258975,44.940045,282.172026,180.485291,4.748652,4.029364,-93.169604,5.330000,2025-04-03T22:17:17.999-05:00,-0.201333,-1.011892,0.025190,2025-04-03T22:17:17.781-05:00,0.559506,-0.454215,0.262851,2025-04-03T22:17:17.784-05:00
31.000000,254.604007,0.308016,7.258975,44.939978,282.014007,180.742203,4.748652,4.029364,-93.169604,6.040000,2025-04-03T22:17:18.999-05:00,-0.165711,-0.974637,0.011038,2025-04-03T22:17:18.775-05:00,0.562384,0.002484,0.061874,2025-04-03T22:17:18.779-05:00
32.000000,254.842961,0.308016,7.258975,44.939901,282.252960,180.742203,4.748652,4.029364,-93.169602,7.100000,2025-04-03T22:17:19.999-05:00,-0.179231,-0.985922,0.011808,2025-04-03T22:17:19.780-05:00,0.428900,-0.110072,0.081949,2025-04-03T22:17:19.784-05:00
33.000000,257.336464,1.264061,12.804170,44.939818,284.746464,180.000000,2.000000,3.000000,-93.169600,7.997365,2025-04-03T22:17:20.999-05:00,-0.193684,-0.976929,-0.008176,2025-04-03T22:17:20.775-05:00,0.225518,-0.008764,-0.047110,2025-04-03T22:17:20.778-05:00
34.000000,257.344258,1.268415,12.058678,44.939737,284.754258,180.000000,2.000000,3.000000,-93.169600,8.522660,2025-04-03T22:17:21.999-05:00,-0.209834,-0.976190,-0.019868,2025-04-03T22:17:21.779-05:00,0.097142,-0.015953,-0.101467,2025-04-03T22:17:21.783-05:00
35.000000,257.384592,1.272625,11.432028,44.939651,284.794591,180.000000,2.000000,3.000000,-93.169592,9.019923,2025-04-03T22:17:22.999-05:00,-0.228287,-0.968390,-0.024373,2025-04-03T22:17:22.784-05:00,-0.210194,0.108613,-0.169379,2025-04-03T22:17:22.778-05:00
36.000000,257.801441,1.361094,15.475485,44.939596,285.211441,180.000000,2.537706,3.000000,-93.169584,7.121152,2025-04-03T22:17:23.999-05:00,-0.224496,-0.976761,-0.021678,2025-04-03T22:17:23.779-05:00,-0.126700,0.004728,-0.115613,2025-04-03T22:17:23.782-05:00
37.000000,257.625023,0.824821,7.258717,44.939463,285.035023,180.000000,2.865891,3.000000,-93.169600,9.749049,2025-04-03T22:17:24.999-05:00,-0.220523,-0.977260,-0.033392,2025-04-03T22:17:24.783-05:00,-0.135575,0.008896,-0.145883,2025-04-03T22:17:24.777-05:00
38.000000,258.533597,0.924012,7.753310,44.939380,285.943597,179.512619,2.931304,3.000000,-93.169601,9.607350,2025-04-03T22:17:25.999-05:00,-0.233199,-0.962272,-0.010657,2025-04-03T22:17:25.778-05:00,-0.266879,0.173927,-0.089116,2025-04-03T22:17:25.782-05:00
39.000000,258.590848,0.669707,7.256781,44.939292,286.000848,179.512619,2.711041,3.000000,-93.169590,9.611315,2025-04-03T22:17:26.999-05:00,-0.243167,-0.972699,-0.026312,2025-04-03T22:17:26.783-05:00,-0.263358,0.024445,-0.073012,2025-04-03T22:17:26.777-05:00
40.000000,258.642765,0.675226,7.258921,44.939204,286.052765,179.512619,2.719301,3.000000,-93.169585,9.663073,2025-04-03T22:17:27.999-05:00,-0.260678,-0.951334,-0.040233,2025-04-03T22:17:27.777-05:00,-0.460858,0.249906,-0.196101,2025-04-03T22:17:27.781-05:00
41.000000,258.996989,0.667332,7.257687,44.939120,286.406989,179.512619,2.493516,3.000000,-93.169582,9.363966,2025-04-03T22:17:28.999-05:00,-0.265356,-0.960860,-0.034480,2025-04-03T22:17:28.782-05:00,-0.470190,0.144452,-0.165159,2025-04-03T22:17:28.776-05:00
42.000000,260.072193,0.805528,7.233832,44.939028,287.482193,180.000000,2.350730,3.000000,-93.169586,9.736533,2025-04-03T22:17:29.999-05:00,-0.264609,-0.963171,-0.020346,2025-04-03T22:17:29.777-05:00,-0.326131,0.112068,-0.071363,2025-04-03T22:17:29.781-05:00
43.000000,259.699660,0.700368,7.255412,44.938962,287.109660,180.000000,2.440620,3.000000,-93.169593,8.576289,2025-04-03T22:17:30.999-05:00,-0.253632,-0.963671,-0.009435,2025-04-03T22:17:30.782-05:00,-0.266945,0.082240,-0.157397,2025-04-03T22:17:30.775-05:00
44.000000,259.832254,0.703444,7.252994,44.938877,287.242254,180.236633,2.282812,3.000000,-93.169587,8.961185,2025-04-03T22:17:31.999-05:00,-0.250673,-0.961579,-0.014178,2025-04-03T22:17:31.776-05:00,-0.265060,0.116738,-0.177810,2025-04-03T22:17:31.780-05:00
45.000000,259.540077,0.674528,7.258418,44.938799,286.950077,180.236633,2.184648,3.000000,-93.169585,8.861557,2025-04-03T22:17:32.999-05:00,-0.261617,-0.966568,-0.021935,2025-04-03T22:17:32.781-05:00,-0.281873,0.065632,-0.097239,2025-04-03T22:17:32.775-05:00
46.000000,259.626319,0.664893,7.255578,44.938725,287.036319,180.236633,2.202725,3.000000,-93.169585,8.566922,2025-04-03T22:17:33.999-05:00,-0.273145,-0.961368,-0.015024,2025-04-03T22:17:33.776-05:00,-0.370286,0.102356,-0.124973,2025-04-03T22:17:33.779-05:00
47.000000,259.550026,0.661784,7.257314,44.938651,286.960025,180.236633,2.134463,3.000000,-93.169590,8.310108,2025-04-03T22:17:34.999-05:00,-0.286806,-0.955245,-0.025042,2025-04-03T22:17:34.780-05:00,-0.497974,0.163373,-0.215476,2025-04-03T22:17:34.784-05:00
48.000000,259.771582,0.672005,7.253860,44.938577,287.181581,180.236633,2.282979,3.000000,-93.169590,8.189053,2025-04-03T22:17:35.999-05:00,-0.294985,-0.942185,-0.033779,2025-04-03T22:17:35.775-05:00,-0.525217,0.275555,-0.309558,2025-04-03T22:17:35.779-05:00
49.000000,259.809268,0.675379,7.256834,44.938510,287.219268,180.236633,2.327102,3.000000,-93.169591,7.626284,2025-04-03T22:17:36.999-05:00,-0.335109,-0.953420,-0.083273,2025-04-03T22:17:36.780-05:00,-0.834799,0.144573,-0.843778,2025-04-03T22:17:36.783-05:00
50.000000,259.437464,0.668973,7.894963,44.938452,286.847463,180.236633,2.230529,3.000000,-93.169595,6.862955,2025-04-03T22:17:37.999-05:00,-0.281185,-0.968121,-0.146317,2025-04-03T22:17:37.784-05:00,-0.359408,0.017493,-1.455831,2025-04-03T22:17:37.778-05:00
51.000000,259.449350,0.682314,9.085635,44.938401,286.859350,180.545914,2.168298,3.000000,-93.169616,6.087045,2025-04-03T22:17:38.999-05:00,-0.239067,-0.963833,-0.200572,2025-04-03T22:17:38.779-05:00,-0.095292,0.086847,-1.903827,2025-04-03T22:17:38.783-05:00
52.000000,259.673897,0.681673,9.498588,44.938357,287.083897,180.545914,2.134437,3.000000,-93.169624,5.816456,2025-04-03T22:17:39.999-05:00,-0.241074,-0.980591,-0.156891,2025-04-03T22:17:39.784-05:00,-0.178474,-0.050132,-1.596257,2025-04-03T22:17:39.778-05:00
53.000000,259.464429,0.661803,10.840315,44.938334,286.874429,228.051824,2.112031,3.000000,-93.169633,4.946652,2025-04-03T22:17:40.999-05:00,-0.201285,-0.949447,-0.117549,2025-04-03T22:17:40.778-05:00,0.279810,0.253524,-1.171868,2025-04-03T22:17:40.782-05:00
54.000000,259.557402,0.663016,11.169356,44.938325,286.967402,266.065918,2.096026,3.000000,-93.169776,4.809090,2025-04-03T22:17:41.999-05:00,-0.215993,-0.985154,-0.027899,2025-04-03T22:17:41.783-05:00,0.219527,-0.156396,-0.178264,2025-04-03T22:17:41.777-05:00
55.000000,259.366458,0.659275,9.965501,44.938323,286.776458,269.100037,2.084023,3.000000,-93.169851,5.358643,2025-04-03T22:17:42.999-05:00,-0.226535,-0.979672,-0.005434,2025-04-03T22:17:42.778-05:00,0.048802,-0.076512,0.159239,2025-04-03T22:17:42.782-05:00
56.000000,259.396691,0.708197,10.308279,44.938312,286.806691,269.100037,2.074687,3.000000,-93.169921,5.563508,2025-04-03T22:17:43.999-05:00,-0.229087,-0.979619,0.006151,2025-04-03T22:17:43.783-05:00,-0.164150,-0.020379,0.364942,2025-04-03T22:17:43.776-05:00
57.000000,258.975100,0.847865,10.799023,44.938306,286.385100,269.740295,2.126131,3.000000,-93.170009,6.341005,2025-04-03T22:17:44.999-05:00,-0.244066,-0.964646,0.022850,2025-04-03T22:17:44.777-05:00,-0.336428,0.127382,0.436046,2025-04-03T22:17:44.781-05:00
58.000000,259.301487,0.658631,8.346130,44.938324,286.711487,269.740295,2.112438,3.000000,-93.170088,6.388270,2025-04-03T22:17:45.999-05:00,-0.251102,-0.966304,0.032304,2025-04-03T22:17:45.782-05:00,-0.386580,0.104881,0.438753,2025-04-03T22:17:45.776-05:00
59.000000,258.886256,0.652333,8.047858,44.938327,286.296256,269.740295,2.110347,3.000000,-93.170173,6.554408,2025-04-03T22:17:46.999-05:00,-0.271727,-0.960690,0.021638,2025-04-03T22:17:46.777-05:00,-0.590470,0.175231,0.343927,2025-04-03T22:17:46.780-05:00
60.000000,258.725248,0.653020,8.084471,44.938328,286.135248,269.740295,2.104622,3.000000,-93.170257,6.537100,2025-04-03T22:17:47.999-05:00,-0.308595,-0.945309,0.013561,2025-04-03T22:17:47.781-05:00,-0.867379,0.283525,0.218862,2025-04-03T22:17:47.775-05:00
61.000000,258.420788,0.654897,8.234855,44.938330,285.830788,269.740295,2.088068,3.000000,-93.170339,6.417348,2025-04-03T22:17:48.999-05:00,-0.380197,-0.933445,0.009197,2025-04-03T22:17:48.776-05:00,-1.491295,0.392767,0.206964,2025-04-03T22:17:48.780-05:00
62.000000,258.326084,0.656261,9.691416,44.938332,285.736084,269.740295,2.074827,3.000000,-93.170404,5.475219,2025-04-03T22:17:49.999-05:00,-0.304084,-0.959446,0.082308,2025-04-03T22:17:49.781-05:00,-0.766700,0.144403,0.914984,2025-04-03T22:17:49.784-05:00
63.000000,258.306759,0.665667,11.291733,44.938331,285.716759,269.740295,2.071558,3.000000,-93.170462,4.776941,2025-04-03T22:17:50.999-05:00,-0.303995,-0.945596,0.142166,2025-04-03T22:17:50.775-05:00,-0.821432,0.289517,1.580730,2025-04-03T22:17:50.779-05:00
64.000000,258.271096,0.661540,11.606871,44.938320,285.681096,269.740295,2.063607,3.000000,-93.170519,4.618440,2025-04-03T22:17:51.999-05:00,-0.305487,-0.954630,0.164953,2025-04-03T22:17:51.780-05:00,-0.624750,0.151428,1.841827,2025-04-03T22:17:51.784-05:00
65.000000,258.159999,0.658831,11.954985,44.938316,285.569999,239.595260,2.057246,3.000000,-93.170566,4.460392,2025-04-03T22:17:52.999-05:00,-0.287512,-0.952197,0.152192,2025-04-03T22:17:52.775-05:00,-0.387041,0.158484,1.754768,2025-04-03T22:17:52.779-05:00
66.000000,258.261926,0.651708,11.600989,44.938310,285.671925,221.784953,2.052042,3.000000,-93.170602,4.551552,2025-04-03T22:17:53.999-05:00,-0.254532,-0.955657,0.098353,2025-04-03T22:17:53.779-05:00,0.034589,0.097739,1.296634,2025-04-03T22:17:53.783-05:00
67.000000,258.141445,0.679843,11.533444,44.938217,285.551445,188.736603,2.047705,3.000000,-93.170623,4.769705,2025-04-03T22:17:54.999-05:00,-0.241572,-0.974734,0.032198,2025-04-03T22:17:54.784-05:00,0.203481,-0.104246,0.690100,2025-04-03T22:17:54.778-05:00
68.000000,257.619002,0.680033,11.082768,44.938171,285.029002,188.736603,2.044035,3.000000,-93.170631,4.917741,2025-04-03T22:17:55.999-05:00,-0.226805,-0.982397,0.017665,2025-04-03T22:17:55.779-05:00,0.207556,-0.143703,0.413705,2025-04-03T22:17:55.783-05:00
69.000000,258.066267,0.658756,10.054234,44.938121,285.476267,185.132431,2.040890,3.000000,-93.170634,5.308502,2025-04-03T22:17:56.999-05:00,-0.238916,-0.972067,-0.004636,2025-04-03T22:17:56.784-05:00,-0.076107,0.013169,0.099902,2025-04-03T22:17:56.777-05:00
70.000000,258.019834,0.656400,9.171717,44.938067,285.429834,181.092865,2.038164,3.000000,-93.170639,5.798481,2025-04-03T22:17:57.999-05:00,-0.276248,-0.959466,-0.035853,2025-04-03T22:17:57.778-05:00,-0.494054,0.141848,-0.297861,2025-04-03T22:17:57.782-05:00
71.000000,258.366910,0.651369,9.405120,44.938017,285.776910,181.092865,2.035779,3.000000,-93.170640,5.605489,2025-04-03T22:17:58.999-05:00,-0.363001,-0.934455,-0.055760,2025-04-03T22:17:58.783-05:00,-1.292252,0.378915,-0.572365,2025-04-03T22:17:58.777-05:00
72.000000,258.322625,0.651665,11.067052,44.937976,285.732624,181.295094,2.033674,3.000000,-93.170640,4.771055,2025-04-03T22:17:59.999-05:00,-0.396101,-0.926755,-0.054819,2025-04-03T22:17:59.778-05:00,-1.542429,0.434051,-0.630684,2025-04-03T22:17:59.781-05:00
73.000000,258.435023,0.657694,15.817456,44.937950,285.845023,179.694369,2.031803,3.000000,-93.170637,3.368896,2025-04-03T22:18:00.999-05:00,-0.302677,-0.952010,-0.033121,2025-04-03T22:18:00.782-05:00,-0.585167,0.177283,-0.409798,2025-04-03T22:18:00.776-05:00
74.000000,258.494066,0.662234,25.813273,44.937937,285.904066,180.502691,2.030130,3.000000,-93.170637,2.078347,2025-04-03T22:18:01.999-05:00,-0.247160,-0.958783,-0.021327,2025-04-03T22:18:01.777-05:00,-0.118972,0.124478,-0.270566,2025-04-03T22:18:01.781-05:00
75.000000,258.718052,0.689964,31.361080,44.937925,286.128051,179.457460,2.028623,3.000000,-93.170635,1.653798,2025-04-03T22:18:02.999-05:00,-0.177811,-0.988410,-0.011512,2025-04-03T22:18:02.782-05:00,0.654246,-0.180725,-0.076240,2025-04-03T22:18:02.775-05:00
76.000000,258.940930,0.699429,27.846489,44.937908,286.350930,179.302451,2.027192,3.000000,-93.170634,1.828129,2025-04-03T22:18:03.999-05:00,-0.152892,-0.993229,-0.015589,2025-04-03T22:18:03.776-05:00,1.034750,-0.280453,0.031228,2025-04-03T22:18:03.780-05:00
77.000000,258.433918,0.724621,18.577232,44.937883,285.843918,179.195199,2.025832,3.000000,-93.170633,2.597862,2025-04-03T22:18:04.999-05:00,-0.166478,-0.985085,-0.030006,2025-04-03T22:18:04.781-05:00,0.822453,-0.158972,-0.059847,2025-04-03T22:18:04.775-05:00
78.000000,258.818526,0.647195,14.906677,44.937847,286.228526,178.992842,2.024541,3.000000,-93.170631,3.514740,2025-04-03T22:18:05.999-05:00,-0.181688,-0.984814,-0.018667,2025-04-03T22:18:05.776-05:00,0.703761,-0.173209,-0.007269,2025-04-03T22:18:05.780-05:00
79.000000,259.067897,0.648317,12.273229,44.937805,286.477897,179.343363,2.025953,3.000000,-93.170629,4.269064,2025-04-03T22:18:06.999-05:00,-0.174735,-0.988371,-0.023941,2025-04-03T22:18:06.780-05:00,0.703567,-0.192143,-0.025837,2025-04-03T22:18:06.784-05:00
80.000000,259.370613,0.679335,10.984210,44.937757,286.780613,179.410639,2.076714,3.000000,-93.170629,4.975477,2025-04-03T22:18:07.999-05:00,-0.190548,-0.989454,-0.039622,2025-04-03T22:18:07.775-05:00,0.422808,-0.171252,-0.113000,2025-04-03T22:18:07.779-05:00
81.000000,259.837218,0.816961,11.839446,44.937704,287.247218,180.674574,2.074100,3.000000,-93.170632,5.511668,2025-04-03T22:18:08.999-05:00,-0.197487,-0.998579,-0.026318,2025-04-03T22:18:08.780-05:00,0.058785,-0.192743,-0.126383,2025-04-03T22:18:08.784-05:00
82.000000,259.128104,0.865223,10.659054,44.937637,286.538104,177.039665,2.073034,3.000000,-93.170620,6.575108,2025-04-03T22:18:09.999-05:00,-0.242865,-0.969838,-0.021046,2025-04-03T22:18:09.775-05:00,-0.501642,0.112644,-0.227305,2025-04-03T22:18:09.778-05:00
83.000000,259.997119,0.663256,9.090108,44.937593,287.407119,179.747298,2.067817,3.000000,-93.170626,5.844746,2025-04-03T22:18:10.999-05:00,-0.250722,-0.960832,-0.001842,2025-04-03T22:18:10.779-05:00,-0.541378,0.192159,-0.176120,2025-04-03T22:18:10.783-05:00
84.000000,260.364793,0.659841,10.352754,44.937549,287.774793,176.200579,2.063296,3.000000,-93.170620,5.116075,2025-04-03T22:18:11.999-05:00,-0.223995,-0.972797,0.015658,2025-04-03T22:18:11.784-05:00,-0.226580,0.067875,-0.021501,2025-04-03T22:18:11.778-05:00
85.000000,260.721955,0.798539,12.851620,44.937504,288.131955,172.595386,2.098269,3.000000,-93.170609,4.924201,2025-04-03T22:18:12.999-05:00,-0.217714,-0.967606,0.007238,2025-04-03T22:18:12.779-05:00,-0.118684,0.094504,0.053567,2025-04-03T22:18:12.782-05:00
86.000000,261.561457,0.851680,13.062910,44.937457,288.971456,165.540897,2.105132,3.000000,-93.170584,5.136201,2025-04-03T22:18:13.999-05:00,-0.218232,-0.974233,-0.028118,2025-04-03T22:18:13.783-05:00,-0.188971,0.069521,-0.203256,2025-04-03T22:18:13.777-05:00
87.000000,260.588717,0.660140,11.162735,44.937414,287.998717,176.018603,2.099291,3.000000,-93.170599,4.737513,2025-04-03T22:18:14.999-05:00,-0.262551,-0.953326,-0.054094,2025-04-03T22:18:14.778-05:00,-0.525427,0.236024,-0.325006,2025-04-03T22:18:14.782-05:00
88.000000,260.764396,0.651305,11.272699,44.937369,288.174396,176.626683,2.129169,3.000000,-93.170594,4.660605,2025-04-03T22:18:15.999-05:00,-0.328507,-0.943694,-0.072306,2025-04-03T22:18:15.783-05:00,-1.049580,0.310644,-0.469819,2025-04-03T22:18:15.776-05:00
89.000000,261.037457,0.650575,13.516088,44.937337,288.447457,173.041769,2.122710,3.000000,-93.170586,3.871775,2025-04-03T22:18:16.999-05:00,-0.358151,-0.928419,-0.075795,2025-04-03T22:18:16.777-05:00,-0.912792,0.343643,-0.394362,2025-04-03T22:18:16.781-05:00
90.000000,260.702739,0.655870,20.232315,44.937318,288.112739,174.791286,2.116575,3.000000,-93.170586,2.605434,2025-04-03T22:18:17.999-05:00,-0.274451,-0.961499,-0.053728,2025-04-03T22:18:17.782-05:00,-0.146590,0.031203,-0.110063,2025-04-03T22:18:17.776-05:00
91.000000,260.928082,0.663344,27.356100,44.937303,288.338082,175.609360,2.110746,3.000000,-93.170587,1.949893,2025-04-03T22:18:18.999-05:00,-0.222251,-0.966894,-0.064006,2025-04-03T22:18:18.777-05:00,0.331350,-0.009626,-0.155372,2025-04-03T22:18:18.781-05:00
92.000000,261.006193,0.654185,26.468173,44.937285,288.416192,175.609360,2.105209,3.000000,-93.170585,1.999841,2025-04-03T22:18:19.999-05:00,-0.218916,-0.977847,-0.043238,2025-04-03T22:18:19.781-05:00,0.470463,-0.153298,0.030223,2025-04-03T22:18:19.775-05:00
93.000000,260.884727,0.673035,24.423322,44.937265,288.294727,175.609360,2.120467,3.000000,-93.170585,2.126150,2025-04-03T22:18:20.999-05:00,-0.191070,-0.976704,-0.038346,2025-04-03T22:18:20.776-05:00,0.676651,-0.111105,-0.011861,2025-04-03T22:18:20.780-05:00
94.000000,261.160539,0.652087,19.150670,44.937237,288.570539,178.623428,2.114443,3.000000,-93.170584,2.758176,2025-04-03T22:18:21.999-05:00,-0.196932,-0.980047,-0.031144,2025-04-03T22:18:21.781-05:00,0.582692,-0.145646,0.094922,2025-04-03T22:18:21.775-05:00
95.000000,261.429984,0.653083,16.069034,44.937204,288.839984,178.623428,2.148480,3.000000,-93.170585,3.276116,2025-04-03T22:18:22.999-05:00,-0.202372,-0.974926,-0.040321,2025-04-03T22:18:22.776-05:00,0.546467,-0.096529,0.050723,2025-04-03T22:18:22.779-05:00
96.000000,262.557758,0.738865,12.714998,44.937166,289.967758,180.311356,2.141056,3.000000,-93.170587,3.822545,2025-04-03T22:18:23.999-05:00,-0.194495,-0.980720,-0.031870,2025-04-03T22:18:23.780-05:00,0.602419,-0.146555,0.078858,2025-04-03T22:18:23.784-05:00
97.000000,262.949876,0.861629,16.132752,44.937136,290.359876,180.311356,2.189487,3.000000,-93.170588,3.527009,2025-04-03T22:18:24.999-05:00,-0.197494,-0.979666,-0.021601,2025-04-03T22:18:24.775-05:00,0.574680,-0.134491,0.132186,2025-04-03T22:18:24.779-05:00
98.000000,262.011331,0.724220,11.876027,44.937079,289.421330,180.311356,2.328626,3.000000,-93.170588,4.929413,2025-04-03T22:18:25.999-05:00,-0.202268,-0.977011,-0.021504,2025-04-03T22:18:25.780-05:00,0.524416,-0.104142,0.104930,2025-04-03T22:18:25.783-05:00
99.000000,261.610882,0.657422,9.308873,44.937024,289.020882,180.311356,2.318135,3.000000,-93.170593,5.682305,2025-04-03T22:18:26.999-05:00,-0.255965,-0.962158,-0.037526,2025-04-03T22:18:26.784-05:00,0.001138,0.035168,0.009348,2025-04-03T22:18:26.778-05:00
100.000000,261.733413,0.649761,8.846470,44.936968,289.143413,181.198441,2.302228,3.000000,-93.170591,5.943988,2025-04-03T22:18:27.999-05:00,-0.334011,-0.942229,-0.057418,2025-04-03T22:18:27.779-05:00,-0.724746,0.228599,-0.181623,2025-04-03T22:18:27.783-05:00
101.000000,261.559005,0.649825,9.204957,44.936918,288.969004,181.198441,2.287117,3.000000,-93.170594,5.716964,2025-04-03T22:18:28.999-05:00,-0.400094,-0.929459,-0.073461,2025-04-03T22:18:28.784-05:00,-1.321205,0.325201,-0.344287,2025-04-03T22:18:28.777-05:00
102.000000,261.316520,0.655941,11.361583,44.936878,288.726520,181.198441,2.272761,3.000000,-93.170595,4.663083,2025-04-03T22:18:29.999-05:00,-0.404117,-0.922904,-0.070643,2025-04-03T22:18:29.778-05:00,-1.380647,0.400767,-0.340766,2025-04-03T22:18:29.782-05:00
103.000000,260.920010,0.666870,16.367709,44.936854,288.330010,181.198441,2.289650,3.000000,-93.170599,3.229984,2025-04-03T22:18:30.999-05:00,-0.308952,-0.951261,-0.046793,2025-04-03T22:18:30.783-05:00,-0.417581,0.118770,-0.122358,2025-04-03T22:18:30.777-05:00
104.000000,261.194296,0.662947,26.479883,44.936841,288.604296,178.077042,2.275168,3.000000,-93.170597,2.021810,2025-04-03T22:18:31.999-05:00,-0.219850,-0.948895,-0.035717,2025-04-03T22:18:31.778-05:00,0.349775,0.181317,0.047122,2025-04-03T22:18:31.782-05:00
105.000000,261.329631,0.707769,28.140268,44.936826,288.739631,178.077042,2.261409,3.000000,-93.170596,1.790690,2025-04-03T22:18:32.999-05:00,-0.265958,-0.982951,-0.035800,2025-04-03T22:18:32.782-05:00,0.133032,-0.245387,0.083336,2025-04-03T22:18:32.776-05:00
106.000000,261.162023,0.655693,24.721208,44.936806,288.572023,173.430054,2.264005,3.000000,-93.170594,2.122145,2025-04-03T22:18:33.999-05:00,-0.197099,-0.983739,-0.003678,2025-04-03T22:18:33.777-05:00,0.734488,-0.222792,0.338028,2025-04-03T22:18:33.781-05:00
107.000000,260.944204,0.649578,21.359108,44.936784,288.354204,173.430054,2.250805,3.000000,-93.170589,2.449206,2025-04-03T22:18:34.999-05:00,-0.188475,-0.980116,-0.001308,2025-04-03T22:18:34.782-05:00,0.762149,-0.161618,0.326554,2025-04-03T22:18:34.776-05:00
108.000000,261.192373,0.759348,16.419660,44.936744,288.602373,170.975220,2.238265,3.000000,-93.170593,3.736112,2025-04-03T22:18:35.999-05:00,-0.200093,-0.981533,0.005005,2025-04-03T22:18:35.777-05:00,0.649848,-0.178993,0.376507,2025-04-03T22:18:35.780-05:00
109.000000,261.199017,0.653220,14.147777,44.936716,288.609017,166.816116,2.226352,3.000000,-93.170568,3.736086,2025-04-03T22:18:36.999-05:00,-0.202456,-0.981959,0.018617,2025-04-03T22:18:36.781-05:00,0.570900,-0.165555,0.494514,2025-04-03T22:18:36.775-05:00
110.000000,261.299625,0.648459,11.841376,44.936675,288.709625,160.418625,2.215034,3.000000,-93.170545,4.437213,2025-04-03T22:18:37.999-05:00,-0.220294,-0.973413,0.036513,2025-04-03T22:18:37.776-05:00,0.360069,-0.071143,0.603441,2025-04-03T22:18:37.780-05:00
111.000000,261.523049,0.666303,10.231871,44.936626,288.933049,156.162262,2.270188,3.000000,-93.170518,5.280663,2025-04-03T22:18:38.999-05:00,-0.246208,-0.972811,0.046760,2025-04-03T22:18:38.781-05:00,0.073975,-0.056893,0.613444,2025-04-03T22:18:38.784-05:00
112.000000,261.419870,0.806221,12.263807,44.936587,288.829870,150.734070,2.501069,3.000000,-93.170482,5.328910,2025-04-03T22:18:39.999-05:00,-0.271083,-0.959522,0.029827,2025-04-03T22:18:39.775-05:00,-0.168140,0.075462,0.365157,2025-04-03T22:18:39.779-05:00
113.000000,261.822682,0.839012,11.254603,44.936548,289.232682,145.532654,2.476243,3.000000,-93.170409,6.036707,2025-04-03T22:18:40.999-05:00,-0.273081,-0.955033,-0.111641,2025-04-03T22:18:40.780-05:00,-0.224652,0.127756,-0.936842,2025-04-03T22:18:40.784-05:00
114.000000,261.200033,0.682411,10.087401,44.936513,288.610032,138.235809,2.452568,3.000000,-93.170375,5.481073,2025-04-03T22:18:41.999-05:00,-0.302068,-0.956479,-0.138776,2025-04-03T22:18:41.775-05:00,-0.459418,0.099361,-1.119041,2025-04-03T22:18:41.778-05:00
115.000000,261.010612,0.663376,10.596869,44.936473,288.420612,150.117981,2.429940,3.000000,-93.170345,5.071453,2025-04-03T22:18:42.999-05:00,-0.315191,-0.937096,-0.148639,2025-04-03T22:18:42.779-05:00,-0.622455,0.296243,-1.167445,2025-04-03T22:18:42.783-05:00
116.000000,260.809306,0.659663,12.282511,44.936438,288.219305,159.606827,2.408443,3.000000,-93.170333,4.343642,2025-04-03T22:18:43.999-05:00,-0.380527,-0.935896,-0.119062,2025-04-03T22:18:43.784-05:00,-1.130593,0.271365,-0.819975,2025-04-03T22:18:43.778-05:00
117.000000,260.726110,0.663979,16.411596,44.936411,288.136110,168.693451,2.388020,3.000000,-93.170328,3.265337,2025-04-03T22:18:44.999-05:00,-0.303717,-0.949201,-0.048201,2025-04-03T22:18:44.779-05:00,-0.519095,0.181699,-0.184040,2025-04-03T22:18:44.783-05:00
118.000000,260.626845,0.679843,27.507368,44.936399,288.036845,175.374146,2.408327,3.000000,-93.170329,1.946168,2025-04-03T22:18:45.999-05:00,-0.219137,-0.960814,-0.038970,2025-04-03T22:18:45.783-05:00,0.146767,0.101608,-0.058814,2025-04-03T22:18:45.777-05:00
119.000000,261.048973,0.682357,32.767650,44.936385,288.458973,175.374146,2.387911,3.000000,-93.170330,1.589445,2025-04-03T22:18:46.999-05:00,-0.174189,-0.995347,-0.002621,2025-04-03T22:18:46.778-05:00,0.823759,-0.302943,0.272677,2025-04-03T22:18:46.782-05:00
120.000000,260.992679,0.666051,23.522092,44.936364,288.402678,178.325607,2.368515,3.000000,-93.170329,2.207202,2025-04-03T22:18:47.999-05:00,-0.136079,-0.997392,-0.005463,2025-04-03T22:18:47.783-05:00,1.159644,-0.291461,0.297551,2025-04-03T22:18:47.777-05:00
121.000000,260.901442,0.656887,17.757859,44.936336,288.311442,178.325607,2.350090,3.000000,-93.170330,2.981883,2025-04-03T22:18:48.999-05:00,-0.162513,-0.987884,-0.016670,2025-04-03T22:18:48.778-05:00,0.840863,-0.196971,0.237067,2025-04-03T22:18:48.781-05:00
122.000000,260.441906,0.678974,13.587491,44.936296,287.851906,178.775620,2.340400,3.000000,-93.170331,3.977956,2025-04-03T22:18:49.999-05:00,-0.164425,-0.990269,-0.023061,2025-04-03T22:18:49.782-05:00,0.767333,-0.209128,0.226001,2025-04-03T22:18:49.776-05:00
123.000000,260.297982,0.652771,11.077041,44.936251,287.707982,178.775620,2.330713,3.000000,-93.170330,4.708646,2025-04-03T22:18:50.999-05:00,-0.161241,-0.986737,-0.016713,2025-04-03T22:18:50.777-05:00,0.792224,-0.163892,0.258481,2025-04-03T22:18:50.781-05:00
124.000000,260.250559,0.642627,9.537114,44.936199,287.660559,180.075195,2.328407,3.000000,-93.170332,5.441384,2025-04-03T22:18:51.999-05:00,-0.203979,-0.975549,-0.022301,2025-04-03T22:18:51.782-05:00,0.433774,-0.080237,0.183849,2025-04-03T22:18:51.775-05:00
125.000000,260.434383,0.644122,8.383721,44.936140,287.844383,180.075211,2.311986,3.000000,-93.170331,6.224028,2025-04-03T22:18:52.999-05:00,-0.215101,-0.971937,-0.029188,2025-04-03T22:18:52.776-05:00,0.229074,0.010328,0.136003,2025-04-03T22:18:52.780-05:00
126.000000,259.845674,0.654319,8.072274,44.936081,287.255674,180.075211,2.289653,3.000000,-93.170329,6.486780,2025-04-03T22:18:53.999-05:00,-0.214741,-0.981271,-0.020041,2025-04-03T22:18:53.781-05:00,0.254912,-0.139915,0.177222,2025-04-03T22:18:53.775-05:00
127.000000,259.974617,0.648504,7.488939,44.936015,287.384617,180.075211,2.257032,3.000000,-93.170329,7.009865,2025-04-03T22:18:54.999-05:00,-0.206704,-0.977801,-0.019109,2025-04-03T22:18:54.776-05:00,0.223959,-0.050632,0.147147,2025-04-03T22:18:54.779-05:00
128.000000,260.120914,0.650453,7.258919,44.935948,287.530914,180.075211,2.214333,3.000000,-93.170329,7.328199,2025-04-03T22:18:55.999-05:00,-0.214187,-0.969465,-0.027316,2025-04-03T22:18:55.780-05:00,0.134894,0.037439,0.084898,2025-04-03T22:18:55.784-05:00
129.000000,260.340657,0.780310,8.383033,44.935879,287.750657,180.075211,2.167844,3.000000,-93.170323,7.542628,2025-04-03T22:18:56.999-05:00,-0.236191,-0.964022,-0.028899,2025-04-03T22:18:56.775-05:00,0.002138,0.067535,0.038668,2025-04-03T22:18:56.779-05:00
130.000000,260.357588,0.676221,7.258682,44.935808,287.767587,180.075211,2.126331,3.000000,-93.170330,7.720549,2025-04-03T22:18:57.999-05:00,-0.240605,-0.982488,-0.040056,2025-04-03T22:18:57.780-05:00,-0.091531,-0.099531,-0.031586,2025-04-03T22:18:57.784-05:00
131.000000,260.389361,0.659166,7.258630,44.935731,287.799361,180.075211,2.089807,3.000000,-93.170325,8.181769,2025-04-03T22:18:58.999-05:00,-0.229493,-0.967839,-0.029908,2025-04-03T22:18:58.775-05:00,-0.071298,0.064295,-0.007421,2025-04-03T22:18:58.778-05:00
132.000000,260.330088,0.657067,7.258496,44.935659,287.740087,180.075211,2.060786,3.000000,-93.170323,8.112320,2025-04-03T22:18:59.999-05:00,-0.232361,-0.966782,-0.033457,2025-04-03T22:18:59.779-05:00,-0.080988,0.073018,-0.039947,2025-04-03T22:18:59.783-05:00
133.000000,260.561777,0.649956,7.257786,44.935584,287.971777,180.075211,2.040815,3.000000,-93.170323,8.191470,2025-04-03T22:19:00.999-05:00,-0.232292,-0.970309,-0.034384,2025-04-03T22:19:00.784-05:00,-0.061822,0.032172,-0.036016,2025-04-03T22:19:00.778-05:00
134.000000,260.517584,0.648798,7.258677,44.935510,287.927584,180.631454,2.027457,3.000000,-93.170323,8.290468,2025-04-03T22:19:01.999-05:00,-0.241830,-0.963062,-0.027491,2025-04-03T22:19:01.779-05:00,-0.132817,0.097775,-0.010026,2025-04-03T22:19:01.782-05:00
135.000000,260.671707,0.648843,7.258450,44.935434,288.081707,180.631454,2.018264,3.000000,-93.170325,8.366375,2025-04-03T22:19:02.999-05:00,-0.244393,-0.968770,-0.019371,2025-04-03T22:19:02.783-05:00,-0.076907,0.027972,0.026128,2025-04-03T22:19:02.777-05:00
136.000000,260.595072,0.646861,7.258974,44.935358,288.005072,180.631454,2.041282,3.000000,-93.170325,8.442001,2025-04-03T22:19:03.999-05:00,-0.258223,-0.960570,-0.011922,2025-04-03T22:19:03.778-05:00,-0.188427,0.107298,0.046886,2025-04-03T22:19:03.782-05:00
137.000000,260.428433,0.650672,7.256661,44.935282,287.838433,180.631454,2.027350,3.000000,-93.170328,8.474117,2025-04-03T22:19:04.999-05:00,-0.265895,-0.966906,-0.023053,2025-04-03T22:19:04.783-05:00,-0.293185,0.040288,-0.031537,2025-04-03T22:19:04.776-05:00
138.000000,260.739821,0.654721,7.258964,44.935204,288.149821,180.631454,2.017906,3.000000,-93.170323,8.492751,2025-04-03T22:19:05.999-05:00,-0.272820,-0.961586,-0.043492,2025-04-03T22:19:05.777-05:00,-0.404557,0.122102,-0.150780,2025-04-03T22:19:05.781-05:00
139.000000,260.971282,0.657691,7.256025,44.935130,288.381282,180.631454,2.011893,3.000000,-93.170321,8.243656,2025-04-03T22:19:06.999-05:00,-0.291625,-0.954603,-0.050797,2025-04-03T22:19:06.782-05:00,-0.557799,0.149829,-0.174732,2025-04-03T22:19:06.776-05:00
140.000000,260.911494,0.650075,7.258753,44.935063,288.321494,180.631454,2.047169,3.000000,-93.170325,7.739961,2025-04-03T22:19:07.999-05:00,-0.410477,-0.925915,-0.075712,2025-04-03T22:19:07.777-05:00,-1.702907,0.449747,-0.426291,2025-04-03T22:19:07.781-05:00
141.000000,260.729286,0.662605,7.541427,44.934999,288.139286,180.631454,2.087456,3.000000,-93.170325,7.118990,2025-04-03T22:19:08.999-05:00,-0.451964,-0.908989,-0.086550,2025-04-03T22:19:08.781-05:00,-2.019263,0.576433,-0.507753,2025-04-03T22:19:08.775-05:00
142.000000,260.500913,0.678283,10.517027,44.934960,287.910913,180.631454,2.284701,3.000000,-93.170324,5.219188,2025-04-03T22:19:09.999-05:00,-0.380133,-0.931459,-0.065939,2025-04-03T22:19:09.776-05:00,-1.233915,0.342548,-0.297472,2025-04-03T22:19:09.780-05:00
143.000000,260.469785,0.663585,15.796358,44.934939,287.879785,180.631454,2.227761,3.000000,-93.170326,3.387885,2025-04-03T22:19:10.999-05:00,-0.264323,-0.959475,-0.038188,2025-04-03T22:19:10.781-05:00,-0.043635,0.052915,-0.048943,2025-04-03T22:19:10.775-05:00
144.000000,260.939324,0.706570,20.768743,44.934922,288.349324,179.753693,2.224827,3.000000,-93.170324,2.475056,2025-04-03T22:19:11.999-05:00,-0.235691,-0.978531,-0.019232,2025-04-03T22:19:11.776-05:00,0.394168,-0.174697,0.128461,2025-04-03T22:19:11.779-05:00
145.000000,260.573395,0.688406,25.647422,44.934906,287.983394,179.753693,2.192709,3.000000,-93.170323,2.143342,2025-04-03T22:19:12.999-05:00,-0.204866,-0.966602,-0.022996,2025-04-03T22:19:12.780-05:00,0.836724,-0.102155,0.147355,2025-04-03T22:19:12.784-05:00
146.000000,261.640546,0.887508,18.280160,44.934884,289.050545,179.753693,2.410496,3.000000,-93.170327,2.348285,2025-04-03T22:19:13.999-05:00,-0.199658,-0.979077,-0.019979,2025-04-03T22:19:13.775-05:00,0.859040,-0.216904,0.190441,2025-04-03T22:19:13.779-05:00
147.000000,262.540555,0.934897,13.672648,44.934857,289.950555,179.753693,2.499384,3.000000,-93.170329,2.873571,2025-04-03T22:19:14.999-05:00,-0.192129,-0.980114,-0.022264,2025-04-03T22:19:14.780-05:00,0.890895,-0.221950,0.235775,2025-04-03T22:19:14.783-05:00
148.000000,261.330815,0.652225,13.352844,44.934815,288.740815,179.753693,2.450000,3.000000,-93.170332,3.948154,2025-04-03T22:19:15.999-05:00,-0.190614,-0.980750,-0.021136,2025-04-03T22:19:15.784-05:00,0.872417,-0.208540,0.272154,2025-04-03T22:19:15.778-05:00
149.000000,260.987983,0.648680,11.275627,44.934772,288.397983,179.753693,2.470211,3.000000,-93.170336,4.640002,2025-04-03T22:19:16.999-05:00,-0.196013,-0.980436,-0.015390,2025-04-03T22:19:16.779-05:00,0.842191,-0.218572,0.287392,2025-04-03T22:19:16.783-05:00
150.000000,260.912286,0.651275,9.842557,44.934721,288.322286,179.753693,2.467215,3.000000,-93.170341,5.316446,2025-04-03T22:19:17.999-05:00,-0.209363,-0.980794,-0.014044,2025-04-03T22:19:17.784-05:00,0.662139,-0.200971,0.276727,2025-04-03T22:19:17.777-05:00
151.000000,260.740079,0.655954,9.042621,44.934666,288.150079,179.753693,2.431276,3.000000,-93.170342,5.858676,2025-04-03T22:19:18.999-05:00,-0.266547,-0.958363,-0.025936,2025-04-03T22:19:18.778-05:00,0.117237,0.012505,0.150476,2025-04-03T22:19:18.782-05:00
152.000000,260.388897,0.660989,8.586582,44.934608,287.798897,179.753693,2.418686,3.000000,-93.170343,6.214447,2025-04-03T22:19:19.999-05:00,-0.286537,-0.960493,-0.029869,2025-04-03T22:19:19.783-05:00,-0.114199,0.003049,0.031564,2025-04-03T22:19:19.777-05:00
153.000000,260.419302,0.652724,8.552698,44.934552,287.829302,179.753693,2.383474,3.000000,-93.170343,6.182395,2025-04-03T22:19:20.999-05:00,-0.332838,-0.941375,-0.038203,2025-04-03T22:19:20.778-05:00,-0.562173,0.190457,-0.072240,2025-04-03T22:19:20.782-05:00
154.000000,260.360118,0.649029,9.139539,44.934502,287.770118,179.753693,2.352558,3.000000,-93.170343,5.753068,2025-04-03T22:19:21.999-05:00,-0.367499,-0.937042,-0.063163,2025-04-03T22:19:21.782-05:00,-0.907262,0.233384,-0.288787,2025-04-03T22:19:21.776-05:00
155.000000,260.235605,0.657347,10.885676,44.934460,287.645605,179.753693,2.327652,3.000000,-93.170341,4.868137,2025-04-03T22:19:22.999-05:00,-0.359302,-0.936440,-0.063467,2025-04-03T22:19:22.777-05:00,-0.795606,0.231778,-0.263227,2025-04-03T22:19:22.781-05:00
156.000000,260.276269,0.657217,13.666095,44.934428,287.686269,179.753693,2.304249,3.000000,-93.170342,3.896494,2025-04-03T22:19:23.999-05:00,-0.339061,-0.946860,-0.065154,2025-04-03T22:19:23.782-05:00,-0.613631,0.129311,-0.241013,2025-04-03T22:19:23.776-05:00
157.000000,,,,,,,,,,,,-0.331339,-0.914638,-0.038294,2025-04-03T22:19:24.777-05:00,-0.487636,0.439668,-0.144095,2025-04-03T22:19:24.780-05:00
