seconds_elapsed,location_altitude,location_speedAccuracy,location_bearingAccuracy,location_latitude,location_altitudeAboveMeanSeaLevel,location_bearing,location_horizontalAccuracy,location_verticalAccuracy,location_longitude,location_speed,location_local_time,accelerometerUncalibrated_z,accelerometerUncalibrated_y,accelerometerUncalibrated_x,accelerometerUncalibrated_local_time,accelerometer_z,accelerometer_y,accelerometer_x,accelerometer_local_time
0.000000,253.946406,0.656538,11.558931,44.934292,281.356406,100.708867,2.785761,3.000000,-93.177075,4.604718,2025-04-03T22:13:04.999-05:00,-0.227535,-0.962756,0.029337,2025-04-03T22:13:04.634-05:00,0.368573,-0.007908,-0.370693,2025-04-03T22:13:04.638-05:00
1.000000,254.263252,0.837633,13.689964,44.934289,281.673252,96.946908,2.828063,3.000000,-93.177011,4.943496,2025-04-03T22:13:05.999-05:00,-0.207153,-0.987194,0.027190,2025-04-03T22:13:05.619-05:00,0.482308,-0.224860,-0.358149,2025-04-03T22:13:05.623-05:00
2.000000,255.046453,0.954573,14.234510,44.934282,282.456453,97.438884,2.863735,3.000000,-93.176941,5.356390,2025-04-03T22:13:06.999-05:00,-0.190337,-0.981587,0.022558,2025-04-03T22:13:06.624-05:00,0.544529,-0.142682,-0.417165,2025-04-03T22:13:06.617-05:00
3.000000,254.345877,0.663810,9.176027,44.934291,281.755877,90.358215,2.839982,3.000000,-93.176865,5.860321,2025-04-03T22:13:07.999-05:00,-0.151168,-0.990732,0.025944,2025-04-03T22:13:07.618-05:00,0.921160,-0.232914,-0.389106,2025-04-03T22:13:07.622-05:00
4.000000,254.178890,0.654690,7.854789,44.934292,281.588890,90.358215,2.753642,3.000000,-93.176774,6.733922,2025-04-03T22:13:08.999-05:00,-0.157098,-0.991126,0.014032,2025-04-03T22:13:08.623-05:00,0.799725,-0.211267,-0.472509,2025-04-03T22:13:08.617-05:00
5.000000,254.842612,0.656737,7.246877,44.934292,282.252612,90.358215,2.633355,3.000000,-93.176671,7.702981,2025-04-03T22:13:09.999-05:00,-0.177472,-0.988403,0.012193,2025-04-03T22:13:09.618-05:00,0.560959,-0.171229,-0.477733,2025-04-03T22:13:09.621-05:00
6.000000,254.554134,0.640727,7.258964,44.934291,281.964134,90.358215,2.476292,3.000000,-93.176557,8.573901,2025-04-03T22:13:10.999-05:00,-0.205776,-0.973967,0.006459,2025-04-03T22:13:10.622-05:00,0.261333,-0.039162,-0.533768,2025-04-03T22:13:10.616-05:00
7.000000,254.735476,0.635110,7.258071,44.934275,282.145476,90.358215,2.360646,3.000000,-93.176438,9.102104,2025-04-03T22:13:11.999-05:00,-0.202544,-0.984433,-0.001547,2025-04-03T22:13:11.617-05:00,0.234081,-0.118094,-0.563880,2025-04-03T22:13:11.621-05:00
8.000000,254.915097,0.643506,7.257315,44.934286,282.325097,90.358215,2.339184,3.000000,-93.176316,9.512305,2025-04-03T22:13:12.999-05:00,-0.198817,-0.975375,-0.006005,2025-04-03T22:13:12.622-05:00,0.232547,-0.023906,-0.603047,2025-04-03T22:13:12.616-05:00
9.000000,255.361566,0.644841,7.252621,44.934286,282.771566,90.358215,2.209662,3.000000,-93.176189,9.855293,2025-04-03T22:13:13.999-05:00,-0.203483,-0.977214,-0.006893,2025-04-03T22:13:13.617-05:00,0.140017,-0.022423,-0.567742,2025-04-03T22:13:13.620-05:00
10.000000,255.262284,0.646787,7.257973,44.934283,282.672284,90.358215,2.126365,3.000000,-93.176051,10.510139,2025-04-03T22:13:14.999-05:00,-0.207411,-0.978818,-0.006997,2025-04-03T22:13:14.621-05:00,0.090502,-0.034883,-0.482312,2025-04-03T22:13:14.615-05:00
11.000000,255.370985,0.639706,7.258125,44.934282,282.780985,90.199409,2.073895,3.000000,-93.175912,10.869796,2025-04-03T22:13:15.999-05:00,-0.210665,-0.976718,-0.005889,2025-04-03T22:13:15.616-05:00,0.003942,0.000871,-0.393451,2025-04-03T22:13:15.620-05:00
12.000000,255.277200,0.639095,7.258943,44.934282,282.687200,90.199409,2.040502,3.000000,-93.175769,11.212809,2025-04-03T22:13:16.999-05:00,-0.211956,-0.975155,-0.008616,2025-04-03T22:13:16.621-05:00,-0.020541,0.021606,-0.368741,2025-04-03T22:13:16.624-05:00
13.000000,255.281850,0.643592,7.258934,44.934282,282.691849,90.199409,2.025697,3.000000,-93.175620,11.540419,2025-04-03T22:13:17.999-05:00,-0.219475,-0.971935,-0.011349,2025-04-03T22:13:17.615-05:00,-0.087399,0.049510,-0.370428,2025-04-03T22:13:17.619-05:00
14.000000,255.426035,0.652818,7.258869,44.934281,282.836035,90.199409,2.336749,3.000000,-93.175467,11.884810,2025-04-03T22:13:18.999-05:00,-0.238332,-0.972787,-0.015233,2025-04-03T22:13:18.620-05:00,-0.263318,0.042708,-0.407468,2025-04-03T22:13:18.624-05:00
15.000000,255.200711,0.643425,7.258931,44.934279,282.610710,90.199409,2.251984,3.000000,-93.175312,12.122345,2025-04-03T22:13:19.999-05:00,-0.243223,-0.961973,-0.023560,2025-04-03T22:13:19.615-05:00,-0.296371,0.144119,-0.468524,2025-04-03T22:13:19.618-05:00
16.000000,255.169439,0.651172,7.258830,44.934281,282.579439,90.000000,2.189985,3.000000,-93.175159,12.081502,2025-04-03T22:13:20.999-05:00,-0.251103,-0.969318,-0.032463,2025-04-03T22:13:20.619-05:00,-0.360258,0.071332,-0.491055,2025-04-03T22:13:20.623-05:00
17.000000,255.700878,0.646847,7.257410,44.934277,283.110877,90.408157,2.099442,3.000000,-93.175010,11.830498,2025-04-03T22:13:21.999-05:00,-0.260551,-0.963304,-0.019661,2025-04-03T22:13:21.624-05:00,-0.434381,0.126056,-0.389020,2025-04-03T22:13:21.618-05:00
18.000000,255.713249,0.648571,7.258346,44.934274,283.123249,90.408157,2.051850,3.000000,-93.174855,11.942143,2025-04-03T22:13:22.999-05:00,-0.252547,-0.955685,-0.023042,2025-04-03T22:13:22.619-05:00,-0.345611,0.193098,-0.374068,2025-04-03T22:13:22.622-05:00
19.000000,255.970535,0.664280,7.257552,44.934277,283.380535,90.408157,2.026957,3.000000,-93.174696,12.330885,2025-04-03T22:13:23.999-05:00,-0.260025,-0.964992,-0.014213,2025-04-03T22:13:23.623-05:00,-0.319746,0.091823,-0.295137,2025-04-03T22:13:23.617-05:00
20.000000,255.689378,0.666871,7.258942,44.934269,283.099378,90.231781,2.014268,3.000000,-93.174555,11.797900,2025-04-03T22:13:24.999-05:00,-0.261338,-0.975555,0.011470,2025-04-03T22:13:24.618-05:00,-0.347041,-0.017166,-0.211029,2025-04-03T22:13:24.622-05:00
21.000000,255.183374,0.652580,7.258401,44.934270,282.593374,90.231781,2.269158,3.000000,-93.174402,11.900726,2025-04-03T22:13:25.999-05:00,-0.250944,-0.966637,0.006487,2025-04-03T22:13:25.623-05:00,-0.274307,0.071862,-0.209990,2025-04-03T22:13:25.616-05:00
22.000000,255.360344,0.650369,7.258831,44.934275,282.770343,90.231781,2.331672,3.000000,-93.174258,11.566304,2025-04-03T22:13:26.999-05:00,-0.251930,-0.967059,0.000246,2025-04-03T22:13:26.617-05:00,-0.284576,0.076315,-0.208206,2025-04-03T22:13:26.621-05:00
23.000000,255.270540,0.651370,7.258924,44.934271,282.680540,90.231781,2.176133,3.000000,-93.174106,11.855951,2025-04-03T22:13:27.999-05:00,-0.244123,-0.968136,-0.016682,2025-04-03T22:13:27.622-05:00,-0.198871,0.058813,-0.293067,2025-04-03T22:13:27.616-05:00
24.000000,255.044364,0.658634,7.258805,44.934276,282.454364,90.231781,2.243724,3.000000,-93.173963,11.588892,2025-04-03T22:13:28.999-05:00,-0.239868,-0.968395,-0.023144,2025-04-03T22:13:28.617-05:00,-0.156600,0.049418,-0.349229,2025-04-03T22:13:28.621-05:00
25.000000,255.170485,0.660953,7.258873,44.934274,282.580485,90.231781,2.396030,3.000000,-93.173808,11.901747,2025-04-03T22:13:29.999-05:00,-0.240346,-0.967145,-0.018761,2025-04-03T22:13:29.621-05:00,-0.127012,0.074248,-0.316041,2025-04-03T22:13:29.615-05:00
26.000000,255.641157,0.650148,7.257460,44.934272,283.051157,90.231781,2.211867,3.000000,-93.173666,11.584810,2025-04-03T22:13:30.999-05:00,-0.247495,-0.966564,-0.011810,2025-04-03T22:13:30.616-05:00,-0.165211,0.063288,-0.232909,2025-04-03T22:13:30.620-05:00
27.000000,255.823700,0.654245,7.257438,44.934271,283.233700,90.231781,2.727372,3.000000,-93.173520,11.568134,2025-04-03T22:13:31.999-05:00,-0.256502,-0.981593,-0.012191,2025-04-03T22:13:31.621-05:00,-0.228857,-0.089439,-0.242414,2025-04-03T22:13:31.615-05:00
28.000000,255.333909,0.654584,7.258657,44.934276,282.743909,90.231781,2.388985,3.000000,-93.173373,11.586308,2025-04-03T22:13:32.999-05:00,-0.235845,-0.954351,0.005505,2025-04-03T22:13:32.616-05:00,0.026754,0.161682,-0.078336,2025-04-03T22:13:32.619-05:00
29.000000,255.659604,0.643724,7.258804,44.934272,283.069604,90.310272,2.206701,3.000000,-93.173225,11.644466,2025-04-03T22:13:33.999-05:00,-0.251352,-0.968654,-0.018496,2025-04-03T22:13:33.620-05:00,-0.177409,0.036617,-0.218413,2025-04-03T22:13:33.624-05:00
30.000000,256.088025,0.655662,7.256976,44.934270,283.498025,90.310272,2.110811,3.000000,-93.173081,11.487786,2025-04-03T22:13:34.999-05:00,-0.247551,-0.970692,-0.010080,2025-04-03T22:13:34.615-05:00,-0.141299,0.017711,-0.172558,2025-04-03T22:13:34.619-05:00
31.000000,256.243755,0.650141,7.257438,44.934271,283.653755,90.310272,2.346770,3.000000,-93.172934,11.501457,2025-04-03T22:13:35.999-05:00,-0.236869,-0.971028,-0.003126,2025-04-03T22:13:35.620-05:00,-0.052374,0.016075,-0.157616,2025-04-03T22:13:35.623-05:00
32.000000,256.380602,0.651251,7.257685,44.934273,283.790602,90.310272,2.185637,3.000000,-93.172788,11.488824,2025-04-03T22:13:36.999-05:00,-0.223354,-0.970479,0.007048,2025-04-03T22:13:36.624-05:00,0.135673,0.008475,-0.064133,2025-04-03T22:13:36.618-05:00
33.000000,256.506722,0.640748,7.258393,44.934271,283.916722,90.310272,2.099341,3.000000,-93.172641,11.627266,2025-04-03T22:13:37.999-05:00,-0.222561,-0.972552,0.005470,2025-04-03T22:13:37.619-05:00,0.134452,-0.009665,-0.038918,2025-04-03T22:13:37.623-05:00
34.000000,256.747149,0.652253,7.258136,44.934270,284.157149,90.310272,2.459674,3.000000,-93.172490,11.838552,2025-04-03T22:13:38.999-05:00,-0.219399,-0.980490,0.003157,2025-04-03T22:13:38.624-05:00,0.118867,-0.074339,-0.052847,2025-04-03T22:13:38.617-05:00
35.000000,257.442873,0.706249,7.253636,44.934269,284.852873,90.310272,2.241396,3.000000,-93.172337,12.040338,2025-04-03T22:13:39.999-05:00,-0.225402,-0.970882,0.006883,2025-04-03T22:13:39.618-05:00,0.083101,0.012782,0.005678,2025-04-03T22:13:39.622-05:00
36.000000,257.394071,0.646100,7.257608,44.934267,284.804071,90.310272,2.125906,3.000000,-93.172181,12.190884,2025-04-03T22:13:40.999-05:00,-0.224473,-0.971404,-0.011202,2025-04-03T22:13:40.623-05:00,0.076281,0.014684,-0.115787,2025-04-03T22:13:40.617-05:00
37.000000,257.137197,0.642634,7.258947,44.934269,284.547196,90.288551,2.065352,3.000000,-93.172026,12.243280,2025-04-03T22:13:41.999-05:00,-0.229951,-0.968549,0.009138,2025-04-03T22:13:41.618-05:00,0.079657,0.023942,-0.038236,2025-04-03T22:13:41.621-05:00
38.000000,257.813803,0.644829,7.256026,44.934266,285.223803,90.288551,2.033804,3.000000,-93.171868,12.413605,2025-04-03T22:13:42.999-05:00,-0.232715,-0.978126,0.007392,2025-04-03T22:13:42.622-05:00,0.016949,-0.060152,-0.039468,2025-04-03T22:13:42.616-05:00
39.000000,258.362975,0.667789,7.253871,44.934254,285.772975,90.288551,2.246051,3.000000,-93.171705,12.703516,2025-04-03T22:13:43.999-05:00,-0.230725,-0.973348,0.002624,2025-04-03T22:13:43.617-05:00,0.020073,-0.003779,-0.136467,2025-04-03T22:13:43.621-05:00
40.000000,258.343046,0.809023,7.257496,44.934235,285.753046,90.288551,2.463837,3.000000,-93.171541,12.924421,2025-04-03T22:13:44.999-05:00,-0.230040,-0.970359,0.010335,2025-04-03T22:13:44.622-05:00,0.031986,0.015872,-0.029670,2025-04-03T22:13:44.616-05:00
41.000000,258.414213,0.690739,7.257063,44.934263,285.824213,90.288551,2.238461,3.000000,-93.171387,12.659954,2025-04-03T22:13:45.999-05:00,-0.228264,-0.967404,0.004118,2025-04-03T22:13:45.616-05:00,0.069636,0.041950,-0.065318,2025-04-03T22:13:45.620-05:00
42.000000,258.546178,0.653936,7.257642,44.934263,285.956177,90.288551,2.121679,3.000000,-93.171227,12.706503,2025-04-03T22:13:46.999-05:00,-0.234089,-0.965271,0.012366,2025-04-03T22:13:46.621-05:00,0.035613,0.058817,-0.056857,2025-04-03T22:13:46.615-05:00
43.000000,258.509367,0.636103,7.258654,44.934261,285.919367,90.288551,2.061452,3.000000,-93.171063,12.875959,2025-04-03T22:13:47.999-05:00,-0.237372,-0.971274,0.011740,2025-04-03T22:13:47.616-05:00,0.017562,-0.006976,-0.098905,2025-04-03T22:13:47.620-05:00
44.000000,258.991193,0.643455,7.256571,44.934262,286.401193,90.303329,2.031085,3.000000,-93.170901,12.813712,2025-04-03T22:13:48.999-05:00,-0.241045,-0.970783,0.007954,2025-04-03T22:13:48.620-05:00,-0.004687,-0.000001,-0.063688,2025-04-03T22:13:48.624-05:00
45.000000,259.267174,0.643749,7.256885,44.934261,286.677174,90.303329,2.015494,3.000000,-93.170733,13.077794,2025-04-03T22:13:49.999-05:00,-0.248339,-0.962367,0.007798,2025-04-03T22:13:49.615-05:00,-0.077408,0.079509,-0.041784,2025-04-03T22:13:49.619-05:00
46.000000,259.472519,0.654584,7.257351,44.934260,286.882519,90.303329,2.007802,3.000000,-93.170574,12.794580,2025-04-03T22:13:50.999-05:00,-0.255208,-0.966603,0.004250,2025-04-03T22:13:50.620-05:00,-0.141527,0.039182,-0.034741,2025-04-03T22:13:50.624-05:00
47.000000,259.594987,0.643321,7.257700,44.934259,287.004987,90.303329,2.003934,3.000000,-93.170412,12.782318,2025-04-03T22:13:51.999-05:00,-0.248143,-0.969607,0.004223,2025-04-03T22:13:51.615-05:00,-0.095155,0.015944,-0.030238,2025-04-03T22:13:51.618-05:00
48.000000,259.760876,0.648951,7.258097,44.934259,287.170875,90.303329,2.001991,3.000000,-93.170252,12.659535,2025-04-03T22:13:52.999-05:00,-0.253027,-0.963722,0.003250,2025-04-03T22:13:52.619-05:00,-0.124048,0.070563,-0.044769,2025-04-03T22:13:52.623-05:00
49.000000,260.008159,0.647459,7.257649,44.934260,287.418159,90.248398,2.001014,3.000000,-93.170093,12.589588,2025-04-03T22:13:53.999-05:00,-0.247574,-0.965009,0.002419,2025-04-03T22:13:53.624-05:00,-0.063977,0.049434,-0.043848,2025-04-03T22:13:53.618-05:00
50.000000,259.714407,0.730662,7.258958,44.934256,287.124407,90.248398,2.000520,3.000000,-93.169936,12.500473,2025-04-03T22:13:54.999-05:00,-0.242383,-0.972069,-0.007189,2025-04-03T22:13:54.619-05:00,-0.018184,-0.008706,-0.087922,2025-04-03T22:13:54.622-05:00
51.000000,260.225180,0.648821,7.257541,44.934260,287.635179,90.248398,2.000267,3.000000,-93.169779,12.477559,2025-04-03T22:13:55.999-05:00,-0.237788,-0.959539,-0.007820,2025-04-03T22:13:55.623-05:00,0.071980,0.091397,-0.088984,2025-04-03T22:13:55.617-05:00
52.000000,260.587184,0.649595,7.257450,44.934259,287.997184,90.248398,2.000137,3.000000,-93.169621,12.460382,2025-04-03T22:13:56.999-05:00,-0.230665,-0.960951,-0.013735,2025-04-03T22:13:56.618-05:00,0.180551,0.078860,-0.097892,2025-04-03T22:13:56.622-05:00
53.000000,260.170635,0.636416,7.258805,44.934262,287.580635,90.364525,2.000070,3.000000,-93.169460,12.629496,2025-04-03T22:13:57.999-05:00,-0.243175,-0.972695,-0.000999,2025-04-03T22:13:57.623-05:00,0.086323,-0.052542,-0.015793,2025-04-03T22:13:57.616-05:00
54.000000,260.380531,0.646997,7.258841,44.934257,287.790530,90.364525,2.034493,3.000000,-93.169300,12.631253,2025-04-03T22:13:58.999-05:00,-0.242731,-0.969869,-0.002311,2025-04-03T22:13:58.617-05:00,0.079489,-0.013417,0.002384,2025-04-03T22:13:58.621-05:00
55.000000,260.433682,0.639948,7.258788,44.934256,287.843682,90.364525,2.017479,3.000000,-93.169138,12.748560,2025-04-03T22:13:59.999-05:00,-0.239560,-0.967514,0.004256,2025-04-03T22:13:59.622-05:00,0.120929,-0.002652,0.049583,2025-04-03T22:13:59.616-05:00
56.000000,260.312516,0.647508,7.258974,44.934255,287.722516,90.364525,2.008828,3.000000,-93.168975,12.823999,2025-04-03T22:14:00.999-05:00,-0.241798,-0.971745,0.006708,2025-04-03T22:14:00.617-05:00,0.105733,-0.041827,0.077346,2025-04-03T22:14:00.620-05:00
57.000000,260.526522,0.643889,7.258843,44.934256,287.936521,90.313034,2.004410,3.000000,-93.168808,13.004395,2025-04-03T22:14:01.999-05:00,-0.240328,-0.967497,0.004177,2025-04-03T22:14:01.621-05:00,0.082581,0.011512,0.085270,2025-04-03T22:14:01.615-05:00
58.000000,260.609658,0.645271,7.258778,44.934257,288.019658,90.313034,2.002201,3.000000,-93.168642,13.100031,2025-04-03T22:14:02.999-05:00,-0.242197,-0.975240,-0.007210,2025-04-03T22:14:02.616-05:00,0.056745,-0.060477,0.007251,2025-04-03T22:14:02.620-05:00
59.000000,260.540594,0.640242,7.258938,44.934258,287.950594,90.332481,2.001096,3.000000,-93.168475,13.156317,2025-04-03T22:14:03.999-05:00,-0.256384,-0.957958,-0.021255,2025-04-03T22:14:03.621-05:00,-0.060641,0.096251,-0.105217,2025-04-03T22:14:03.615-05:00
60.000000,260.675765,0.646183,7.258829,44.934261,288.085765,90.332481,2.000544,3.000000,-93.168308,13.152894,2025-04-03T22:14:04.999-05:00,-0.272755,-0.962726,-0.029206,2025-04-03T22:14:04.616-05:00,-0.217314,0.050785,-0.191797,2025-04-03T22:14:04.619-05:00
61.000000,260.718518,0.638982,7.258827,44.934256,288.128518,90.332481,2.023078,3.000000,-93.168144,12.979095,2025-04-03T22:14:05.999-05:00,-0.272340,-0.957650,-0.034087,2025-04-03T22:14:05.620-05:00,-0.213107,0.103093,-0.215592,2025-04-03T22:14:05.624-05:00
62.000000,260.661945,0.648739,7.258970,44.934257,288.071945,90.332481,2.062573,3.000000,-93.167987,12.597805,2025-04-03T22:14:06.999-05:00,-0.296910,-0.955111,-0.042431,2025-04-03T22:14:06.615-05:00,-0.452333,0.124050,-0.261406,2025-04-03T22:14:06.619-05:00
63.000000,260.524828,0.647723,7.258888,44.934254,287.934828,90.332481,2.224661,3.000000,-93.167828,12.472790,2025-04-03T22:14:07.999-05:00,-0.370724,-0.933603,-0.051217,2025-04-03T22:14:07.620-05:00,-1.135660,0.328023,-0.324932,2025-04-03T22:14:07.623-05:00
64.000000,260.571184,0.652912,7.258938,44.934257,287.981184,90.332481,2.117320,3.000000,-93.167691,11.291362,2025-04-03T22:14:08.999-05:00,-0.413484,-0.919522,-0.057896,2025-04-03T22:14:08.624-05:00,-1.543236,0.460887,-0.373514,2025-04-03T22:14:08.618-05:00
65.000000,260.563722,0.648661,7.258887,44.934253,287.973722,90.332481,2.064599,3.000000,-93.167572,9.902318,2025-04-03T22:14:09.999-05:00,-0.422438,-0.920216,-0.059344,2025-04-03T22:14:09.619-05:00,-1.549292,0.430588,-0.394099,2025-04-03T22:14:09.623-05:00
66.000000,260.701155,0.661368,7.258385,44.934253,288.111155,90.332481,2.038021,3.000000,-93.167479,8.055211,2025-04-03T22:14:10.999-05:00,-0.427369,-0.920405,-0.066949,2025-04-03T22:14:10.624-05:00,-1.502459,0.399268,-0.409854,2025-04-03T22:14:10.617-05:00
67.000000,260.859482,0.655763,8.317554,44.934253,288.269482,90.332481,2.023928,3.000000,-93.167406,6.380383,2025-04-03T22:14:11.999-05:00,-0.417342,-0.921668,-0.061869,2025-04-03T22:14:11.618-05:00,-1.248923,0.343390,-0.321155,2025-04-03T22:14:11.622-05:00
68.000000,260.564027,0.660929,11.835761,44.934256,287.974026,90.332481,2.017946,3.000000,-93.167359,4.516099,2025-04-03T22:14:12.999-05:00,-0.371640,-0.928234,-0.054877,2025-04-03T22:14:12.623-05:00,-0.761754,0.263719,-0.227582,2025-04-03T22:14:12.617-05:00
69.000000,261.043291,0.712968,16.757340,44.934254,288.453291,90.332481,2.014357,3.000000,-93.167322,3.309648,2025-04-03T22:14:13.999-05:00,-0.324014,-0.950912,-0.042143,2025-04-03T22:14:13.618-05:00,-0.282825,0.041233,-0.099925,2025-04-03T22:14:13.621-05:00
70.000000,260.784027,0.841787,27.592453,44.934257,288.194027,90.332481,2.291480,3.000000,-93.167298,2.472220,2025-04-03T22:14:14.999-05:00,-0.299724,-0.957828,-0.033222,2025-04-03T22:14:14.622-05:00,-0.031722,-0.036379,-0.011589,2025-04-03T22:14:14.616-05:00
71.000000,261.284753,0.893398,64.267714,44.934255,288.694752,90.332481,2.249840,3.000000,-93.167309,0.716021,2025-04-03T22:14:15.999-05:00,-0.286615,-0.949118,-0.037587,2025-04-03T22:14:15.617-05:00,0.066261,0.063073,-0.045089,2025-04-03T22:14:15.621-05:00
