seconds_elapsed,location_altitude,location_speedAccuracy,location_bearingAccuracy,location_latitude,location_altitudeAboveMeanSeaLevel,location_bearing,location_horizontalAccuracy,location_verticalAccuracy,location_longitude,location_speed,location_local_time,accelerometerUncalibrated_z,accelerometerUncalibrated_y,accelerometerUncalibrated_x,accelerometerUncalibrated_local_time,accelerometer_z,accelerometer_y,accelerometer_x,accelerometer_local_time
0.000000,252.151386,0.329604,10.317960,44.939004,279.561386,104.642911,2.474814,3.000000,-93.177069,4.298423,2025-04-03T22:41:29.000-05:00,-0.278742,-0.958974,0.112104,2025-04-03T22:41:28.207-05:00,-0.463466,0.081738,0.021629,2025-04-03T22:41:28.211-05:00
1.000000,252.539755,0.274436,11.985665,44.939001,279.949755,94.900452,2.422057,3.000000,-93.177012,4.075340,2025-04-03T22:41:30.000-05:00,-0.249238,-0.969214,0.075141,2025-04-03T22:41:29.192-05:00,-0.258624,-0.021782,-0.408299,2025-04-03T22:41:29.186-05:00
2.000000,252.556051,0.274250,9.258777,44.939003,279.966051,90.161171,2.379851,3.000000,-93.176948,4.377655,2025-04-03T22:41:31.000-05:00,-0.205609,-0.968375,0.076929,2025-04-03T22:41:30.187-05:00,0.094943,0.003942,-0.414942,2025-04-03T22:41:30.190-05:00
3.000000,252.580043,0.294093,7.249278,44.939005,279.990043,90.161171,2.345319,3.000000,-93.176884,4.898015,2025-04-03T22:41:32.000-05:00,-0.155057,-0.985938,0.073692,2025-04-03T22:41:31.191-05:00,0.563750,-0.151706,-0.442151,2025-04-03T22:41:31.185-05:00
4.000000,252.634765,0.184094,8.793040,44.939006,280.044765,90.161171,2.316543,3.000000,-93.176810,5.726793,2025-04-03T22:41:33.000-05:00,-0.161210,-0.987662,0.070071,2025-04-03T22:41:32.186-05:00,0.497044,-0.172515,-0.414497,2025-04-03T22:41:32.190-05:00
5.000000,252.710649,0.410907,9.481402,44.939005,280.120648,90.161171,2.292193,3.000000,-93.176729,6.382923,2025-04-03T22:41:34.000-05:00,-0.176832,-0.986521,0.057015,2025-04-03T22:41:33.191-05:00,0.307303,-0.131953,-0.472612,2025-04-03T22:41:33.185-05:00
6.000000,252.813372,0.356175,7.249091,44.939005,280.223372,90.161171,2.264045,3.000000,-93.176640,6.937735,2025-04-03T22:41:35.000-05:00,-0.178897,-0.980670,0.063573,2025-04-03T22:41:34.186-05:00,0.257309,-0.070450,-0.368246,2025-04-03T22:41:34.189-05:00
7.000000,252.948759,0.354539,7.254579,44.939006,280.358759,90.161171,2.223417,3.000000,-93.176543,7.505432,2025-04-03T22:41:36.000-05:00,-0.186549,-0.982000,0.058707,2025-04-03T22:41:35.190-05:00,0.170156,-0.079454,-0.412510,2025-04-03T22:41:35.194-05:00
8.000000,252.965517,0.353333,7.255512,44.939006,280.375517,90.161171,2.174719,3.000000,-93.176442,7.918069,2025-04-03T22:41:37.000-05:00,-0.218088,-0.975183,0.053466,2025-04-03T22:41:36.185-05:00,-0.148801,-0.011255,-0.446815,2025-04-03T22:41:36.189-05:00
9.000000,252.939073,0.339342,7.256295,44.939008,280.349073,90.161171,2.130087,3.000000,-93.176340,8.090751,2025-04-03T22:41:38.000-05:00,-0.222445,-0.968763,0.046411,2025-04-03T22:41:37.190-05:00,-0.174600,0.057893,-0.441864,2025-04-03T22:41:37.194-05:00
10.000000,253.056658,0.328931,7.257004,44.939009,280.466658,90.161171,2.333507,3.000000,-93.176236,8.174519,2025-04-03T22:41:39.000-05:00,-0.215282,-0.971999,0.040419,2025-04-03T22:41:38.185-05:00,-0.110009,0.037435,-0.358862,2025-04-03T22:41:38.189-05:00
11.000000,253.048633,0.320485,7.258218,44.939007,280.458633,90.075394,2.394122,3.000000,-93.176132,8.320986,2025-04-03T22:41:40.000-05:00,-0.212958,-0.975568,0.031151,2025-04-03T22:41:39.190-05:00,-0.068445,-0.003236,-0.351670,2025-04-03T22:41:39.193-05:00
12.000000,252.975148,0.329232,7.256906,44.939007,280.385148,90.075394,2.270592,3.000000,-93.176035,8.206852,2025-04-03T22:41:41.000-05:00,-0.206453,-0.980039,0.034132,2025-04-03T22:41:40.194-05:00,-0.022662,-0.016656,-0.299890,2025-04-03T22:41:40.188-05:00
13.000000,253.156173,0.326911,7.257580,44.939008,280.566173,90.075394,2.323125,3.000000,-93.175926,8.457653,2025-04-03T22:41:42.000-05:00,-0.195391,-0.974576,0.012104,2025-04-03T22:41:41.189-05:00,0.108286,0.023145,-0.453252,2025-04-03T22:41:41.193-05:00
14.000000,253.390874,0.327713,7.258041,44.939005,280.800874,90.075394,2.214241,3.000000,-93.175816,8.698008,2025-04-03T22:41:43.000-05:00,-0.205961,-0.981242,0.029052,2025-04-03T22:41:42.194-05:00,0.038123,-0.057417,-0.299844,2025-04-03T22:41:42.188-05:00
15.000000,253.413188,0.324156,7.258743,44.939008,280.823188,90.075394,2.134460,3.000000,-93.175690,9.249870,2025-04-03T22:41:44.000-05:00,-0.205047,-0.962215,0.031420,2025-04-03T22:41:43.189-05:00,0.027580,0.115293,-0.298071,2025-04-03T22:41:43.192-05:00
16.000000,253.595974,0.322411,7.258811,44.939007,281.005974,90.075394,2.085143,3.000000,-93.175569,9.522899,2025-04-03T22:41:45.000-05:00,-0.224091,-0.988285,0.028253,2025-04-03T22:41:44.193-05:00,-0.114305,-0.105752,-0.304233,2025-04-03T22:41:44.187-05:00
17.000000,253.598383,0.315961,7.258887,44.939007,281.008382,90.075394,2.053447,3.000000,-93.175449,9.470453,2025-04-03T22:41:46.000-05:00,-0.265029,-0.959374,0.026780,2025-04-03T22:41:45.188-05:00,-0.497509,0.168680,-0.311238,2025-04-03T22:41:45.192-05:00
18.000000,253.662501,0.322901,7.258364,44.939004,281.072501,90.075394,2.033491,3.000000,-93.175334,9.137142,2025-04-03T22:41:47.000-05:00,-0.276550,-0.967129,0.036430,2025-04-03T22:41:46.193-05:00,-0.626638,0.071838,-0.184870,2025-04-03T22:41:46.187-05:00
19.000000,253.911483,0.334015,7.256863,44.939004,281.321483,90.075394,2.021465,3.000000,-93.175223,8.811629,2025-04-03T22:41:48.000-05:00,-0.222770,-0.959384,0.036027,2025-04-03T22:41:47.188-05:00,-0.091479,0.160611,-0.158901,2025-04-03T22:41:47.191-05:00
20.000000,253.880844,0.315304,7.258810,44.939005,281.290844,90.000000,2.013850,3.000000,-93.175110,8.870181,2025-04-03T22:41:49.000-05:00,-0.228358,-0.969719,0.041593,2025-04-03T22:41:48.192-05:00,-0.028123,0.017959,-0.210763,2025-04-03T22:41:48.186-05:00
21.000000,254.039223,0.320780,7.258468,44.939006,281.449223,90.000000,2.008975,3.000000,-93.174997,8.916275,2025-04-03T22:41:50.000-05:00,-0.260515,-0.972896,0.035388,2025-04-03T22:41:49.187-05:00,-0.358789,-0.006171,-0.190410,2025-04-03T22:41:49.191-05:00
22.000000,254.120280,0.318810,7.258602,44.939005,281.530280,90.000000,2.005792,3.000000,-93.174887,8.648257,2025-04-03T22:41:51.000-05:00,-0.264953,-0.954692,0.028068,2025-04-03T22:41:50.192-05:00,-0.400851,0.185938,-0.290270,2025-04-03T22:41:50.186-05:00
23.000000,254.452385,0.303500,7.254399,44.939009,281.862385,90.000000,2.003847,3.000000,-93.174788,8.019313,2025-04-03T22:41:52.000-05:00,-0.284838,-0.951553,0.022246,2025-04-03T22:41:51.187-05:00,-0.546105,0.214722,-0.303143,2025-04-03T22:41:51.190-05:00
24.000000,254.460981,0.316760,7.258523,44.939009,281.870981,90.000000,2.083986,3.000000,-93.174694,7.316091,2025-04-03T22:41:53.000-05:00,-0.344955,-0.950107,0.011563,2025-04-03T22:41:52.191-05:00,-1.038114,0.176155,-0.392744,2025-04-03T22:41:52.185-05:00
25.000000,254.417621,0.414026,9.887686,44.939007,281.827621,90.000000,2.058690,3.000000,-93.174615,6.210846,2025-04-03T22:41:54.000-05:00,-0.343358,-0.942926,0.017242,2025-04-03T22:41:53.186-05:00,-0.995516,0.246520,-0.361646,2025-04-03T22:41:53.190-05:00
26.000000,254.453053,0.458211,12.198729,44.939006,281.863052,90.000000,2.200475,3.000000,-93.174551,5.075869,2025-04-03T22:41:55.000-05:00,-0.361020,-0.938064,0.011404,2025-04-03T22:41:54.191-05:00,-1.099863,0.293898,-0.386309,2025-04-03T22:41:54.185-05:00
27.000000,254.662486,0.457737,13.202988,44.939006,282.072486,90.000000,2.160380,3.000000,-93.174493,4.026164,2025-04-03T22:41:56.000-05:00,-0.375566,-0.934435,0.010027,2025-04-03T22:41:55.186-05:00,-1.188113,0.307548,-0.393491,2025-04-03T22:41:55.189-05:00
28.000000,254.754886,0.406554,14.663341,44.939006,282.164886,90.000000,2.133650,3.000000,-93.174462,2.534790,2025-04-03T22:41:57.000-05:00,-0.370054,-0.935945,0.008997,2025-04-03T22:41:56.191-05:00,-1.020716,0.264165,-0.359359,2025-04-03T22:41:56.194-05:00
29.000000,254.734569,0.359965,19.116641,44.939006,282.144569,90.000000,2.114557,3.000000,-93.174446,1.288710,2025-04-03T22:41:58.000-05:00,-0.329319,-0.946707,0.019389,2025-04-03T22:41:57.185-05:00,-0.518606,0.131314,-0.210547,2025-04-03T22:41:57.189-05:00
30.000000,254.840443,0.333739,45.144780,44.939006,282.250443,90.000000,2.143272,3.000000,-93.174438,0.545698,2025-04-03T22:41:59.000-05:00,-0.231884,-0.970989,0.045351,2025-04-03T22:41:58.190-05:00,0.490654,-0.121046,0.061148,2025-04-03T22:41:58.194-05:00
31.000000,254.893347,0.343298,29.288346,44.939006,282.303346,90.000000,2.127353,3.000000,-93.174426,0.842452,2025-04-03T22:42:00.000-05:00,-0.169688,-0.985277,0.061470,2025-04-03T22:41:59.185-05:00,1.081556,-0.257066,0.222672,2025-04-03T22:41:59.189-05:00
32.000000,254.935710,0.389971,19.119944,44.939007,282.345710,90.000000,2.114618,3.000000,-93.174402,1.875618,2025-04-03T22:42:01.000-05:00,-0.091158,-1.004115,0.085145,2025-04-03T22:42:00.190-05:00,1.785894,-0.421319,0.447168,2025-04-03T22:42:00.193-05:00
33.000000,254.932237,0.343865,14.041115,44.939009,282.342236,90.000000,2.104198,3.000000,-93.174358,3.219219,2025-04-03T22:42:02.000-05:00,-0.144501,-0.989777,0.070141,2025-04-03T22:42:01.194-05:00,1.243322,-0.275066,0.300383,2025-04-03T22:42:01.188-05:00
34.000000,255.097900,0.304845,7.432385,44.939012,282.507900,90.000000,2.095602,3.000000,-93.174306,4.072799,2025-04-03T22:42:03.000-05:00,-0.147065,-0.991955,0.066008,2025-04-03T22:42:02.189-05:00,1.169726,-0.282880,0.281693,2025-04-03T22:42:02.193-05:00
35.000000,255.320766,0.346603,13.158124,44.939013,282.730766,90.000000,2.089855,3.000000,-93.174245,4.941456,2025-04-03T22:42:04.000-05:00,-0.148820,-0.985584,0.051898,2025-04-03T22:42:03.194-05:00,1.136418,-0.213536,0.167456,2025-04-03T22:42:03.188-05:00
36.000000,255.308989,0.337001,7.451622,44.939013,282.718989,89.699287,2.103820,3.000000,-93.174171,5.854775,2025-04-03T22:42:05.000-05:00,-0.162568,-0.985155,0.049800,2025-04-03T22:42:04.189-05:00,1.024826,-0.230131,0.082652,2025-04-03T22:42:04.192-05:00
37.000000,255.257729,0.330599,7.258314,44.939015,282.667729,89.699287,2.096899,3.000000,-93.174085,6.709953,2025-04-03T22:42:06.000-05:00,-0.178093,-0.973014,0.053344,2025-04-03T22:42:05.193-05:00,0.873562,-0.095044,0.048969,2025-04-03T22:42:05.187-05:00
38.000000,255.169276,0.297402,7.258890,44.939017,282.579276,89.699287,2.086861,3.000000,-93.173990,7.471978,2025-04-03T22:42:07.000-05:00,-0.186803,-0.988120,0.050706,2025-04-03T22:42:06.188-05:00,0.751358,-0.251607,0.042835,2025-04-03T22:42:06.192-05:00
39.000000,255.149517,0.324375,7.258786,44.939017,282.559516,89.699287,2.072321,3.000000,-93.173889,8.100947,2025-04-03T22:42:08.000-05:00,-0.192416,-0.981923,0.042484,2025-04-03T22:42:07.193-05:00,0.543889,-0.128613,0.000265,2025-04-03T22:42:07.187-05:00
40.000000,255.038233,0.315259,7.258937,44.939016,282.448232,89.699287,2.054420,3.000000,-93.173779,8.677578,2025-04-03T22:42:09.000-05:00,-0.198832,-0.987437,0.028462,2025-04-03T22:42:08.188-05:00,0.358314,-0.142567,-0.029708,2025-04-03T22:42:08.191-05:00
41.000000,255.094655,0.313141,7.258946,44.939016,282.504655,89.699287,2.037591,3.000000,-93.173667,8.870267,2025-04-03T22:42:10.000-05:00,-0.224653,-0.966724,0.024488,2025-04-03T22:42:09.192-05:00,0.130265,0.026122,0.014739,2025-04-03T22:42:09.186-05:00
42.000000,255.446416,0.314246,7.258898,44.939014,282.856416,89.733620,2.024208,3.000000,-93.173551,9.096461,2025-04-03T22:42:11.000-05:00,-0.239061,-0.983456,0.023949,2025-04-03T22:42:10.187-05:00,-0.156412,-0.076323,-0.031513,2025-04-03T22:42:10.191-05:00
43.000000,255.484400,0.317620,7.258735,44.939015,282.894399,89.733620,2.015539,3.000000,-93.173435,9.232301,2025-04-03T22:42:12.000-05:00,-0.202802,-0.963215,0.013094,2025-04-03T22:42:11.192-05:00,0.109723,0.116052,0.004193,2025-04-03T22:42:11.186-05:00
44.000000,255.614692,0.307418,7.258974,44.939015,283.024692,89.733620,2.208382,3.000000,-93.173311,9.498526,2025-04-03T22:42:13.000-05:00,-0.228979,-0.974258,0.013406,2025-04-03T22:42:12.187-05:00,-0.123622,0.035356,-0.015030,2025-04-03T22:42:12.191-05:00
45.000000,255.489577,0.303328,7.258945,44.939016,282.899577,89.733620,2.130025,3.000000,-93.173188,9.700572,2025-04-03T22:42:14.000-05:00,-0.221652,-0.979325,0.035078,2025-04-03T22:42:13.192-05:00,-0.058069,-0.047404,0.101774,2025-04-03T22:42:13.185-05:00
46.000000,255.732856,0.331738,7.258139,44.939018,283.142856,90.109161,2.080678,3.000000,-93.173064,9.810647,2025-04-03T22:42:15.000-05:00,-0.219094,-0.953805,-0.016430,2025-04-03T22:42:14.186-05:00,-0.036514,0.199190,-0.172710,2025-04-03T22:42:14.190-05:00
47.000000,255.635602,0.309028,7.258973,44.939019,283.045602,90.109161,2.049272,3.000000,-93.172938,9.923256,2025-04-03T22:42:16.000-05:00,-0.232890,-0.994417,-0.001062,2025-04-03T22:42:15.191-05:00,-0.282970,-0.127942,-0.155041,2025-04-03T22:42:15.185-05:00
48.000000,255.973498,0.317195,7.258736,44.939017,283.383498,90.109161,2.030184,3.000000,-93.172813,9.834310,2025-04-03T22:42:17.000-05:00,-0.239726,-0.967582,-0.023702,2025-04-03T22:42:16.186-05:00,-0.341218,0.107942,-0.267830,2025-04-03T22:42:16.190-05:00
49.000000,256.169437,0.317490,7.258659,44.939013,283.579437,90.109161,2.018328,3.000000,-93.172689,9.697807,2025-04-03T22:42:18.000-05:00,-0.236309,-0.967642,-0.007488,2025-04-03T22:42:17.191-05:00,-0.298638,0.107690,-0.086285,2025-04-03T22:42:17.194-05:00
50.000000,256.333655,0.314285,7.258828,44.939012,283.743655,90.109161,2.011369,3.000000,-93.172570,9.474142,2025-04-03T22:42:19.000-05:00,-0.228075,-0.971615,-0.023872,2025-04-03T22:42:18.185-05:00,-0.178349,0.056057,-0.152538,2025-04-03T22:42:18.189-05:00
51.000000,256.403127,0.321930,7.258250,44.939010,283.813127,90.109161,2.007156,3.000000,-93.172454,9.275672,2025-04-03T22:42:20.000-05:00,-0.252800,-0.974084,-0.015892,2025-04-03T22:42:19.190-05:00,-0.362655,0.025511,-0.151154,2025-04-03T22:42:19.194-05:00
52.000000,256.410086,0.319635,7.258592,44.939008,283.820086,89.691170,2.004550,3.000000,-93.172341,8.942968,2025-04-03T22:42:21.000-05:00,-0.262057,-0.966852,-0.009935,2025-04-03T22:42:20.185-05:00,-0.407250,0.079299,-0.104027,2025-04-03T22:42:20.189-05:00
53.000000,256.580720,0.339376,7.257981,44.939008,283.990720,89.691170,2.002934,3.000000,-93.172235,8.429487,2025-04-03T22:42:22.000-05:00,-0.269274,-0.946915,-0.009327,2025-04-03T22:42:21.190-05:00,-0.477114,0.283127,-0.089097,2025-04-03T22:42:21.193-05:00
54.000000,256.732801,0.338184,7.258024,44.939008,284.142801,89.691170,2.001938,3.000000,-93.172132,8.002398,2025-04-03T22:42:23.000-05:00,-0.270446,-0.967454,-0.009421,2025-04-03T22:42:22.185-05:00,-0.408356,0.056605,-0.117471,2025-04-03T22:42:22.188-05:00
55.000000,256.897280,0.295968,7.254602,44.939008,284.307280,89.691170,2.001302,3.000000,-93.172034,7.572572,2025-04-03T22:42:24.000-05:00,-0.291763,-0.955022,0.001717,2025-04-03T22:42:23.189-05:00,-0.568654,0.149105,-0.077273,2025-04-03T22:42:23.193-05:00
56.000000,256.987818,0.290083,7.257474,44.939011,284.397817,89.691170,2.000904,3.000000,-93.171947,6.915694,2025-04-03T22:42:25.000-05:00,-0.264311,-0.943901,-0.004359,2025-04-03T22:42:24.194-05:00,-0.379464,0.312474,-0.065941,2025-04-03T22:42:24.188-05:00
57.000000,256.852390,0.367983,7.246003,44.939013,284.262390,88.184258,2.077887,3.000000,-93.171867,6.350464,2025-04-03T22:42:26.000-05:00,-0.288549,-0.974666,-0.018623,2025-04-03T22:42:25.189-05:00,-0.422231,-0.061307,-0.115623,2025-04-03T22:42:25.193-05:00
58.000000,257.181324,0.364411,7.849894,44.939012,284.591324,87.450500,2.059036,3.000000,-93.171782,6.101971,2025-04-03T22:42:27.000-05:00,-0.308835,-0.956555,-0.023125,2025-04-03T22:42:26.194-05:00,-0.692942,0.153901,-0.176538,2025-04-03T22:42:26.187-05:00
59.000000,257.216174,0.413731,11.304118,44.939008,284.626174,87.450500,2.047183,3.000000,-93.171719,5.059832,2025-04-03T22:42:28.000-05:00,-0.356900,-0.937062,-0.053128,2025-04-03T22:42:27.188-05:00,-1.092432,0.327799,-0.382760,2025-04-03T22:42:27.192-05:00
60.000000,257.174179,0.442759,12.653798,44.939009,284.584179,87.450500,2.039319,3.000000,-93.171673,3.576680,2025-04-03T22:42:29.000-05:00,-0.382010,-0.938116,-0.044286,2025-04-03T22:42:28.193-05:00,-1.231328,0.267597,-0.348024,2025-04-03T22:42:28.187-05:00
61.000000,257.301254,0.388795,14.274766,44.939010,284.711254,87.450500,2.033702,3.000000,-93.171650,1.926802,2025-04-03T22:42:30.000-05:00,-0.357953,-0.937136,-0.028146,2025-04-03T22:42:29.188-05:00,-0.855234,0.249206,-0.234976,2025-04-03T22:42:29.192-05:00
62.000000,257.312508,0.345843,31.254058,44.939010,284.722508,87.450500,2.311087,3.000000,-93.171639,0.784607,2025-04-03T22:42:31.000-05:00,-0.318195,-0.951362,-0.015271,2025-04-03T22:42:30.193-05:00,-0.380551,0.087719,-0.135028,2025-04-03T22:42:30.186-05:00
63.000000,257.518978,0.328663,72.424438,44.939011,284.928978,87.450500,2.352940,3.000000,-93.171634,0.338864,2025-04-03T22:42:32.000-05:00,-0.186468,-0.982505,0.019782,2025-04-03T22:42:31.187-05:00,0.911358,-0.217780,0.206337,2025-04-03T22:42:31.191-05:00
64.000000,257.632164,0.347932,31.183421,44.939011,285.042164,87.450500,2.373981,3.000000,-93.171626,0.788681,2025-04-03T22:42:33.000-05:00,-0.092245,-1.005410,0.046571,2025-04-03T22:42:32.192-05:00,1.779417,-0.428586,0.447991,2025-04-03T22:42:32.186-05:00
65.000000,257.553457,0.430607,20.439138,44.939014,284.963457,87.450500,2.348307,3.000000,-93.171598,2.266872,2025-04-03T22:42:34.000-05:00,-0.096764,-1.002561,0.054632,2025-04-03T22:42:33.187-05:00,1.739638,-0.400803,0.491408,2025-04-03T22:42:33.191-05:00
66.000000,257.491536,0.308735,8.142564,44.939016,284.901536,87.450500,2.319282,3.000000,-93.171554,3.462158,2025-04-03T22:42:35.000-05:00,-0.130360,-0.998643,0.040019,2025-04-03T22:42:34.192-05:00,1.323033,-0.338683,0.374142,2025-04-03T22:42:34.186-05:00
67.000000,257.555078,0.258464,9.747043,44.939019,284.965078,87.450500,2.294721,3.000000,-93.171497,4.325675,2025-04-03T22:42:36.000-05:00,-0.151111,-0.981077,0.034147,2025-04-03T22:42:35.187-05:00,1.126813,-0.166086,0.357799,2025-04-03T22:42:35.190-05:00
68.000000,257.648099,0.325289,8.126289,44.939024,285.058099,87.450500,2.273670,3.000000,-93.171428,5.244018,2025-04-03T22:42:37.000-05:00,-0.157730,-0.986761,0.036996,2025-04-03T22:42:36.191-05:00,1.109497,-0.237134,0.379798,2025-04-03T22:42:36.185-05:00
69.000000,257.548825,0.324029,7.427628,44.939031,284.958825,88.985832,2.255425,3.000000,-93.171352,6.071896,2025-04-03T22:42:38.000-05:00,-0.183430,-0.996183,0.008007,2025-04-03T22:42:37.186-05:00,0.752297,-0.297430,0.018330,2025-04-03T22:42:37.190-05:00
70.000000,257.664748,0.339472,7.257091,44.939037,285.074748,88.985832,2.238561,3.000000,-93.171268,6.668555,2025-04-03T22:42:39.000-05:00,-0.180202,-0.981395,-0.002352,2025-04-03T22:42:38.191-05:00,0.583454,-0.110960,-0.168322,2025-04-03T22:42:38.185-05:00
71.000000,257.614190,0.341403,7.257030,44.939023,285.024190,90.505760,2.218762,3.000000,-93.171185,6.950353,2025-04-03T22:42:40.000-05:00,-0.183499,-0.988428,-0.002456,2025-04-03T22:42:39.186-05:00,0.373395,-0.129455,-0.136873,2025-04-03T22:42:39.189-05:00
72.000000,257.671567,0.330550,7.258025,44.939022,285.081567,90.505760,2.189227,3.000000,-93.171091,7.330837,2025-04-03T22:42:41.000-05:00,-0.211570,-0.986278,-0.012991,2025-04-03T22:42:40.190-05:00,0.008111,-0.088442,-0.246921,2025-04-03T22:42:40.194-05:00
73.000000,257.845133,0.325489,7.257946,44.939022,285.255132,90.505760,2.151502,3.000000,-93.170995,7.564552,2025-04-03T22:42:42.000-05:00,-0.211509,-0.964033,-0.005463,2025-04-03T22:42:41.185-05:00,0.053717,0.117226,-0.194937,2025-04-03T22:42:41.189-05:00
74.000000,257.966349,0.323702,7.257735,44.939021,285.376349,90.505760,2.115210,3.000000,-93.170899,7.556660,2025-04-03T22:42:43.000-05:00,-0.231181,-0.969239,0.017106,2025-04-03T22:42:42.190-05:00,-0.211254,0.077973,0.006558,2025-04-03T22:42:42.194-05:00
75.000000,258.085909,0.322295,7.257592,44.939024,285.495909,90.000000,2.085054,3.000000,-93.170813,7.248637,2025-04-03T22:42:44.000-05:00,-0.228687,-0.978053,0.002944,2025-04-03T22:42:43.185-05:00,-0.140731,-0.011828,-0.147169,2025-04-03T22:42:43.188-05:00
76.000000,258.115686,0.315075,7.255822,44.939024,285.525686,90.000000,2.062917,3.000000,-93.170720,7.173789,2025-04-03T22:42:45.000-05:00,-0.222547,-0.953301,0.006416,2025-04-03T22:42:44.189-05:00,-0.096052,0.237982,-0.078146,2025-04-03T22:42:44.193-05:00
77.000000,258.088051,0.305185,7.257442,44.939023,285.498051,90.000000,2.046503,3.000000,-93.170625,7.186891,2025-04-03T22:42:46.000-05:00,-0.249351,-0.979673,0.005170,2025-04-03T22:42:45.194-05:00,-0.290563,-0.043311,-0.002882,2025-04-03T22:42:45.188-05:00
78.000000,258.126985,0.305667,7.258525,44.939025,285.536984,90.000000,2.034444,3.000000,-93.170532,7.182322,2025-04-03T22:42:47.000-05:00,-0.235562,-0.959230,0.018892,2025-04-03T22:42:46.189-05:00,-0.209606,0.173467,-0.005899,2025-04-03T22:42:46.193-05:00
79.000000,258.141944,0.306996,7.258913,44.939026,285.551944,90.000000,2.025717,3.000000,-93.170443,6.912426,2025-04-03T22:42:48.000-05:00,-0.270584,-0.967923,0.020598,2025-04-03T22:42:47.194-05:00,-0.433686,0.051841,-0.057117,2025-04-03T22:42:47.187-05:00
80.000000,258.196645,0.327826,7.255715,44.939026,285.606645,90.000000,2.019420,3.000000,-93.170359,6.545663,2025-04-03T22:42:49.000-05:00,-0.277631,-0.977777,0.015318,2025-04-03T22:42:48.188-05:00,-0.415936,-0.076295,-0.082596,2025-04-03T22:42:48.192-05:00
81.000000,258.259217,0.304896,7.258933,44.939027,285.669217,90.000000,2.015082,3.000000,-93.170281,6.191999,2025-04-03T22:42:50.000-05:00,-0.254277,-0.951056,0.014489,2025-04-03T22:42:49.193-05:00,-0.313811,0.245742,-0.047234,2025-04-03T22:42:49.187-05:00
82.000000,258.342146,0.337742,7.727642,44.939028,285.752146,90.000000,2.011931,3.000000,-93.170207,5.822358,2025-04-03T22:42:51.000-05:00,-0.249896,-0.961811,-0.011270,2025-04-03T22:42:50.188-05:00,-0.185698,0.104997,-0.274462,2025-04-03T22:42:50.192-05:00
83.000000,258.474751,0.375021,8.263555,44.939027,285.884751,90.000000,2.143604,3.000000,-93.170138,5.582781,2025-04-03T22:42:52.000-05:00,-0.244585,-0.959030,-0.013068,2025-04-03T22:42:51.193-05:00,-0.106752,0.128618,-0.271221,2025-04-03T22:42:51.187-05:00
84.000000,258.507402,0.380226,8.976152,44.939024,285.917401,90.000000,2.461216,3.000000,-93.170075,5.306873,2025-04-03T22:42:53.000-05:00,-0.250501,-0.976068,-0.018877,2025-04-03T22:42:52.188-05:00,-0.156425,-0.029581,-0.392181,2025-04-03T22:42:52.191-05:00
85.000000,258.493409,0.412009,10.354117,44.939019,285.903408,90.000000,2.403564,3.000000,-93.170015,5.013846,2025-04-03T22:42:54.000-05:00,-0.261812,-0.963710,0.028731,2025-04-03T22:42:53.192-05:00,-0.146146,0.038144,0.033117,2025-04-03T22:42:53.186-05:00
86.000000,258.625072,0.393219,11.616363,44.939014,286.035072,90.000000,2.358724,3.000000,-93.169952,4.707868,2025-04-03T22:42:55.000-05:00,-0.256142,-0.966772,0.045905,2025-04-03T22:42:54.187-05:00,-0.156491,0.029278,0.175400,2025-04-03T22:42:54.191-05:00
87.000000,258.641438,0.466168,12.403317,44.939011,286.051438,90.000000,2.322852,3.000000,-93.169889,4.629881,2025-04-03T22:42:56.000-05:00,-0.258925,-0.965981,0.053267,2025-04-03T22:42:55.192-05:00,-0.037331,0.003628,0.093327,2025-04-03T22:42:55.186-05:00
88.000000,258.858071,0.389071,12.631873,44.939009,286.268071,90.000000,2.293501,3.000000,-93.169830,4.510512,2025-04-03T22:42:57.000-05:00,-0.278538,-0.954581,0.047356,2025-04-03T22:42:56.187-05:00,-0.291697,0.122928,-0.010077,2025-04-03T22:42:56.190-05:00
89.000000,258.793921,0.480333,14.833117,44.939012,286.203921,90.000000,2.269043,3.000000,-93.169780,3.861829,2025-04-03T22:42:58.000-05:00,-0.372353,-0.931697,0.013020,2025-04-03T22:42:57.191-05:00,-1.137807,0.333730,-0.337974,2025-04-03T22:42:57.185-05:00
90.000000,,,,,,,,,,,,-0.382672,-0.930275,0.014359,2025-04-03T22:42:58.186-05:00,-1.162678,0.325874,-0.307880,2025-04-03T22:42:58.190-05:00
