seconds_elapsed,location_altitude,location_speedAccuracy,location_bearingAccuracy,location_latitude,location_altitudeAboveMeanSeaLevel,location_bearing,location_horizontalAccuracy,location_verticalAccuracy,location_longitude,location_speed,location_local_time,accelerometerUncalibrated_z,accelerometerUncalibrated_y,accelerometerUncalibrated_x,accelerometerUncalibrated_local_time,accelerometer_z,accelerometer_y,accelerometer_x,accelerometer_local_time
0.000000,246.703258,1.678303,112.570862,44.941663,274.113257,255.650023,4.767740,7.500000,-93.177021,1.561735,2025-04-03T22:11:31.590-05:00,-0.323128,-0.950411,0.050265,2025-04-03T22:11:31.580-05:00,-0.590435,0.132184,0.235292,2025-04-03T22:11:31.593-05:00
1.000000,247.505188,1.280000,26.576007,44.941646,274.915188,221.132812,5.853560,4.000000,-93.177045,3.090000,2025-04-03T22:11:32.999-05:00,-0.408378,-0.923266,-0.032875,2025-04-03T22:11:32.565-05:00,-1.546578,0.435895,-0.604474,2025-04-03T22:11:32.568-05:00
2.000000,243.187500,0.530000,12.540351,44.941615,270.597500,180.000000,3.683434,4.000000,-93.177078,3.040000,2025-04-03T22:11:33.999-05:00,-0.384493,-0.928825,-0.039392,2025-04-03T22:11:33.569-05:00,-1.317595,0.380617,-0.658219,2025-04-03T22:11:33.573-05:00
3.000000,241.738281,0.060000,6.609159,44.941590,269.148281,180.000000,3.535534,3.000000,-93.177106,2.300000,2025-04-03T22:11:34.999-05:00,-0.326389,-0.946511,-0.023646,2025-04-03T22:11:34.574-05:00,-0.746874,0.209947,-0.497216,2025-04-03T22:11:34.568-05:00
4.000000,241.496887,0.930000,7.878224,44.941572,268.906887,180.000000,3.535534,3.000000,-93.177128,0.450000,2025-04-03T22:11:35.999-05:00,-0.283373,-0.957606,-0.011093,2025-04-03T22:11:35.569-05:00,-0.306534,0.098438,-0.365742,2025-04-03T22:11:35.572-05:00
5.000000,241.275879,1.000000,8.283610,44.941558,268.685879,180.000000,3.535534,3.000000,-93.177148,0.000000,2025-04-03T22:11:36.999-05:00,-0.258443,-0.964626,-0.004328,2025-04-03T22:11:36.573-05:00,-0.047109,0.020133,-0.293153,2025-04-03T22:11:36.567-05:00
6.000000,241.835754,1.000000,8.497518,44.941548,269.245754,180.000000,3.535534,3.000000,-93.177167,0.000000,2025-04-03T22:11:37.999-05:00,-0.258236,-0.964416,-0.004068,2025-04-03T22:11:37.568-05:00,-0.024489,0.019224,-0.276832,2025-04-03T22:11:37.572-05:00
7.000000,242.377197,1.140000,13.633142,44.941539,269.787197,180.000000,3.535534,3.000000,-93.177183,0.000000,2025-04-03T22:11:38.999-05:00,-0.258464,-0.964355,-0.004177,2025-04-03T22:11:38.573-05:00,-0.007463,0.016301,-0.263163,2025-04-03T22:11:38.566-05:00
8.000000,242.861206,0.990000,13.640717,44.941533,270.271206,180.000000,3.535534,3.000000,-93.177197,0.000000,2025-04-03T22:11:39.999-05:00,-0.258526,-0.964567,-0.003699,2025-04-03T22:11:39.567-05:00,0.009542,0.010130,-0.250472,2025-04-03T22:11:39.571-05:00
9.000000,243.140686,1.000000,13.739727,44.941527,270.550686,180.000000,3.535534,3.000000,-93.177209,0.000000,2025-04-03T22:11:40.999-05:00,-0.258261,-0.964437,-0.004254,2025-04-03T22:11:40.572-05:00,0.022234,0.006759,-0.237594,2025-04-03T22:11:40.566-05:00
10.000000,243.623413,1.010000,14.183847,44.941522,271.033413,180.000000,3.535534,3.000000,-93.177220,0.000000,2025-04-03T22:11:41.999-05:00,-0.258306,-0.964191,-0.004425,2025-04-03T22:11:41.567-05:00,0.033161,0.005235,-0.225422,2025-04-03T22:11:41.570-05:00
11.000000,243.623413,0.070000,14.183847,44.941522,271.033413,180.000000,3.535534,3.000000,-93.177220,0.000000,2025-04-03T22:11:42.999-05:00,-0.258530,-0.964763,-0.003689,2025-04-03T22:11:42.571-05:00,0.043314,0.001748,-0.211247,2025-04-03T22:11:42.565-05:00
12.000000,243.623413,0.070000,14.183847,44.941522,271.033413,180.000000,3.535534,3.000000,-93.177220,0.000000,2025-04-03T22:11:43.999-05:00,-0.258131,-0.964509,-0.004188,2025-04-03T22:11:43.566-05:00,0.052557,-0.000270,-0.200761,2025-04-03T22:11:43.570-05:00
13.000000,243.623413,0.308016,-1.000000,44.941522,271.033413,-1.000000,4.748652,4.029364,-93.177220,0.000000,2025-04-03T22:11:44.999-05:00,-0.258181,-0.964413,-0.004189,2025-04-03T22:11:44.571-05:00,0.057896,-0.000053,-0.189666,2025-04-03T22:11:44.574-05:00
14.000000,243.623413,0.308016,-1.000000,44.941522,271.033413,-1.000000,4.748652,4.029364,-93.177220,0.000000,2025-04-03T22:11:45.999-05:00,-0.258210,-0.964443,-0.004238,2025-04-03T22:11:45.565-05:00,0.063393,-0.001188,-0.179475,2025-04-03T22:11:45.569-05:00
15.000000,243.623413,0.308016,-1.000000,44.941522,271.033413,-1.000000,4.748652,4.029364,-93.177220,0.000000,2025-04-03T22:11:46.999-05:00,-0.258523,-0.964422,-0.003614,2025-04-03T22:11:46.570-05:00,0.062166,-0.003092,-0.162623,2025-04-03T22:11:46.574-05:00
16.000000,243.623413,0.308016,-1.000000,44.941522,271.033413,-1.000000,4.748652,4.029364,-93.177220,0.000000,2025-04-03T22:11:47.999-05:00,-0.258226,-0.964481,-0.004160,2025-04-03T22:11:47.565-05:00,0.068911,-0.003587,-0.157180,2025-04-03T22:11:47.568-05:00
17.000000,243.623413,0.308016,-1.000000,44.941522,271.033413,-1.000000,4.748652,4.029364,-93.177220,0.000000,2025-04-03T22:11:48.999-05:00,-0.258566,-0.964515,-0.003865,2025-04-03T22:11:48.569-05:00,0.071607,-0.003040,-0.146802,2025-04-03T22:11:48.573-05:00
18.000000,243.623413,0.308016,-1.000000,44.941522,271.033413,-1.000000,4.748652,4.029364,-93.177220,0.000000,2025-04-03T22:11:49.999-05:00,-0.258183,-0.964311,-0.004204,2025-04-03T22:11:49.574-05:00,0.069228,-0.003669,-0.135363,2025-04-03T22:11:49.568-05:00
19.000000,243.623413,0.308016,-1.000000,44.941522,271.033413,-1.000000,4.748652,4.029364,-93.177220,0.000000,2025-04-03T22:11:50.999-05:00,-0.253856,-0.965700,-0.002548,2025-04-03T22:11:50.569-05:00,0.118054,-0.016462,-0.113318,2025-04-03T22:11:50.573-05:00
20.000000,243.623413,0.827345,-1.000000,44.941522,271.033413,-1.000000,4.748652,4.029364,-93.177220,0.000000,2025-04-03T22:11:51.999-05:00,-0.215718,-0.975696,0.007796,2025-04-03T22:11:51.573-05:00,0.469959,-0.108913,-0.009530,2025-04-03T22:11:51.567-05:00
21.000000,244.385864,0.816165,-1.000000,44.941495,271.795864,-1.000000,4.748652,4.029364,-93.177273,0.000000,2025-04-03T22:11:52.999-05:00,-0.114591,-1.003359,0.037868,2025-04-03T22:11:52.568-05:00,1.413637,-0.365437,0.275053,2025-04-03T22:11:52.572-05:00
22.000000,244.788818,0.771443,-1.000000,44.941492,272.198818,-1.000000,4.748652,4.029364,-93.177273,0.000000,2025-04-03T22:11:53.999-05:00,-0.071511,-1.012259,0.054756,2025-04-03T22:11:53.573-05:00,1.761570,-0.437351,0.427416,2025-04-03T22:11:53.567-05:00
23.000000,244.954712,0.308016,59.423910,44.941474,272.364712,180.000000,4.748652,4.029364,-93.177272,0.420000,2025-04-03T22:11:54.999-05:00,-0.113488,-1.000306,0.021416,2025-04-03T22:11:54.567-05:00,1.320444,-0.307749,0.159460,2025-04-03T22:11:54.571-05:00
24.000000,244.999513,0.308016,7.258975,44.941403,272.409513,177.187502,4.748652,4.029364,-93.177267,4.640000,2025-04-03T22:11:55.999-05:00,-0.144290,-0.984294,0.002876,2025-04-03T22:11:55.572-05:00,1.005856,-0.152850,0.032007,2025-04-03T22:11:55.566-05:00
25.000000,245.049746,0.308016,7.258975,44.941340,272.459746,177.187503,4.748652,4.029364,-93.177258,5.860000,2025-04-03T22:11:56.999-05:00,-0.166653,-0.992952,0.001671,2025-04-03T22:11:56.567-05:00,0.813633,-0.241779,0.004225,2025-04-03T22:11:56.571-05:00
26.000000,245.139407,0.308016,7.258975,44.941286,272.549407,180.800751,4.748652,4.029364,-93.177256,5.860000,2025-04-03T22:11:57.999-05:00,-0.165558,-0.998960,0.021734,2025-04-03T22:11:57.571-05:00,0.687586,-0.268777,-0.023938,2025-04-03T22:11:57.565-05:00
27.000000,245.062748,0.308016,7.258975,44.941212,272.472748,180.800751,4.748652,4.029364,-93.177256,6.800000,2025-04-03T22:11:58.999-05:00,-0.178844,-0.979127,0.040588,2025-04-03T22:11:58.566-05:00,0.529176,-0.052076,0.109446,2025-04-03T22:11:58.570-05:00
28.000000,244.949224,1.100000,11.311081,44.941135,272.359224,180.800751,4.748652,4.029364,-93.177251,7.880000,2025-04-03T22:11:59.999-05:00,-0.184096,-0.983951,0.043111,2025-04-03T22:11:59.571-05:00,0.251438,-0.088677,-0.029233,2025-04-03T22:11:59.565-05:00
29.000000,244.745247,0.570000,7.258975,44.941037,272.155246,179.816467,4.748652,4.029364,-93.177255,9.640000,2025-04-03T22:12:00.999-05:00,-0.182059,-0.983646,0.036454,2025-04-03T22:12:00.566-05:00,0.252873,-0.058129,0.015176,2025-04-03T22:12:00.569-05:00
30.000000,244.741279,1.280000,10.703451,44.940953,272.151279,179.816467,4.748652,4.029364,-93.177267,9.690000,2025-04-03T22:12:01.999-05:00,-0.222984,-0.970817,0.032323,2025-04-03T22:12:01.570-05:00,-0.126670,0.057905,-0.058000,2025-04-03T22:12:01.574-05:00
31.000000,244.868538,1.290000,10.787072,44.940861,272.278538,179.816467,4.748652,4.029364,-93.177266,9.690000,2025-04-03T22:12:02.999-05:00,-0.228397,-0.971834,0.025993,2025-04-03T22:12:02.565-05:00,-0.199343,0.055575,-0.109296,2025-04-03T22:12:02.569-05:00
32.000000,245.171883,2.140000,17.000092,44.940759,272.581883,179.816467,4.748652,4.029364,-93.177269,10.200000,2025-04-03T22:12:03.999-05:00,-0.253547,-0.968770,0.024589,2025-04-03T22:12:03.570-05:00,-0.473024,0.090926,-0.093591,2025-04-03T22:12:03.573-05:00
33.000000,249.163866,1.274250,9.313686,44.940656,276.573866,180.465057,2.762839,3.000000,-93.177260,11.085625,2025-04-03T22:12:04.999-05:00,-0.245562,-0.963401,0.023509,2025-04-03T22:12:04.574-05:00,-0.381048,0.143345,-0.066450,2025-04-03T22:12:04.568-05:00
34.000000,248.882702,1.266681,9.085022,44.940549,276.292702,180.465057,2.691538,3.000000,-93.177260,11.296676,2025-04-03T22:12:05.999-05:00,-0.239858,-0.968941,0.009125,2025-04-03T22:12:05.569-05:00,-0.351939,0.092178,-0.099322,2025-04-03T22:12:05.573-05:00
35.000000,249.458041,1.270126,9.119693,44.940438,276.868041,179.867538,2.772303,3.000000,-93.177260,11.284074,2025-04-03T22:12:06.999-05:00,-0.243129,-0.973563,0.001516,2025-04-03T22:12:06.574-05:00,-0.348754,0.047029,-0.137955,2025-04-03T22:12:06.567-05:00
36.000000,249.406711,1.268027,8.991308,44.940333,276.816711,179.867538,2.414013,3.000000,-93.177254,11.427209,2025-04-03T22:12:07.999-05:00,-0.239059,-0.970755,-0.006021,2025-04-03T22:12:07.568-05:00,-0.324730,0.077257,-0.193677,2025-04-03T22:12:07.572-05:00
37.000000,249.761599,1.263145,8.867880,44.940225,277.171598,179.867538,2.446882,3.000000,-93.177259,11.539491,2025-04-03T22:12:08.999-05:00,-0.238214,-0.972934,0.002009,2025-04-03T22:12:08.573-05:00,-0.372729,0.065903,-0.110380,2025-04-03T22:12:08.567-05:00
38.000000,249.836448,1.266566,8.818094,44.940112,277.246448,179.867538,2.332169,3.000000,-93.177264,11.637669,2025-04-03T22:12:09.999-05:00,-0.229743,-0.931742,-0.014108,2025-04-03T22:12:09.568-05:00,-0.133503,0.423688,-0.082342,2025-04-03T22:12:09.571-05:00
39.000000,250.239558,1.156967,8.026485,44.939998,277.649558,179.867538,2.180876,3.000000,-93.177264,11.677475,2025-04-03T22:12:10.999-05:00,-0.243378,-0.991298,0.000613,2025-04-03T22:12:10.572-05:00,-0.174550,-0.152642,-0.060748,2025-04-03T22:12:10.566-05:00
40.000000,249.991830,1.267825,8.668145,44.939894,277.401829,180.188141,2.185857,3.000000,-93.177265,11.851410,2025-04-03T22:12:11.999-05:00,-0.263543,-0.965649,0.003186,2025-04-03T22:12:11.567-05:00,-0.445704,0.100235,-0.192321,2025-04-03T22:12:11.571-05:00
41.000000,250.100829,1.261089,8.539454,44.939789,277.510829,180.188141,2.099025,3.000000,-93.177264,11.966007,2025-04-03T22:12:12.999-05:00,-0.255857,-0.967808,0.013237,2025-04-03T22:12:12.572-05:00,-0.308575,0.063622,-0.118056,2025-04-03T22:12:12.565-05:00
42.000000,250.101166,1.266548,8.564871,44.939677,277.511166,180.562260,2.124913,3.000000,-93.177267,11.982232,2025-04-03T22:12:13.999-05:00,-0.251564,-0.969776,0.015101,2025-04-03T22:12:13.566-05:00,-0.304847,0.056411,-0.076830,2025-04-03T22:12:13.570-05:00
43.000000,250.304056,1.267942,8.527306,44.939568,277.714056,179.628914,2.065301,3.000000,-93.177261,12.048011,2025-04-03T22:12:14.999-05:00,-0.251229,-0.966781,0.014101,2025-04-03T22:12:14.571-05:00,-0.306599,0.076964,-0.119415,2025-04-03T22:12:14.565-05:00
44.000000,250.371018,1.263884,8.538995,44.939464,277.781018,180.143850,2.173764,3.000000,-93.177264,11.992713,2025-04-03T22:12:15.999-05:00,-0.254948,-0.962179,0.017386,2025-04-03T22:12:15.566-05:00,-0.297439,0.112880,-0.127220,2025-04-03T22:12:15.569-05:00
45.000000,250.273101,0.650459,7.258855,44.939356,277.683101,180.532914,2.192509,3.000000,-93.177263,12.113697,2025-04-03T22:12:16.999-05:00,-0.264264,-0.961088,0.011016,2025-04-03T22:12:16.570-05:00,-0.354128,0.120159,-0.159081,2025-04-03T22:12:16.574-05:00
46.000000,250.180097,0.657187,7.258935,44.939251,277.590097,180.307236,2.101323,3.000000,-93.177263,11.937579,2025-04-03T22:12:17.999-05:00,-0.256871,-0.963410,0.017955,2025-04-03T22:12:17.565-05:00,-0.273367,0.096015,-0.042686,2025-04-03T22:12:17.569-05:00
47.000000,250.239096,0.659765,7.258974,44.939144,277.649096,180.307236,2.053708,3.000000,-93.177268,11.915988,2025-04-03T22:12:18.999-05:00,-0.252228,-0.967224,0.008048,2025-04-03T22:12:18.570-05:00,-0.263960,0.071849,-0.096265,2025-04-03T22:12:18.573-05:00
48.000000,251.426852,0.705662,7.245759,44.939051,278.836852,180.307236,2.088036,3.000000,-93.177235,11.043489,2025-04-03T22:12:19.999-05:00,-0.238134,-0.951759,0.002702,2025-04-03T22:12:19.574-05:00,-0.024533,0.189477,-0.080760,2025-04-03T22:12:19.568-05:00
49.000000,251.180418,0.672684,7.258599,44.938936,278.590418,180.290604,2.609100,3.000000,-93.177267,11.833968,2025-04-03T22:12:20.999-05:00,-0.255788,-0.982893,0.029491,2025-04-03T22:12:20.569-05:00,-0.128434,-0.113820,0.013434,2025-04-03T22:12:20.573-05:00
50.000000,250.633953,0.658900,7.258299,44.938827,278.043953,180.290604,2.513726,3.000000,-93.177268,12.089208,2025-04-03T22:12:21.999-05:00,-0.235797,-0.968167,0.015809,2025-04-03T22:12:21.574-05:00,-0.015786,0.020810,-0.011911,2025-04-03T22:12:21.567-05:00
51.000000,250.707949,0.653985,7.258887,44.938721,278.117949,180.290604,2.270333,3.000000,-93.177268,12.000223,2025-04-03T22:12:22.999-05:00,-0.236141,-0.968600,0.023144,2025-04-03T22:12:22.568-05:00,0.005861,0.019337,0.001120,2025-04-03T22:12:22.572-05:00
52.000000,250.895223,0.656928,7.258696,44.938610,278.305223,180.290604,2.561745,3.000000,-93.177264,12.230419,2025-04-03T22:12:23.999-05:00,-0.237632,-0.969388,0.023693,2025-04-03T22:12:23.573-05:00,0.023989,0.015896,-0.021871,2025-04-03T22:12:23.567-05:00
53.000000,250.091242,0.676642,7.255795,44.938496,277.501242,180.290604,2.289451,3.000000,-93.177270,12.490029,2025-04-03T22:12:24.999-05:00,-0.253547,-0.963833,0.015217,2025-04-03T22:12:24.568-05:00,-0.099160,0.066556,-0.051513,2025-04-03T22:12:24.571-05:00
54.000000,250.099057,0.653436,7.258013,44.938383,277.509057,180.000000,2.339302,3.000000,-93.177259,12.516214,2025-04-03T22:12:25.999-05:00,-0.246649,-0.966054,0.015849,2025-04-03T22:12:25.572-05:00,-0.097760,0.042353,-0.089661,2025-04-03T22:12:25.566-05:00
55.000000,250.293538,0.650585,7.258961,44.938270,277.703538,180.000000,2.172921,3.000000,-93.177258,12.495196,2025-04-03T22:12:26.999-05:00,-0.253241,-0.966393,0.018944,2025-04-03T22:12:26.567-05:00,-0.096824,0.024308,-0.049382,2025-04-03T22:12:26.571-05:00
56.000000,250.347374,0.651023,7.258950,44.938153,277.757374,180.000000,2.225985,3.000000,-93.177265,12.772197,2025-04-03T22:12:27.999-05:00,-0.250018,-0.968671,0.017771,2025-04-03T22:12:27.572-05:00,-0.062070,0.017316,-0.083011,2025-04-03T22:12:27.566-05:00
57.000000,250.332058,0.641671,7.258795,44.938037,277.742058,180.000000,2.114490,3.000000,-93.177261,12.877266,2025-04-03T22:12:28.999-05:00,-0.254201,-0.976639,0.023503,2025-04-03T22:12:28.566-05:00,-0.142348,-0.069680,-0.066331,2025-04-03T22:12:28.570-05:00
58.000000,249.284603,0.660278,7.250816,44.937913,276.694603,180.000000,2.163562,3.000000,-93.177250,13.476426,2025-04-03T22:12:29.999-05:00,-0.242414,-0.948265,-0.001793,2025-04-03T22:12:29.571-05:00,-0.013578,0.221959,-0.114843,2025-04-03T22:12:29.565-05:00
59.000000,250.999322,0.654100,7.254923,44.937810,278.409322,180.000000,2.309334,3.000000,-93.177276,12.429868,2025-04-03T22:12:30.999-05:00,-0.260222,-0.967301,0.031079,2025-04-03T22:12:30.566-05:00,-0.027365,-0.011530,0.072421,2025-04-03T22:12:30.570-05:00
60.000000,250.697176,0.647533,7.258886,44.937691,278.107176,180.258331,2.156365,3.000000,-93.177267,12.745936,2025-04-03T22:12:31.999-05:00,-0.254214,-0.967982,0.018783,2025-04-03T22:12:31.570-05:00,-0.057329,0.002061,-0.050248,2025-04-03T22:12:31.574-05:00
61.000000,251.301837,0.654051,7.256561,44.937575,278.711837,180.258331,2.078692,3.000000,-93.177273,12.840085,2025-04-03T22:12:32.999-05:00,-0.251334,-0.962795,0.019513,2025-04-03T22:12:32.565-05:00,-0.018873,0.050193,-0.049011,2025-04-03T22:12:32.569-05:00
62.000000,250.720833,0.649759,7.257977,44.937458,278.130833,180.258331,2.039553,3.000000,-93.177269,12.889574,2025-04-03T22:12:33.999-05:00,-0.256664,-0.962022,0.030903,2025-04-03T22:12:33.570-05:00,-0.043062,0.053516,0.049826,2025-04-03T22:12:33.574-05:00
63.000000,251.076012,0.656744,7.258973,44.937341,278.486012,180.129593,2.019803,3.000000,-93.177267,12.949350,2025-04-03T22:12:34.999-05:00,-0.249956,-0.967388,0.018074,2025-04-03T22:12:34.565-05:00,0.010828,0.006575,-0.007813,2025-04-03T22:12:34.568-05:00
64.000000,251.179853,0.653028,7.258931,44.937224,278.589853,180.129593,2.197664,3.000000,-93.177269,12.988976,2025-04-03T22:12:35.999-05:00,-0.250268,-0.965929,0.014822,2025-04-03T22:12:35.569-05:00,0.007907,0.015077,-0.023551,2025-04-03T22:12:35.573-05:00
65.000000,251.270361,0.658484,7.258954,44.937109,278.680361,180.129593,2.155248,3.000000,-93.177262,12.923376,2025-04-03T22:12:36.999-05:00,-0.245933,-0.962743,0.025002,2025-04-03T22:12:36.574-05:00,0.042422,0.053480,0.073932,2025-04-03T22:12:36.568-05:00
66.000000,251.822655,0.657039,7.257065,44.936988,279.232655,180.129593,2.095149,3.000000,-93.177270,13.251027,2025-04-03T22:12:37.999-05:00,-0.240201,-0.962894,0.001363,2025-04-03T22:12:37.569-05:00,0.166514,0.016775,-0.052337,2025-04-03T22:12:37.572-05:00
67.000000,250.545975,0.655461,7.251269,44.936872,277.955975,180.000000,2.047402,3.000000,-93.177275,13.121107,2025-04-03T22:12:38.999-05:00,-0.254475,-0.975927,0.000635,2025-04-03T22:12:38.573-05:00,-0.012511,-0.066453,-0.114075,2025-04-03T22:12:38.567-05:00
68.000000,250.863049,0.687810,7.258673,44.936745,278.273049,180.000000,3.119308,3.401247,-93.177279,13.725281,2025-04-03T22:12:39.999-05:00,-0.243270,-0.963712,0.008411,2025-04-03T22:12:39.568-05:00,0.027906,0.063362,-0.066603,2025-04-03T22:12:39.572-05:00
69.000000,250.996961,0.671857,7.258946,44.936629,278.406961,180.000000,2.553474,3.000000,-93.177269,13.369005,2025-04-03T22:12:40.999-05:00,-0.251976,-0.967428,0.013394,2025-04-03T22:12:40.573-05:00,0.035752,-0.017753,0.068559,2025-04-03T22:12:40.566-05:00
70.000000,251.619242,0.693784,7.257929,44.936503,279.029242,180.115829,2.268079,3.000000,-93.177276,13.597240,2025-04-03T22:12:41.999-05:00,-0.252846,-0.971052,0.002905,2025-04-03T22:12:41.567-05:00,-0.043029,-0.029052,-0.012325,2025-04-03T22:12:41.571-05:00
71.000000,251.281470,0.674790,7.258930,44.936381,278.691470,180.115845,2.130359,3.000000,-93.177275,13.633617,2025-04-03T22:12:42.999-05:00,-0.243033,-0.958374,0.010990,2025-04-03T22:12:42.572-05:00,0.028131,0.108602,-0.003517,2025-04-03T22:12:42.566-05:00
72.000000,252.459243,0.821433,7.254540,44.936260,279.869243,180.115845,2.523454,3.000000,-93.177274,13.562997,2025-04-03T22:12:43.999-05:00,-0.256830,-0.977219,-0.000185,2025-04-03T22:12:43.567-05:00,-0.132753,-0.050530,-0.051733,2025-04-03T22:12:43.570-05:00
73.000000,250.505266,0.933594,7.252916,44.936162,277.915265,180.115845,2.611968,3.000000,-93.177267,12.310589,2025-04-03T22:12:44.999-05:00,-0.245837,-0.929231,-0.014177,2025-04-03T22:12:44.571-05:00,0.076753,0.348874,-0.149924,2025-04-03T22:12:44.565-05:00
74.000000,251.625339,0.667264,7.258949,44.936017,279.035339,180.115845,2.327736,3.000000,-93.177272,13.660647,2025-04-03T22:12:45.999-05:00,-0.279509,-0.988882,0.025197,2025-04-03T22:12:45.566-05:00,-0.176584,-0.234201,0.031792,2025-04-03T22:12:45.570-05:00
75.000000,251.518519,0.655258,7.258957,44.935897,278.928519,180.000000,2.158643,3.000000,-93.177269,13.413355,2025-04-03T22:12:46.999-05:00,-0.267935,-0.963027,-0.007611,2025-04-03T22:12:46.571-05:00,-0.204170,0.058990,-0.098124,2025-04-03T22:12:46.574-05:00
76.000000,251.868406,0.658081,7.258691,44.935778,279.278406,180.000000,2.077763,3.000000,-93.177276,13.228640,2025-04-03T22:12:47.999-05:00,-0.245381,-0.964457,-0.002191,2025-04-03T22:12:47.565-05:00,0.025413,0.040954,-0.041168,2025-04-03T22:12:47.569-05:00
77.000000,252.038248,0.658311,7.258728,44.935658,279.448248,180.000000,2.191113,3.000000,-93.177266,13.247429,2025-04-03T22:12:48.999-05:00,-0.237699,-0.963685,0.002028,2025-04-03T22:12:48.570-05:00,0.106078,0.047291,-0.008350,2025-04-03T22:12:48.574-05:00
78.000000,252.015906,0.658127,7.258974,44.935539,279.425906,180.000000,2.094418,3.000000,-93.177261,13.236256,2025-04-03T22:12:49.999-05:00,-0.255238,-0.969196,0.009243,2025-04-03T22:12:49.565-05:00,-0.048466,-0.008264,0.061869,2025-04-03T22:12:49.568-05:00
79.000000,252.194977,0.653293,7.258771,44.935417,279.604977,180.000000,2.046486,3.000000,-93.177273,13.406729,2025-04-03T22:12:50.999-05:00,-0.254301,-0.968113,0.010743,2025-04-03T22:12:50.569-05:00,-0.038235,0.002000,0.080702,2025-04-03T22:12:50.573-05:00
80.000000,252.384653,0.656554,7.258696,44.935297,279.794653,180.000000,2.022739,3.000000,-93.177271,13.334424,2025-04-03T22:12:51.999-05:00,-0.257324,-0.964491,0.025275,2025-04-03T22:12:51.574-05:00,-0.135863,0.049521,0.182136,2025-04-03T22:12:51.568-05:00
81.000000,252.697646,0.748352,7.257620,44.935182,280.107645,180.000000,3.409793,3.064178,-93.177264,12.863270,2025-04-03T22:12:52.999-05:00,-0.268563,-0.949015,0.006729,2025-04-03T22:12:52.569-05:00,-0.046510,0.150484,0.118702,2025-04-03T22:12:52.572-05:00
82.000000,253.201484,0.884258,7.257688,44.935067,280.611484,180.247818,3.683519,3.000000,-93.177275,12.603832,2025-04-03T22:12:53.999-05:00,-0.266487,-0.967734,0.022802,2025-04-03T22:12:53.573-05:00,-0.162091,0.008827,0.100405,2025-04-03T22:12:53.567-05:00
83.000000,252.866630,0.663978,7.258843,44.934945,280.276630,180.247818,2.828447,3.000000,-93.177257,12.916317,2025-04-03T22:12:54.999-05:00,-0.285666,-0.959795,-0.015028,2025-04-03T22:12:54.568-05:00,-0.312408,0.070363,-0.112066,2025-04-03T22:12:54.572-05:00
84.000000,253.413741,0.667678,7.257731,44.934825,280.823741,180.247818,2.528324,3.000000,-93.177246,13.077554,2025-04-03T22:12:55.999-05:00,-0.315650,-0.944695,-0.061871,2025-04-03T22:12:55.573-05:00,-0.585104,0.218636,-0.523306,2025-04-03T22:12:55.566-05:00
85.000000,252.744518,0.681868,7.257485,44.934719,280.154518,180.247818,2.308951,3.000000,-93.177248,12.215596,2025-04-03T22:12:56.999-05:00,-0.359006,-0.938091,-0.054808,2025-04-03T22:12:56.567-05:00,-0.991415,0.270836,-0.427071,2025-04-03T22:12:56.571-05:00
86.000000,253.132516,0.664385,7.258973,44.934618,280.542516,180.000000,2.286589,3.000000,-93.177259,11.354144,2025-04-03T22:12:57.999-05:00,-0.391919,-0.930411,-0.054612,2025-04-03T22:12:57.572-05:00,-1.290625,0.346816,-0.352958,2025-04-03T22:12:57.566-05:00
87.000000,253.602844,0.665801,7.256274,44.934531,281.012844,178.859441,2.156973,3.000000,-93.177245,10.040098,2025-04-03T22:12:58.999-05:00,-0.400985,-0.928404,-0.062474,2025-04-03T22:12:58.567-05:00,-1.372821,0.354378,-0.414217,2025-04-03T22:12:58.571-05:00
88.000000,,,,,,,,,,,,-0.406534,-0.937237,-0.064149,2025-04-03T22:12:59.571-05:00,-1.324914,0.268833,-0.382452,2025-04-03T22:12:59.565-05:00
