seconds_elapsed,location_altitude,location_speedAccuracy,location_bearingAccuracy,location_latitude,location_altitudeAboveMeanSeaLevel,location_bearing,location_horizontalAccuracy,location_verticalAccuracy,location_longitude,location_speed,location_local_time,accelerometerUncalibrated_z,accelerometerUncalibrated_y,accelerometerUncalibrated_x,accelerometerUncalibrated_local_time,accelerometer_z,accelerometer_y,accelerometer_x,accelerometer_local_time
0.000000,260.790416,-0.632500,0.143768,44.934153,288.200416,2.501953,141.874661,4.250000,-93.166975,0.855000,2025-04-03T22:15:05.613-05:00,-0.208528,-0.976189,0.060989,2025-04-03T22:15:05.612-05:00,0.171521,-0.023201,0.392796,2025-04-03T22:15:05.615-05:00
1.000000,262.365479,1.130000,11.456677,44.934498,289.775478,14.765625,5.018246,4.000000,-93.167018,6.420000,2025-04-03T22:15:06.999-05:00,-0.171823,-0.987964,0.021966,2025-04-03T22:15:06.596-05:00,0.458947,-0.124302,0.041755,2025-04-03T22:15:06.600-05:00
2.000000,261.986511,0.370000,3.071562,44.934558,289.396511,0.150172,3.803991,4.000000,-93.167022,6.420000,2025-04-03T22:15:07.999-05:00,-0.170248,-0.992379,0.028201,2025-04-03T22:15:07.601-05:00,0.370789,-0.135983,0.058217,2025-04-03T22:15:07.595-05:00
3.000000,261.712158,0.060000,0.492645,44.934614,289.122158,359.502319,3.535534,3.000000,-93.167010,7.970000,2025-04-03T22:15:08.999-05:00,-0.172398,-0.987853,0.021953,2025-04-03T22:15:08.596-05:00,0.300550,-0.082927,-0.061748,2025-04-03T22:15:08.600-05:00
4.000000,260.787354,0.190000,1.355483,44.934702,288.197353,359.502319,3.535534,3.000000,-93.167020,8.700000,2025-04-03T22:15:09.999-05:00,-0.199034,-0.977410,0.019130,2025-04-03T22:15:09.600-05:00,0.069589,-0.002400,-0.136626,2025-04-03T22:15:09.594-05:00
5.000000,261.250732,0.270000,1.768409,44.934794,288.660732,0.000000,3.535534,3.000000,-93.167018,9.870000,2025-04-03T22:15:10.999-05:00,-0.189869,-0.983896,0.026628,2025-04-03T22:15:10.595-05:00,0.107595,-0.042635,-0.129479,2025-04-03T22:15:10.599-05:00
6.000000,261.738464,0.470000,3.006444,44.934889,289.148464,0.000000,3.535534,3.000000,-93.167011,10.280000,2025-04-03T22:15:11.999-05:00,-0.192714,-0.983132,0.029841,2025-04-03T22:15:11.600-05:00,0.093544,-0.053420,-0.112182,2025-04-03T22:15:11.594-05:00
7.000000,261.957031,0.940000,5.441115,44.934984,289.367031,0.000000,3.535534,3.000000,-93.167009,10.280000,2025-04-03T22:15:12.999-05:00,-0.201634,-0.978322,0.027483,2025-04-03T22:15:12.595-05:00,0.009892,-0.006249,-0.126931,2025-04-03T22:15:12.598-05:00
8.000000,262.506104,0.320000,1.825266,44.935084,289.916103,0.000000,3.535534,3.000000,-93.167003,10.800000,2025-04-03T22:15:13.999-05:00,-0.200615,-0.979761,0.023718,2025-04-03T22:15:13.599-05:00,-0.031807,0.004819,-0.134361,2025-04-03T22:15:13.593-05:00
9.000000,262.281616,0.150000,0.814581,44.935191,289.691616,0.000000,3.535534,3.000000,-93.167005,11.860000,2025-04-03T22:15:14.999-05:00,-0.200237,-0.978550,0.019629,2025-04-03T22:15:14.594-05:00,-0.007666,-0.000381,-0.123162,2025-04-03T22:15:14.598-05:00
10.000000,262.474976,1.380000,5.683698,44.935303,289.884975,0.000000,3.535534,3.000000,-93.167007,12.230000,2025-04-03T22:15:15.999-05:00,-0.213732,-0.980410,0.040676,2025-04-03T22:15:15.599-05:00,-0.107985,-0.012196,-0.048404,2025-04-03T22:15:15.592-05:00
11.000000,262.133118,1.820000,5.475766,44.935422,289.543118,0.000000,3.535534,3.000000,-93.167001,12.230000,2025-04-03T22:15:16.999-05:00,-0.209992,-0.972186,0.029238,2025-04-03T22:15:16.593-05:00,-0.113885,0.071898,-0.136215,2025-04-03T22:15:16.597-05:00
12.000000,261.974609,1.650000,5.165952,44.935541,289.384609,0.000000,3.535534,3.000000,-93.166969,12.920000,2025-04-03T22:15:17.999-05:00,-0.212779,-0.977449,0.023763,2025-04-03T22:15:17.598-05:00,-0.138492,0.013400,-0.149919,2025-04-03T22:15:17.592-05:00
13.000000,261.974623,1.650000,10.348063,44.935656,289.384622,0.000000,4.748652,4.029364,-93.166947,12.920000,2025-04-03T22:15:18.999-05:00,-0.223026,-0.970210,0.020471,2025-04-03T22:15:18.593-05:00,-0.231746,0.088938,-0.171005,2025-04-03T22:15:18.596-05:00
14.000000,260.998183,1.770000,10.759219,44.935789,288.408183,0.230502,4.748652,4.029364,-93.166961,13.330000,2025-04-03T22:15:19.999-05:00,-0.234961,-0.972468,0.017223,2025-04-03T22:15:19.597-05:00,-0.308528,0.057952,-0.169188,2025-04-03T22:15:19.601-05:00
15.000000,260.716079,1.770000,10.568931,44.935915,288.126079,0.230502,4.748652,4.029364,-93.166985,13.570000,2025-04-03T22:15:20.999-05:00,-0.232531,-0.966754,0.001817,2025-04-03T22:15:20.592-05:00,-0.301311,0.120628,-0.188415,2025-04-03T22:15:20.596-05:00
16.000000,260.782973,1.560000,9.314990,44.936041,288.192973,0.230502,4.748652,4.029364,-93.167022,13.570000,2025-04-03T22:15:21.999-05:00,-0.233976,-0.972013,0.007543,2025-04-03T22:15:21.597-05:00,-0.308902,0.067515,-0.098654,2025-04-03T22:15:21.601-05:00
17.000000,260.943496,2.330000,13.912773,44.936161,288.353496,0.230502,4.748652,4.029364,-93.167017,13.570000,2025-04-03T22:15:22.999-05:00,-0.232259,-0.970048,-0.011088,2025-04-03T22:15:22.592-05:00,-0.271507,0.089694,-0.186953,2025-04-03T22:15:22.595-05:00
18.000000,261.233903,1.070000,7.258975,44.936301,288.643903,359.878601,4.748652,4.029364,-93.167004,14.300000,2025-04-03T22:15:23.999-05:00,-0.247413,-0.969328,-0.004059,2025-04-03T22:15:23.596-05:00,-0.398578,0.088951,-0.186301,2025-04-03T22:15:23.600-05:00
19.000000,261.773926,0.300000,1.386399,44.936422,289.183926,359.878601,3.535534,3.000000,-93.167004,14.130000,2025-04-03T22:15:24.999-05:00,-0.246207,-0.965101,-0.001586,2025-04-03T22:15:24.601-05:00,-0.349832,0.117690,-0.198752,2025-04-03T22:15:24.595-05:00
20.000000,261.773942,0.308016,7.258975,44.936549,289.183941,359.878601,4.748652,4.029364,-93.167004,14.130000,2025-04-03T22:15:25.999-05:00,-0.244451,-0.969846,0.002525,2025-04-03T22:15:25.596-05:00,-0.299140,0.065729,-0.174980,2025-04-03T22:15:25.599-05:00
21.000000,261.720108,0.308016,7.258975,44.936674,289.130108,0.133633,4.748652,4.029364,-93.167001,14.030000,2025-04-03T22:15:26.999-05:00,-0.239584,-0.968768,0.014839,2025-04-03T22:15:26.600-05:00,-0.237560,0.075032,-0.127400,2025-04-03T22:15:26.594-05:00
22.000000,262.096878,0.308017,7.258975,44.936800,289.506878,0.133633,4.748652,4.029364,-93.167000,14.070000,2025-04-03T22:15:27.999-05:00,-0.236042,-0.973250,0.009575,2025-04-03T22:15:27.595-05:00,-0.199721,0.031631,-0.111070,2025-04-03T22:15:27.599-05:00
23.000000,262.454117,1.300000,7.486639,44.936926,289.864117,0.133633,4.748652,4.029364,-93.166999,14.070000,2025-04-03T22:15:28.999-05:00,-0.242919,-0.966322,-0.002161,2025-04-03T22:15:28.600-05:00,-0.277593,0.096152,-0.124422,2025-04-03T22:15:28.593-05:00
24.000000,262.560196,0.510000,7.258975,44.937055,289.970196,0.679115,4.748652,4.029364,-93.167002,14.070000,2025-04-03T22:15:29.999-05:00,-0.231893,-0.971407,-0.003671,2025-04-03T22:15:29.594-05:00,-0.183350,0.078801,-0.138089,2025-04-03T22:15:29.598-05:00
25.000000,262.779801,0.308016,7.258975,44.937185,290.189801,359.884857,4.748652,4.029364,-93.167002,14.270000,2025-04-03T22:15:30.999-05:00,-0.242838,-0.967364,0.023669,2025-04-03T22:15:30.599-05:00,-0.131670,0.028244,-0.056439,2025-04-03T22:15:30.593-05:00
26.000000,262.952286,0.308016,7.258975,44.937313,290.362286,359.884857,4.748652,4.029364,-93.166996,14.230000,2025-04-03T22:15:31.999-05:00,-0.241063,-0.972557,0.025485,2025-04-03T22:15:31.594-05:00,-0.190537,0.033749,-0.057075,2025-04-03T22:15:31.598-05:00
27.000000,263.244645,0.560000,7.258975,44.937444,290.654645,359.884857,4.748652,4.029364,-93.166994,14.400000,2025-04-03T22:15:32.999-05:00,-0.246671,-0.964878,0.027433,2025-04-03T22:15:32.598-05:00,-0.177377,0.068211,-0.017706,2025-04-03T22:15:32.592-05:00
28.000000,263.239884,0.308016,7.258975,44.937573,290.649884,359.884857,4.748652,4.029364,-93.166994,14.400000,2025-04-03T22:15:33.999-05:00,-0.242896,-0.969936,0.016752,2025-04-03T22:15:33.593-05:00,-0.172760,0.046505,-0.100423,2025-04-03T22:15:33.597-05:00
29.000000,263.359086,1.400000,7.834244,44.937702,290.769086,0.565801,4.748652,4.029364,-93.166974,14.480000,2025-04-03T22:15:34.999-05:00,-0.243676,-0.966723,0.011955,2025-04-03T22:15:34.598-05:00,-0.148160,0.057801,-0.088172,2025-04-03T22:15:34.592-05:00
30.000000,262.686296,1.570000,8.737273,44.937835,290.096296,0.000000,4.748652,4.029364,-93.166966,14.560000,2025-04-03T22:15:35.999-05:00,-0.253594,-0.956875,0.008167,2025-04-03T22:15:35.593-05:00,-0.228342,0.159914,-0.075857,2025-04-03T22:15:35.596-05:00
31.000000,263.716691,0.400000,7.258975,44.937961,291.126691,0.000000,4.748652,4.029364,-93.166994,14.560000,2025-04-03T22:15:36.999-05:00,-0.254620,-0.939572,-0.000054,2025-04-03T22:15:36.597-05:00,-0.161485,0.308607,-0.077775,2025-04-03T22:15:36.601-05:00
32.000000,263.707292,0.308016,7.258975,44.938087,291.117291,0.000000,4.748652,4.029364,-93.166992,14.370000,2025-04-03T22:15:37.999-05:00,-0.255728,-0.961417,-0.004434,2025-04-03T22:15:37.592-05:00,-0.027385,0.058899,-0.140291,2025-04-03T22:15:37.596-05:00
33.000000,265.340254,1.266940,7.258974,44.938193,292.750254,0.000000,2.000000,3.000000,-93.167007,14.253411,2025-04-03T22:15:38.999-05:00,-0.275681,-0.959697,0.000698,2025-04-03T22:15:38.597-05:00,-0.171321,0.057189,-0.116626,2025-04-03T22:15:38.600-05:00
34.000000,265.062400,1.269197,7.258974,44.938323,292.472400,0.435840,2.000000,3.000000,-93.167008,14.245383,2025-04-03T22:15:39.999-05:00,-0.297840,-0.953452,-0.008767,2025-04-03T22:15:39.601-05:00,-0.400190,0.128488,-0.253040,2025-04-03T22:15:39.595-05:00
35.000000,264.670661,1.270482,7.258960,44.938452,292.080661,0.435840,2.047339,3.000000,-93.167009,14.249991,2025-04-03T22:15:40.999-05:00,-0.299552,-0.953270,0.006643,2025-04-03T22:15:40.596-05:00,-0.384240,0.121322,-0.124607,2025-04-03T22:15:40.600-05:00
36.000000,264.661027,1.270767,7.367488,44.938576,292.071026,0.435840,2.022368,3.000000,-93.167009,13.974980,2025-04-03T22:15:41.999-05:00,-0.304152,-0.952914,-0.001013,2025-04-03T22:15:41.601-05:00,-0.406055,0.112291,-0.169213,2025-04-03T22:15:41.595-05:00
37.000000,264.588449,1.271119,7.526909,44.938699,291.998449,0.435840,2.010682,3.000000,-93.167008,13.683062,2025-04-03T22:15:42.999-05:00,-0.302605,-0.952688,0.003661,2025-04-03T22:15:42.595-05:00,-0.368318,0.116971,-0.142336,2025-04-03T22:15:42.599-05:00
38.000000,264.373371,1.272328,7.751188,44.938815,291.783371,0.435840,2.005256,3.000000,-93.166997,13.298872,2025-04-03T22:15:43.999-05:00,-0.299530,-0.954055,0.007897,2025-04-03T22:15:43.600-05:00,-0.360242,0.098028,-0.084792,2025-04-03T22:15:43.594-05:00
39.000000,264.874154,0.665633,7.258171,44.938923,292.284154,0.283034,2.002662,3.000000,-93.167002,12.671599,2025-04-03T22:15:44.999-05:00,-0.299406,-0.957673,-0.003066,2025-04-03T22:15:44.595-05:00,-0.379732,0.066265,-0.113208,2025-04-03T22:15:44.599-05:00
40.000000,264.513129,0.663661,7.258922,44.939040,291.923129,0.283034,2.001335,3.000000,-93.167006,12.643090,2025-04-03T22:15:45.999-05:00,-0.290052,-0.948832,-0.028008,2025-04-03T22:15:45.600-05:00,-0.254363,0.158114,-0.147172,2025-04-03T22:15:45.593-05:00
41.000000,264.251574,0.661776,7.258211,44.939143,291.661574,0.225609,2.082350,3.000000,-93.167004,11.966565,2025-04-03T22:15:46.999-05:00,-0.298851,-0.946616,-0.002039,2025-04-03T22:15:46.594-05:00,-0.250437,0.141096,-0.042275,2025-04-03T22:15:46.598-05:00
42.000000,263.645332,0.663590,7.255002,44.939249,291.055332,0.225609,2.043198,3.000000,-93.167004,11.760592,2025-04-03T22:15:47.999-05:00,-0.300803,-0.958214,-0.018400,2025-04-03T22:15:47.599-05:00,-0.258722,0.045559,-0.206986,2025-04-03T22:15:47.593-05:00
43.000000,263.514772,0.661126,7.256767,44.939352,290.924772,0.225609,2.022854,3.000000,-93.166986,11.446997,2025-04-03T22:15:48.999-05:00,-0.349531,-0.939651,-0.024360,2025-04-03T22:15:48.594-05:00,-0.716129,0.206518,-0.263586,2025-04-03T22:15:48.597-05:00
44.000000,264.127483,0.680795,7.257580,44.939453,291.537483,359.584412,2.031932,3.000000,-93.167003,11.192972,2025-04-03T22:15:49.999-05:00,-0.370116,-0.935162,-0.024306,2025-04-03T22:15:49.598-05:00,-0.848462,0.235292,-0.245441,2025-04-03T22:15:49.592-05:00
45.000000,263.517731,0.666441,7.257578,44.939543,290.927731,0.000000,2.333102,3.000000,-93.167009,10.469902,2025-04-03T22:15:50.999-05:00,-0.392686,-0.929747,-0.031735,2025-04-03T22:15:50.593-05:00,-1.027321,0.268207,-0.290208,2025-04-03T22:15:50.597-05:00
46.000000,262.797107,0.690699,7.241133,44.939623,290.207107,359.692200,2.190828,3.000000,-93.166988,9.485275,2025-04-03T22:15:51.999-05:00,-0.401207,-0.930287,-0.032246,2025-04-03T22:15:51.598-05:00,-1.042414,0.253859,-0.273862,2025-04-03T22:15:51.592-05:00
47.000000,262.874465,0.665686,7.253696,44.939680,290.284465,359.692200,2.116581,3.000000,-93.167007,7.630221,2025-04-03T22:15:52.999-05:00,-0.394819,-0.925427,-0.025015,2025-04-03T22:15:52.592-05:00,-0.859302,0.256648,-0.230687,2025-04-03T22:15:52.596-05:00
48.000000,262.535724,0.664963,8.413452,44.939734,289.945724,359.692200,2.144852,3.000000,-93.167008,6.353503,2025-04-03T22:15:53.999-05:00,-0.375224,-0.931897,-0.026196,2025-04-03T22:15:53.597-05:00,-0.607193,0.173869,-0.197132,2025-04-03T22:15:53.601-05:00
49.000000,262.439327,0.669904,11.040475,44.939771,289.849327,359.692200,2.108639,3.000000,-93.167003,4.833627,2025-04-03T22:15:54.999-05:00,-0.365738,-0.937826,-0.024860,2025-04-03T22:15:54.592-05:00,-0.499846,0.111379,-0.173611,2025-04-03T22:15:54.596-05:00
50.000000,262.565859,0.667373,13.470603,44.939805,289.975859,0.000000,2.086911,3.000000,-93.167006,3.985637,2025-04-03T22:15:55.999-05:00,-0.372240,-0.931637,-0.023092,2025-04-03T22:15:55.597-05:00,-0.522268,0.158964,-0.159862,2025-04-03T22:15:55.600-05:00
51.000000,262.652416,0.669714,16.832208,44.939832,290.062416,0.000000,2.072426,3.000000,-93.167006,3.221922,2025-04-03T22:15:56.999-05:00,-0.360833,-0.938239,-0.022957,2025-04-03T22:15:56.601-05:00,-0.373460,0.080854,-0.155828,2025-04-03T22:15:56.595-05:00
52.000000,262.550299,0.672040,25.090871,44.939847,289.960298,0.000000,2.062079,3.000000,-93.167004,2.147590,2025-04-03T22:15:57.999-05:00,-0.320683,-0.947730,-0.007745,2025-04-03T22:15:57.596-05:00,0.037052,-0.018840,-0.018684,2025-04-03T22:15:57.600-05:00
53.000000,262.969580,0.781691,32.646375,44.939857,290.379580,0.000000,2.054320,3.000000,-93.167004,1.469979,2025-04-03T22:15:58.999-05:00,-0.300813,-0.953871,-0.003067,2025-04-03T22:15:58.601-05:00,0.235780,-0.078671,0.023083,2025-04-03T22:15:58.594-05:00
54.000000,263.008891,0.779879,51.593194,44.939864,290.418890,0.000000,2.048284,3.000000,-93.167005,0.938964,2025-04-03T22:15:59.999-05:00,-0.227477,-0.972290,0.015807,2025-04-03T22:15:59.595-05:00,0.921823,-0.250021,0.195414,2025-04-03T22:15:59.599-05:00
55.000000,263.115173,0.877737,38.823954,44.939875,290.525173,0.000000,2.063784,3.000000,-93.167007,1.106374,2025-04-03T22:16:00.999-05:00,-0.195044,-0.981193,0.024165,2025-04-03T22:16:00.600-05:00,1.199290,-0.322139,0.260579,2025-04-03T22:16:00.594-05:00
56.000000,262.886866,0.673474,34.351823,44.939891,290.296866,0.000000,2.057986,3.000000,-93.167007,1.577665,2025-04-03T22:16:01.999-05:00,-0.127904,-0.998192,0.039411,2025-04-03T22:16:01.595-05:00,1.780178,-0.466035,0.405091,2025-04-03T22:16:01.598-05:00
57.000000,262.881370,0.669377,19.597633,44.939920,290.291370,0.000000,2.071788,3.000000,-93.167007,2.756824,2025-04-03T22:16:02.999-05:00,-0.138121,-0.994948,0.038578,2025-04-03T22:16:02.599-05:00,1.616541,-0.409994,0.378511,2025-04-03T22:16:02.593-05:00
58.000000,262.824351,0.664583,12.839897,44.939963,290.234351,0.000000,2.066266,3.000000,-93.167007,4.171962,2025-04-03T22:16:03.999-05:00,-0.147430,-0.994632,0.028352,2025-04-03T22:16:03.594-05:00,1.465780,-0.388084,0.327704,2025-04-03T22:16:03.598-05:00
59.000000,262.739752,0.663464,9.805043,44.940017,290.149752,0.000000,2.095988,3.000000,-93.167004,5.468350,2025-04-03T22:16:04.999-05:00,-0.159180,-0.992404,0.015620,2025-04-03T22:16:04.599-05:00,1.238572,-0.333604,0.281332,2025-04-03T22:16:04.593-05:00
60.000000,262.886415,0.657931,8.154880,44.940079,290.296414,0.000000,2.089589,3.000000,-93.167002,6.535831,2025-04-03T22:16:05.999-05:00,-0.147967,-0.989581,0.015028,2025-04-03T22:16:05.594-05:00,1.281238,-0.303130,0.309988,2025-04-03T22:16:05.597-05:00
61.000000,262.750590,0.657353,7.258858,44.940150,290.160590,0.000000,2.079224,3.000000,-93.167000,7.528575,2025-04-03T22:16:06.999-05:00,-0.146910,-0.981403,0.017494,2025-04-03T22:16:06.598-05:00,1.257397,-0.185966,0.320194,2025-04-03T22:16:06.592-05:00
62.000000,262.558632,0.661693,7.257619,44.940232,289.968631,0.195500,2.095799,3.000000,-93.166998,8.660450,2025-04-03T22:16:07.999-05:00,-0.171970,-0.988828,0.032598,2025-04-03T22:16:07.593-05:00,1.100792,-0.292732,0.286174,2025-04-03T22:16:07.597-05:00
63.000000,262.374882,0.665590,7.256542,44.940322,289.784882,0.195500,2.226939,3.000000,-93.166998,9.683872,2025-04-03T22:16:08.999-05:00,-0.186743,-0.986821,0.035862,2025-04-03T22:16:08.598-05:00,0.874704,-0.252799,0.241675,2025-04-03T22:16:08.601-05:00
64.000000,262.409731,0.667176,7.258579,44.940421,289.819731,0.195500,2.137475,3.000000,-93.166999,10.586125,2025-04-03T22:16:09.999-05:00,-0.208691,-0.977705,0.025277,2025-04-03T22:16:09.592-05:00,0.574708,-0.137115,0.144930,2025-04-03T22:16:09.596-05:00
65.000000,262.300304,0.664571,7.258827,44.940524,289.710304,0.195500,2.107095,3.000000,-93.166998,11.261484,2025-04-03T22:16:10.999-05:00,-0.215227,-0.976140,0.024899,2025-04-03T22:16:10.597-05:00,0.446780,-0.107245,0.131277,2025-04-03T22:16:10.601-05:00
66.000000,262.351934,0.671120,7.258939,44.940633,289.761934,0.195500,2.537170,3.000000,-93.166996,11.842434,2025-04-03T22:16:11.999-05:00,-0.252536,-0.963807,0.021106,2025-04-03T22:16:11.592-05:00,0.032225,0.028480,0.050029,2025-04-03T22:16:11.595-05:00
67.000000,262.420683,0.669316,7.258934,44.940743,289.830683,359.438293,2.940393,3.000000,-93.166997,12.099837,2025-04-03T22:16:12.999-05:00,-0.303467,-0.950852,0.050470,2025-04-03T22:16:12.596-05:00,-0.449532,0.147855,0.247635,2025-04-03T22:16:12.600-05:00
68.000000,262.367674,0.683294,7.258923,44.940854,289.777674,359.107178,2.635583,3.000000,-93.167002,12.144465,2025-04-03T22:16:13.999-05:00,-0.390335,-0.935679,0.042697,2025-04-03T22:16:13.601-05:00,-1.313357,0.297399,0.149519,2025-04-03T22:16:13.595-05:00
69.000000,262.073488,0.673293,7.258600,44.940958,289.483487,359.107178,2.416039,3.000000,-93.167012,11.593739,2025-04-03T22:16:14.999-05:00,-0.363437,-0.931111,0.007610,2025-04-03T22:16:14.596-05:00,-1.048370,0.342198,-0.117951,2025-04-03T22:16:14.599-05:00
70.000000,261.804396,0.673333,7.256742,44.941046,289.214396,0.206402,2.227065,3.000000,-93.166993,10.438451,2025-04-03T22:16:15.999-05:00,-0.324345,-0.943181,-0.036750,2025-04-03T22:16:15.600-05:00,-0.716901,0.244317,-0.431079,2025-04-03T22:16:15.594-05:00
71.000000,261.888019,0.677383,7.258844,44.941129,289.298019,0.206402,3.795415,3.000000,-93.166993,9.714431,2025-04-03T22:16:16.999-05:00,-0.298811,-0.955823,-0.064602,2025-04-03T22:16:16.595-05:00,-0.471452,0.124140,-0.538950,2025-04-03T22:16:16.599-05:00
72.000000,261.660504,0.667562,7.258647,44.941208,289.070504,0.206402,4.263581,3.000000,-93.166993,9.153698,2025-04-03T22:16:17.999-05:00,-0.344924,-0.932424,-0.065275,2025-04-03T22:16:17.600-05:00,-0.905515,0.329353,-0.451163,2025-04-03T22:16:17.594-05:00
