seconds_elapsed,location_altitude,location_speedAccuracy,location_bearingAccuracy,location_latitude,location_altitudeAboveMeanSeaLevel,location_bearing,location_horizontalAccuracy,location_verticalAccuracy,location_longitude,location_speed,location_local_time,accelerometerUncalibrated_z,accelerometerUncalibrated_y,accelerometerUncalibrated_x,accelerometerUncalibrated_local_time,accelerometer_z,accelerometer_y,accelerometer_x,accelerometer_local_time
0.000000,259.406499,2.423470,61.130907,44.934344,286.816499,300.463347,2.440980,3.000000,-93.171096,3.210222,2025-04-03T22:19:46.999-05:00,-0.147871,-0.985146,-0.106510,2025-04-03T22:19:46.879-05:00,0.629839,-0.085844,-0.785320,2025-04-03T22:19:46.893-05:00
1.000000,259.304185,2.375274,51.479747,44.934387,286.714185,328.757903,2.464023,3.000000,-93.171107,3.737014,2025-04-03T22:19:47.999-05:00,-0.136844,-0.995956,-0.021561,2025-04-03T22:19:47.864-05:00,0.529366,-0.146888,-0.072452,2025-04-03T22:19:47.858-05:00
2.000000,259.057157,2.222542,35.202277,44.934445,286.467157,353.751065,2.440822,3.000000,-93.171097,5.115684,2025-04-03T22:19:48.999-05:00,-0.160997,-0.990707,-0.005242,2025-04-03T22:19:48.859-05:00,0.401896,-0.111760,0.166023,2025-04-03T22:19:48.863-05:00
3.000000,259.096211,2.150308,29.305473,44.934502,286.506211,359.913330,3.983942,3.000000,-93.171044,5.906269,2025-04-03T22:19:49.999-05:00,-0.164125,-0.983850,-0.001458,2025-04-03T22:19:49.863-05:00,0.288462,-0.029103,0.238064,2025-04-03T22:19:49.867-05:00
4.000000,259.207183,2.071861,24.826484,44.934566,286.617183,359.913330,4.034346,3.000000,-93.171044,6.749130,2025-04-03T22:19:50.999-05:00,-0.181010,-0.980940,0.000699,2025-04-03T22:19:50.858-05:00,0.081073,0.006920,0.231579,2025-04-03T22:19:50.862-05:00
5.000000,259.055014,2.014118,21.970025,44.934635,286.465014,359.913330,3.897066,3.000000,-93.171044,7.428244,2025-04-03T22:19:51.999-05:00,-0.219793,-0.970939,-0.003317,2025-04-03T22:19:51.863-05:00,-0.279064,0.100020,0.132004,2025-04-03T22:19:51.867-05:00
6.000000,259.164638,1.989611,20.874938,44.934707,286.574638,359.913330,4.000863,3.000000,-93.171044,7.717712,2025-04-03T22:19:52.999-05:00,-0.214204,-0.975124,-0.028054,2025-04-03T22:19:52.858-05:00,-0.252452,0.065232,-0.064634,2025-04-03T22:19:52.861-05:00
7.000000,259.021322,1.975858,20.184225,44.934780,286.431322,359.913330,4.164100,3.000000,-93.171044,7.924327,2025-04-03T22:19:53.999-05:00,-0.227734,-0.973575,-0.031875,2025-04-03T22:19:53.862-05:00,-0.465690,0.123254,-0.065244,2025-04-03T22:19:53.866-05:00
8.000000,259.125172,1.955995,19.563276,44.934854,286.535171,359.913330,4.271410,3.000000,-93.171044,8.101397,2025-04-03T22:19:54.999-05:00,-0.231390,-0.968672,-0.005639,2025-04-03T22:19:54.867-05:00,-0.409728,0.100270,0.049313,2025-04-03T22:19:54.861-05:00
9.000000,259.285071,1.958865,19.402307,44.934930,286.695070,359.913330,4.143605,3.000000,-93.171045,8.180585,2025-04-03T22:19:55.999-05:00,-0.215509,-0.977727,-0.006619,2025-04-03T22:19:55.862-05:00,-0.277333,0.010559,0.023271,2025-04-03T22:19:55.865-05:00
10.000000,259.622341,1.951745,18.981766,44.935007,287.032341,359.913330,4.261290,3.000000,-93.171045,8.309210,2025-04-03T22:19:56.999-05:00,-0.219765,-0.966237,-0.012134,2025-04-03T22:19:56.866-05:00,-0.255754,0.174814,-0.032958,2025-04-03T22:19:56.860-05:00
11.000000,259.578788,1.959646,18.851171,44.935083,286.988788,359.913330,4.044330,3.000000,-93.171045,8.420876,2025-04-03T22:19:57.999-05:00,-0.239923,-0.973379,-0.006707,2025-04-03T22:19:57.861-05:00,-0.375790,0.067792,0.052029,2025-04-03T22:19:57.865-05:00
12.000000,259.611818,1.933397,18.171987,44.935162,287.021818,359.913330,3.732774,3.000000,-93.171045,8.614133,2025-04-03T22:19:58.999-05:00,-0.249585,-0.958167,0.011498,2025-04-03T22:19:58.866-05:00,-0.413192,0.187264,0.185039,2025-04-03T22:19:58.860-05:00
13.000000,259.635501,1.915449,18.006176,44.935239,287.045501,359.913330,3.699971,3.000000,-93.171045,8.608661,2025-04-03T22:19:59.999-05:00,-0.266100,-0.954757,-0.004232,2025-04-03T22:19:59.860-05:00,-0.476705,0.185300,-0.023306,2025-04-03T22:19:59.864-05:00
14.000000,259.174100,1.953318,18.437442,44.935316,286.584100,359.913330,2.538746,3.000000,-93.171045,8.470150,2025-04-03T22:20:00.999-05:00,-0.275746,-0.959895,-0.017249,2025-04-03T22:20:00.865-05:00,-0.618480,0.191659,-0.093809,2025-04-03T22:20:00.859-05:00
15.000000,258.748415,1.975632,19.239634,44.935389,286.158415,359.913330,3.189269,3.000000,-93.171068,8.193698,2025-04-03T22:20:01.999-05:00,-0.272090,-0.964615,-0.018961,2025-04-03T22:20:01.860-05:00,-0.482010,0.100802,-0.057845,2025-04-03T22:20:01.864-05:00
16.000000,258.695080,1.997235,19.798982,44.935462,286.105080,359.913330,2.792088,3.000000,-93.171064,7.988500,2025-04-03T22:20:02.999-05:00,-0.253858,-0.961011,-0.042567,2025-04-03T22:20:02.865-05:00,-0.275127,0.121964,-0.151447,2025-04-03T22:20:02.858-05:00
17.000000,258.767809,1.997457,20.230178,44.935532,286.177809,359.913330,2.693492,3.000000,-93.171065,7.856537,2025-04-03T22:20:03.999-05:00,-0.259455,-0.964526,-0.017752,2025-04-03T22:20:03.859-05:00,-0.362758,0.081930,0.036455,2025-04-03T22:20:03.863-05:00
18.000000,258.779321,2.004691,20.478438,44.935602,286.189321,0.248375,2.497329,3.000000,-93.171062,7.794593,2025-04-03T22:20:04.999-05:00,-0.267511,-0.948879,-0.004478,2025-04-03T22:20:04.864-05:00,-0.425517,0.271028,0.092400,2025-04-03T22:20:04.858-05:00
19.000000,258.818164,2.006529,21.166103,44.935671,286.228164,0.248375,2.392614,3.000000,-93.171065,7.595777,2025-04-03T22:20:05.999-05:00,-0.271510,-0.966408,-0.047839,2025-04-03T22:20:05.859-05:00,-0.382746,0.055460,-0.215716,2025-04-03T22:20:05.862-05:00
20.000000,258.777641,2.011382,21.778804,44.935737,286.187641,0.248375,2.638691,3.000000,-93.171062,7.350307,2025-04-03T22:20:06.999-05:00,-0.264264,-0.954789,-0.031651,2025-04-03T22:20:06.863-05:00,-0.269840,0.161390,-0.031880,2025-04-03T22:20:06.867-05:00
21.000000,258.724414,2.063228,22.333278,44.935805,286.134414,0.248375,2.620596,3.000000,-93.171065,7.285923,2025-04-03T22:20:07.999-05:00,-0.270654,-0.965246,-0.050573,2025-04-03T22:20:07.858-05:00,-0.373528,0.064127,-0.147772,2025-04-03T22:20:07.862-05:00
22.000000,258.508524,2.047171,23.125830,44.935869,285.918524,0.248375,2.852992,3.000000,-93.171062,7.078225,2025-04-03T22:20:08.999-05:00,-0.258783,-0.957566,-0.030008,2025-04-03T22:20:08.863-05:00,-0.252552,0.133669,0.057776,2025-04-03T22:20:08.866-05:00
23.000000,258.492702,2.060027,23.395977,44.935935,285.902702,0.248375,2.703946,3.000000,-93.171063,7.013351,2025-04-03T22:20:09.999-05:00,-0.278826,-0.951989,-0.036252,2025-04-03T22:20:09.867-05:00,-0.372461,0.183740,-0.042472,2025-04-03T22:20:09.861-05:00
24.000000,258.288892,2.085400,23.886267,44.935998,285.698892,359.387695,2.541397,3.000000,-93.171057,6.910738,2025-04-03T22:20:10.999-05:00,-0.268691,-0.974183,-0.032344,2025-04-03T22:20:10.862-05:00,-0.173729,-0.064078,0.034608,2025-04-03T22:20:10.866-05:00
25.000000,258.193930,2.093652,23.935000,44.936060,285.603930,359.387695,2.507477,3.000000,-93.171059,6.842847,2025-04-03T22:20:11.999-05:00,-0.251563,-0.954097,-0.028437,2025-04-03T22:20:11.867-05:00,-0.107034,0.153587,-0.022704,2025-04-03T22:20:11.861-05:00
26.000000,258.169682,2.106475,24.781589,44.936120,285.579682,357.458099,2.486823,3.000000,-93.171060,6.722613,2025-04-03T22:20:12.999-05:00,-0.247303,-0.967567,-0.044416,2025-04-03T22:20:12.862-05:00,-0.017258,-0.010617,-0.220449,2025-04-03T22:20:12.865-05:00
27.000000,258.186551,2.054508,24.013678,44.936183,285.596550,0.000000,2.370005,3.000000,-93.171061,6.831115,2025-04-03T22:20:13.999-05:00,-0.254932,-0.973472,-0.032940,2025-04-03T22:20:13.866-05:00,-0.073469,-0.028395,0.099823,2025-04-03T22:20:13.860-05:00
28.000000,258.446785,2.083057,24.851887,44.936238,285.856785,0.000000,2.564403,3.000000,-93.171062,6.712806,2025-04-03T22:20:14.999-05:00,-0.264332,-0.958536,-0.003456,2025-04-03T22:20:14.861-05:00,-0.154796,0.103078,0.210913,2025-04-03T22:20:14.865-05:00
29.000000,258.524521,2.075399,25.065633,44.936300,285.934520,0.000000,2.529278,3.000000,-93.171056,6.677535,2025-04-03T22:20:15.999-05:00,-0.280520,-0.960263,0.008240,2025-04-03T22:20:15.866-05:00,-0.210419,0.043836,0.298667,2025-04-03T22:20:15.859-05:00
30.000000,258.561676,2.083092,25.316455,44.936361,285.971676,0.000000,2.419212,3.000000,-93.171057,6.642887,2025-04-03T22:20:16.999-05:00,-0.301267,-0.949983,0.104187,2025-04-03T22:20:16.860-05:00,-0.369212,0.138134,1.206673,2025-04-03T22:20:16.864-05:00
31.000000,258.239840,2.097241,26.468686,44.936414,285.649840,355.084656,2.408446,3.000000,-93.171067,6.374451,2025-04-03T22:20:17.999-05:00,-0.338326,-0.945241,0.169406,2025-04-03T22:20:17.865-05:00,-0.801673,0.207716,1.983368,2025-04-03T22:20:17.859-05:00
32.000000,258.266344,2.107861,27.155255,44.936478,285.676344,334.523499,2.339245,3.000000,-93.171074,6.279607,2025-04-03T22:20:18.999-05:00,-0.369237,-0.946619,0.215981,2025-04-03T22:20:18.860-05:00,-1.073809,0.164107,2.329434,2025-04-03T22:20:18.863-05:00
33.000000,258.274372,2.101242,27.061493,44.936529,285.684372,315.160431,2.363707,3.000000,-93.171140,6.281361,2025-04-03T22:20:19.999-05:00,-0.324864,-0.946820,0.188232,2025-04-03T22:20:19.864-05:00,-0.736959,0.227346,1.762770,2025-04-03T22:20:19.858-05:00
34.000000,258.144835,2.114575,27.839603,44.936522,285.554835,274.940796,2.390349,3.000000,-93.171250,6.132132,2025-04-03T22:20:20.999-05:00,-0.246630,-0.969945,0.070048,2025-04-03T22:20:20.859-05:00,-0.012619,0.020822,0.310607,2025-04-03T22:20:20.863-05:00
35.000000,258.013149,2.078831,25.579665,44.936523,285.423149,271.219452,2.429104,3.000000,-93.171337,6.550340,2025-04-03T22:20:21.999-05:00,-0.240648,-0.962942,0.004654,2025-04-03T22:20:21.864-05:00,0.028629,0.027006,-0.346188,2025-04-03T22:20:21.858-05:00
36.000000,257.837580,2.078453,23.613337,44.936525,285.247580,271.219452,2.564468,3.000000,-93.171427,6.951091,2025-04-03T22:20:22.999-05:00,-0.232991,-0.972930,-0.013168,2025-04-03T22:20:22.859-05:00,0.072782,-0.033468,-0.597941,2025-04-03T22:20:22.862-05:00
37.000000,257.774963,2.064262,22.258340,44.936526,285.184962,269.578369,2.453227,3.000000,-93.171521,7.273368,2025-04-03T22:20:23.999-05:00,-0.238493,-0.972044,-0.006604,2025-04-03T22:20:23.863-05:00,0.036118,-0.028604,-0.558837,2025-04-03T22:20:23.867-05:00
38.000000,257.666128,2.032183,21.107793,44.936528,285.076128,269.578369,2.494953,3.000000,-93.171620,7.636708,2025-04-03T22:20:24.999-05:00,-0.256194,-0.965189,0.006457,2025-04-03T22:20:24.858-05:00,-0.134473,0.028635,-0.531388,2025-04-03T22:20:24.862-05:00
39.000000,257.536639,1.998146,19.359730,44.936529,284.946638,269.578369,2.483218,3.000000,-93.171728,8.085302,2025-04-03T22:20:25.999-05:00,-0.281551,-0.957767,0.009752,2025-04-03T22:20:25.863-05:00,-0.366285,0.099833,-0.527646,2025-04-03T22:20:25.866-05:00
40.000000,257.508463,1.998807,18.623717,44.936535,284.918463,269.578369,2.375546,3.000000,-93.171836,8.277489,2025-04-03T22:20:26.999-05:00,-0.281877,-0.945665,0.006031,2025-04-03T22:20:26.867-05:00,-0.316481,0.205189,-0.436312,2025-04-03T22:20:26.861-05:00
41.000000,257.310228,1.971996,19.344269,44.936536,284.720228,269.662079,2.253559,3.000000,-93.171936,8.118647,2025-04-03T22:20:27.999-05:00,-0.329870,-0.954437,0.007344,2025-04-03T22:20:27.862-05:00,-0.829401,0.138914,-0.469656,2025-04-03T22:20:27.866-05:00
42.000000,257.132601,1.990799,20.336324,44.936535,284.542600,269.599121,2.172581,3.000000,-93.172034,7.851092,2025-04-03T22:20:28.999-05:00,-0.349153,-0.944958,-0.011004,2025-04-03T22:20:28.867-05:00,-0.927114,0.194783,-0.594780,2025-04-03T22:20:28.860-05:00
43.000000,256.765667,2.067178,22.614021,44.936536,284.175667,269.599121,2.120628,3.000000,-93.172119,7.160354,2025-04-03T22:20:29.999-05:00,-0.349925,-0.935533,-0.021204,2025-04-03T22:20:29.861-05:00,-0.977279,0.305575,-0.686830,2025-04-03T22:20:29.865-05:00
44.000000,256.785188,2.116140,25.886799,44.936535,284.195187,269.599121,2.770369,3.000000,-93.172202,6.447001,2025-04-03T22:20:30.999-05:00,-0.367641,-0.935187,-0.025655,2025-04-03T22:20:30.866-05:00,-1.087515,0.300426,-0.687635,2025-04-03T22:20:30.860-05:00
45.000000,256.475362,2.379531,31.066020,44.936531,283.885362,268.258850,2.587012,3.000000,-93.172264,5.389635,2025-04-03T22:20:31.999-05:00,-0.382895,-0.929241,-0.042195,2025-04-03T22:20:31.861-05:00,-1.139249,0.331484,-0.805918,2025-04-03T22:20:31.865-05:00
46.000000,256.151749,2.613567,42.899603,44.936534,283.561749,268.258850,2.469610,3.000000,-93.172303,3.998757,2025-04-03T22:20:32.999-05:00,-0.406364,-0.924353,-0.051736,2025-04-03T22:20:32.865-05:00,-1.297694,0.360566,-0.785542,2025-04-03T22:20:32.859-05:00
47.000000,256.139476,2.885095,57.268884,44.936535,283.549475,268.258850,2.391341,3.000000,-93.172353,3.050716,2025-04-03T22:20:33.999-05:00,-0.403042,-0.929270,-0.040860,2025-04-03T22:20:33.860-05:00,-1.155097,0.288256,-0.601827,2025-04-03T22:20:33.864-05:00
48.000000,256.043695,3.505231,83.531046,44.936534,283.453695,268.258850,2.358925,3.000000,-93.172381,1.800307,2025-04-03T22:20:34.999-05:00,-0.340786,-0.943426,-0.018470,2025-04-03T22:20:34.865-05:00,-0.490927,0.124897,-0.321642,2025-04-03T22:20:34.859-05:00
49.000000,255.864157,3.760655,180.000000,44.936534,283.274157,268.258850,2.471604,3.000000,-93.172390,0.635920,2025-04-03T22:20:35.999-05:00,-0.215789,-0.977453,0.006854,2025-04-03T22:20:35.860-05:00,0.755081,-0.207425,0.002868,2025-04-03T22:20:35.863-05:00
50.000000,255.948545,3.761270,180.000000,44.936536,283.358545,268.258850,2.497769,3.000000,-93.172404,0.628596,2025-04-03T22:20:36.999-05:00,-0.146650,-0.991291,-0.006847,2025-04-03T22:20:36.864-05:00,1.404967,-0.338565,-0.055787,2025-04-03T22:20:36.858-05:00
51.000000,256.003040,3.763795,180.000000,44.936537,283.413040,268.258850,2.547146,3.000000,-93.172429,1.266577,2025-04-03T22:20:37.999-05:00,-0.154433,-0.987498,-0.089373,2025-04-03T22:20:37.859-05:00,1.236508,-0.271064,-0.736449,2025-04-03T22:20:37.863-05:00
52.000000,255.979442,2.571283,81.703758,44.936546,283.389441,268.258850,2.600271,3.000000,-93.172471,2.502431,2025-04-03T22:20:38.999-05:00,-0.218597,-0.971982,-0.183692,2025-04-03T22:20:38.864-05:00,0.585339,-0.117415,-1.515801,2025-04-03T22:20:38.867-05:00
53.000000,256.194268,2.476695,63.754057,44.936530,283.604268,268.258850,4.607139,3.000000,-93.172503,3.089872,2025-04-03T22:20:39.999-05:00,-0.251821,-0.960721,-0.237410,2025-04-03T22:20:39.858-05:00,0.096395,0.034597,-1.917740,2025-04-03T22:20:39.862-05:00
54.000000,256.303080,2.415563,59.049645,44.936536,283.713079,321.873454,7.301923,3.000000,-93.172528,3.283874,2025-04-03T22:20:40.999-05:00,-0.227752,-0.971942,-0.220161,2025-04-03T22:20:40.863-05:00,0.060944,-0.009425,-1.689925,2025-04-03T22:20:40.867-05:00
55.000000,256.485139,2.363907,54.921211,44.936540,283.895139,351.710585,11.221638,3.000000,-93.172521,3.482821,2025-04-03T22:20:41.999-05:00,-0.173805,-0.982286,-0.156213,2025-04-03T22:20:41.858-05:00,0.356891,-0.052736,-1.188753,2025-04-03T22:20:41.861-05:00
56.000000,256.674421,2.336398,47.927983,44.936641,284.084421,342.779297,11.072187,3.000000,-93.172613,3.946909,2025-04-03T22:20:42.999-05:00,-0.170584,-0.989944,-0.021443,2025-04-03T22:20:42.862-05:00,0.300898,-0.094274,-0.198669,2025-04-03T22:20:42.866-05:00
57.000000,256.742142,2.239583,37.480614,44.936666,284.152142,50.844452,4.488709,3.000000,-93.172388,4.839250,2025-04-03T22:20:43.999-05:00,-0.198042,-0.983553,0.041819,2025-04-03T22:20:43.867-05:00,0.033405,-0.048581,0.331475,2025-04-03T22:20:43.861-05:00
58.000000,256.918780,2.177829,32.055808,44.936700,284.328780,48.821384,2.469851,3.000000,-93.172332,5.471995,2025-04-03T22:20:44.999-05:00,-0.188831,-0.976249,0.018228,2025-04-03T22:20:44.862-05:00,0.092496,0.036604,0.263441,2025-04-03T22:20:44.866-05:00
59.000000,256.821671,2.124630,27.893168,44.936739,284.231671,48.821384,2.444574,3.000000,-93.172271,6.171939,2025-04-03T22:20:45.999-05:00,-0.188114,-0.984458,0.066829,2025-04-03T22:20:45.866-05:00,0.079818,-0.033863,0.598724,2025-04-03T22:20:45.860-05:00
60.000000,256.805850,2.069231,24.941620,44.936791,284.215849,47.899979,2.431707,3.000000,-93.172224,6.703626,2025-04-03T22:20:46.999-05:00,-0.227154,-0.973143,0.067800,2025-04-03T22:20:46.861-05:00,-0.326490,0.074899,0.669982,2025-04-03T22:20:46.865-05:00
61.000000,256.727676,2.025330,22.789029,44.936832,284.137676,47.899979,2.413730,3.000000,-93.172152,7.200936,2025-04-03T22:20:47.999-05:00,-0.242456,-0.972804,0.041978,2025-04-03T22:20:47.866-05:00,-0.473839,0.079828,0.529072,2025-04-03T22:20:47.860-05:00
62.000000,257.003956,2.015457,22.177777,44.936878,284.413956,45.608276,2.394784,3.000000,-93.172087,7.363284,2025-04-03T22:20:48.999-05:00,-0.241288,-0.964989,0.041573,2025-04-03T22:20:48.861-05:00,-0.457670,0.128980,0.446341,2025-04-03T22:20:48.864-05:00
63.000000,256.836249,2.015986,21.710091,44.936920,284.246249,42.776688,2.308215,3.000000,-93.172007,7.519777,2025-04-03T22:20:49.999-05:00,-0.242660,-0.969075,0.038335,2025-04-03T22:20:49.865-05:00,-0.387520,0.127503,0.386737,2025-04-03T22:20:49.859-05:00
64.000000,256.860184,1.995154,21.312859,44.936972,284.270184,39.983471,2.235179,3.000000,-93.171944,7.566856,2025-04-03T22:20:50.999-05:00,-0.246080,-0.961492,0.022387,2025-04-03T22:20:50.860-05:00,-0.475594,0.200569,0.318418,2025-04-03T22:20:50.864-05:00
65.000000,256.926467,1.986914,20.807354,44.937030,284.336467,36.956100,2.169488,3.000000,-93.171881,7.735507,2025-04-03T22:20:51.999-05:00,-0.255150,-0.955468,0.036046,2025-04-03T22:20:51.865-05:00,-0.472947,0.203493,0.405915,2025-04-03T22:20:51.858-05:00
66.000000,256.991125,1.956861,20.351170,44.937095,284.401125,34.095554,2.161741,3.000000,-93.171841,7.778716,2025-04-03T22:20:52.999-05:00,-0.276923,-0.974188,0.021932,2025-04-03T22:20:52.859-05:00,-0.700621,0.045159,0.301130,2025-04-03T22:20:52.863-05:00
67.000000,257.269900,1.988152,20.923304,44.937150,284.679900,34.095554,2.118628,3.000000,-93.171785,7.696904,2025-04-03T22:20:53.999-05:00,-0.231805,-0.954808,-0.001014,2025-04-03T22:20:53.864-05:00,-0.330058,0.241554,0.207016,2025-04-03T22:20:53.858-05:00
68.000000,257.611707,1.985850,21.241019,44.937206,285.021707,32.380680,2.250457,3.000000,-93.171732,7.553961,2025-04-03T22:20:54.999-05:00,-0.253617,-0.960126,0.001647,2025-04-03T22:20:54.859-05:00,-0.407582,0.169928,0.148351,2025-04-03T22:20:54.863-05:00
69.000000,257.699866,1.998546,21.791034,44.937261,285.109866,29.048660,2.185888,3.000000,-93.171684,7.424990,2025-04-03T22:20:55.999-05:00,-0.252500,-0.976638,0.001818,2025-04-03T22:20:55.863-05:00,-0.366446,-0.002084,0.128868,2025-04-03T22:20:55.867-05:00
70.000000,257.626907,2.019582,22.426965,44.937316,285.036906,27.551231,2.254760,3.000000,-93.171639,7.293263,2025-04-03T22:20:56.999-05:00,-0.245627,-0.964635,0.010052,2025-04-03T22:20:56.858-05:00,-0.261659,0.108096,0.199032,2025-04-03T22:20:56.862-05:00
71.000000,257.711081,2.018949,22.463042,44.937372,285.121081,23.538191,2.573864,3.000000,-93.171588,7.282219,2025-04-03T22:20:57.999-05:00,-0.230658,-0.977618,0.028692,2025-04-03T22:20:57.863-05:00,-0.126021,-0.016427,0.403329,2025-04-03T22:20:57.867-05:00
72.000000,257.677635,1.981182,21.466473,44.937438,285.087635,21.146795,2.665246,3.000000,-93.171553,7.476232,2025-04-03T22:20:58.999-05:00,-0.247741,-0.960266,0.032384,2025-04-03T22:20:58.858-05:00,-0.294955,0.153828,0.365419,2025-04-03T22:20:58.861-05:00
73.000000,257.248464,1.986231,20.509548,44.937510,284.658463,17.952059,2.519102,3.000000,-93.171516,7.819504,2025-04-03T22:20:59.999-05:00,-0.268444,-0.956089,0.020603,2025-04-03T22:20:59.862-05:00,-0.407062,0.178931,0.296958,2025-04-03T22:20:59.866-05:00
74.000000,257.358100,1.998762,20.908355,44.937577,284.768100,16.142645,2.927393,3.000000,-93.171485,7.694090,2025-04-03T22:21:00.999-05:00,-0.268715,-0.970058,0.013050,2025-04-03T22:21:00.867-05:00,-0.467460,0.046826,0.171777,2025-04-03T22:21:00.861-05:00
75.000000,257.667140,2.005766,21.501957,44.937645,285.077140,13.623064,2.928386,3.000000,-93.171466,7.552480,2025-04-03T22:21:01.999-05:00,-0.238624,-0.964988,-0.003062,2025-04-03T22:21:01.862-05:00,-0.105887,0.058337,0.057404,2025-04-03T22:21:01.865-05:00
76.000000,258.185676,2.032089,22.302164,44.937707,285.595676,12.481078,2.789427,3.000000,-93.171446,7.362570,2025-04-03T22:21:02.999-05:00,-0.249841,-0.960229,0.000355,2025-04-03T22:21:02.866-05:00,-0.312253,0.177443,0.014018,2025-04-03T22:21:02.860-05:00
77.000000,257.912141,2.020483,22.236892,44.937775,285.322141,11.058671,2.698123,3.000000,-93.171432,7.360171,2025-04-03T22:21:03.999-05:00,-0.271408,-0.953533,0.005524,2025-04-03T22:21:03.861-05:00,-0.320170,0.182640,0.072696,2025-04-03T22:21:03.865-05:00
78.000000,258.017185,2.011748,22.883674,44.937841,285.427185,8.879340,2.482930,3.000000,-93.171419,7.123303,2025-04-03T22:21:04.999-05:00,-0.246925,-0.977248,0.020644,2025-04-03T22:21:04.866-05:00,-0.111402,-0.060257,0.176803,2025-04-03T22:21:04.860-05:00
79.000000,257.970019,2.042178,23.400528,44.937906,285.380019,6.692623,2.642595,3.000000,-93.171409,7.068401,2025-04-03T22:21:05.999-05:00,-0.233647,-0.975753,0.044970,2025-04-03T22:21:05.860-05:00,0.023811,-0.045708,0.369561,2025-04-03T22:21:05.864-05:00
80.000000,258.275631,2.042442,23.198127,44.937971,285.685631,2.274335,2.617892,3.000000,-93.171402,7.133317,2025-04-03T22:21:06.999-05:00,-0.240334,-0.963107,0.043818,2025-04-03T22:21:06.865-05:00,-0.033017,0.087424,0.315929,2025-04-03T22:21:06.859-05:00
81.000000,258.632689,2.029593,22.349415,44.938039,286.042689,1.070849,2.432617,3.000000,-93.171397,7.288697,2025-04-03T22:21:07.999-05:00,-0.246674,-0.959154,0.014053,2025-04-03T22:21:07.860-05:00,-0.027942,0.105874,0.079124,2025-04-03T22:21:07.864-05:00
82.000000,258.720387,2.009595,21.744930,44.938111,286.130387,358.442596,2.297807,3.000000,-93.171403,7.484143,2025-04-03T22:21:08.999-05:00,-0.250702,-0.958744,0.021259,2025-04-03T22:21:08.865-05:00,0.076536,0.063562,0.038026,2025-04-03T22:21:08.858-05:00
83.000000,258.634708,1.998014,21.198737,44.938183,286.044708,355.715729,2.203195,3.000000,-93.171400,7.614964,2025-04-03T22:21:09.999-05:00,-0.241388,-0.955560,0.012725,2025-04-03T22:21:09.859-05:00,0.178810,0.074995,-0.067869,2025-04-03T22:21:09.863-05:00
84.000000,258.522930,1.993154,20.861260,44.938253,285.932930,352.446228,2.269102,3.000000,-93.171412,7.725985,2025-04-03T22:21:10.999-05:00,-0.244149,-0.964754,-0.015716,2025-04-03T22:21:10.864-05:00,0.218007,0.013492,-0.135716,2025-04-03T22:21:10.858-05:00
85.000000,258.417944,1.957290,19.556208,44.938328,285.827944,354.090027,2.181551,3.000000,-93.171425,8.055920,2025-04-03T22:21:11.999-05:00,-0.260983,-0.968871,-0.024970,2025-04-03T22:21:11.859-05:00,0.003024,-0.035075,-0.151969,2025-04-03T22:21:11.862-05:00
86.000000,258.084685,1.973677,18.958007,44.938405,285.494685,357.279846,2.121185,3.000000,-93.171434,8.294569,2025-04-03T22:21:12.999-05:00,-0.260007,-0.962902,-0.021619,2025-04-03T22:21:12.863-05:00,0.052107,0.008519,-0.093322,2025-04-03T22:21:12.867-05:00
87.000000,257.818333,2.049337,18.084972,44.938483,285.228333,358.654480,2.080244,3.000000,-93.171440,8.442362,2025-04-03T22:21:13.999-05:00,-0.249500,-0.954621,-0.016623,2025-04-03T22:21:13.858-05:00,0.183482,0.086002,-0.195482,2025-04-03T22:21:13.862-05:00
88.000000,257.626861,2.053924,17.833038,44.938561,285.036861,358.654480,2.083282,3.000000,-93.171446,8.536225,2025-04-03T22:21:14.999-05:00,-0.269145,-0.977423,0.000401,2025-04-03T22:21:14.863-05:00,0.057034,-0.167629,-0.083738,2025-04-03T22:21:14.866-05:00
89.000000,257.629770,2.200080,16.484081,44.938640,285.039770,357.329163,2.054497,3.000000,-93.171456,8.717070,2025-04-03T22:21:15.999-05:00,-0.257506,-0.954497,-0.022801,2025-04-03T22:21:15.867-05:00,0.017658,0.117735,-0.159106,2025-04-03T22:21:15.861-05:00
90.000000,257.671654,1.959984,17.658835,44.938721,285.081654,357.039734,2.035321,3.000000,-93.171463,8.845227,2025-04-03T22:21:16.999-05:00,-0.250026,-0.957789,-0.021829,2025-04-03T22:21:16.862-05:00,0.065013,0.117369,-0.141286,2025-04-03T22:21:16.866-05:00
91.000000,257.292431,1.939562,17.162685,44.938804,284.702431,357.039734,2.022628,3.000000,-93.171464,8.967396,2025-04-03T22:21:17.999-05:00,-0.272801,-0.965265,-0.047324,2025-04-03T22:21:17.867-05:00,0.000621,-0.057165,-0.382921,2025-04-03T22:21:17.861-05:00
92.000000,256.915259,1.927822,17.282477,44.938880,284.325259,356.274872,2.033714,3.000000,-93.171475,8.816561,2025-04-03T22:21:18.999-05:00,-0.279110,-0.956233,-0.015948,2025-04-03T22:21:18.862-05:00,-0.139779,0.113078,-0.185957,2025-04-03T22:21:18.865-05:00
93.000000,256.560717,1.999411,17.238292,44.938961,283.970717,356.274872,2.517400,3.000000,-93.171473,8.824573,2025-04-03T22:21:19.999-05:00,-0.262837,-0.960186,-0.036045,2025-04-03T22:21:19.866-05:00,-0.098306,0.034234,-0.325391,2025-04-03T22:21:19.860-05:00
94.000000,256.619946,1.923194,17.735154,44.939044,284.029946,356.274872,2.741965,3.000000,-93.171481,8.772124,2025-04-03T22:21:20.999-05:00,-0.263359,-0.960821,-0.029870,2025-04-03T22:21:20.861-05:00,0.029975,0.045687,-0.252600,2025-04-03T22:21:20.865-05:00
95.000000,256.297386,1.931692,17.222109,44.939126,283.707385,356.274872,2.760316,3.000000,-93.171484,8.850987,2025-04-03T22:21:21.999-05:00,-0.262005,-0.973047,0.014080,2025-04-03T22:21:21.866-05:00,0.011216,-0.098860,-0.041800,2025-04-03T22:21:21.859-05:00
96.000000,256.408782,1.891112,17.006444,44.939208,283.818782,359.175812,2.658991,3.000000,-93.171485,8.979797,2025-04-03T22:21:22.999-05:00,-0.258998,-0.965286,0.004114,2025-04-03T22:21:22.860-05:00,0.042975,0.002147,-0.102345,2025-04-03T22:21:22.864-05:00
97.000000,255.875091,1.961305,16.894926,44.939289,283.285091,359.175812,2.424103,3.000000,-93.171493,9.066153,2025-04-03T22:21:23.999-05:00,-0.251776,-0.965236,-0.000031,2025-04-03T22:21:23.865-05:00,0.070558,0.002396,-0.166118,2025-04-03T22:21:23.859-05:00
98.000000,255.831667,1.953068,16.434699,44.939372,283.241667,359.175812,2.601685,3.000000,-93.171498,9.219777,2025-04-03T22:21:24.999-05:00,-0.248622,-0.959529,0.009211,2025-04-03T22:21:24.860-05:00,0.103679,0.029365,-0.035438,2025-04-03T22:21:24.863-05:00
99.000000,255.923752,1.935638,16.531508,44.939458,283.333752,0.331696,2.790013,3.000000,-93.171481,9.320317,2025-04-03T22:21:25.999-05:00,-0.276880,-0.964298,-0.014995,2025-04-03T22:21:25.864-05:00,-0.168502,0.040611,-0.180897,2025-04-03T22:21:25.858-05:00
100.000000,255.652024,1.914728,16.232436,44.939547,283.062024,0.331696,2.977971,3.000000,-93.171503,9.365134,2025-04-03T22:21:26.999-05:00,-0.284275,-0.955482,-0.008781,2025-04-03T22:21:26.859-05:00,-0.251062,0.105645,-0.112751,2025-04-03T22:21:26.863-05:00
101.000000,255.507125,1.942176,17.050098,44.939624,282.917125,0.000000,2.742089,3.000000,-93.171503,8.998611,2025-04-03T22:21:27.999-05:00,-0.297396,-0.955582,-0.018253,2025-04-03T22:21:27.864-05:00,-0.373054,0.100295,-0.178100,2025-04-03T22:21:27.858-05:00
102.000000,255.590997,1.980367,17.256462,44.939706,283.000997,0.000000,2.656856,3.000000,-93.171501,8.862491,2025-04-03T22:21:28.999-05:00,-0.334626,-0.944017,-0.027888,2025-04-03T22:21:28.859-05:00,-0.701130,0.200694,-0.272793,2025-04-03T22:21:28.862-05:00
103.000000,255.673692,2.031397,18.385769,44.939783,283.083691,0.000000,2.420164,3.000000,-93.171501,8.343529,2025-04-03T22:21:29.999-05:00,-0.391787,-0.929775,-0.046181,2025-04-03T22:21:29.863-05:00,-1.266789,0.341528,-0.398000,2025-04-03T22:21:29.867-05:00
104.000000,255.463491,2.113266,21.432204,44.939849,282.873490,0.000000,2.466301,3.000000,-93.171501,7.327202,2025-04-03T22:21:30.999-05:00,-0.406600,-0.924854,-0.053234,2025-04-03T22:21:30.858-05:00,-1.351772,0.376324,-0.411954,2025-04-03T22:21:30.862-05:00
105.000000,255.580712,2.203448,28.510819,44.939899,282.990712,0.766415,2.331170,3.000000,-93.171500,5.877786,2025-04-03T22:21:31.999-05:00,-0.402243,-0.923773,-0.046792,2025-04-03T22:21:31.863-05:00,-1.169757,0.346480,-0.311912,2025-04-03T22:21:31.866-05:00
106.000000,255.694110,2.469381,39.211608,44.939934,283.104109,0.766415,2.332620,3.000000,-93.171499,4.422217,2025-04-03T22:21:32.999-05:00,-0.404374,-0.928053,-0.049747,2025-04-03T22:21:32.867-05:00,-1.029270,0.252146,-0.262214,2025-04-03T22:21:32.861-05:00
107.000000,255.706562,3.149017,54.231551,44.939957,283.116562,0.766415,2.548463,3.000000,-93.171499,2.968734,2025-04-03T22:21:33.999-05:00,-0.331020,-0.943117,-0.046284,2025-04-03T22:21:33.862-05:00,-0.297819,0.096138,-0.128314,2025-04-03T22:21:33.866-05:00
108.000000,255.761935,3.541586,86.572610,44.939971,283.171934,0.766415,2.458482,3.000000,-93.171499,1.717451,2025-04-03T22:21:34.999-05:00,-0.239928,-0.968048,-0.023513,2025-04-03T22:21:34.867-05:00,0.567217,-0.135870,0.127043,2025-04-03T22:21:34.860-05:00
109.000000,255.684608,3.903101,83.161970,44.939984,283.094608,0.766415,2.398655,3.000000,-93.171499,1.400665,2025-04-03T22:21:35.999-05:00,-0.301385,-0.955539,-0.048451,2025-04-03T22:21:35.861-05:00,0.045163,-0.046344,-0.043260,2025-04-03T22:21:35.865-05:00
110.000000,255.807613,3.092486,120.880890,44.940001,283.217613,0.766415,2.359978,3.000000,-93.171500,1.480725,2025-04-03T22:21:36.999-05:00,-0.302796,-0.948194,-0.045634,2025-04-03T22:21:36.866-05:00,0.037261,0.027925,-0.029964,2025-04-03T22:21:36.860-05:00
111.000000,255.827052,3.745785,180.000000,44.940010,283.237052,0.766415,2.366363,3.000000,-93.171500,0.910250,2025-04-03T22:21:37.999-05:00,-0.214673,-0.976707,-0.018447,2025-04-03T22:21:37.861-05:00,0.854089,-0.240924,0.190779,2025-04-03T22:21:37.865-05:00
112.000000,255.879978,3.748773,180.000000,44.940019,283.289978,0.766415,2.335169,3.000000,-93.171500,0.815811,2025-04-03T22:21:38.999-05:00,-0.104136,-1.005259,0.015236,2025-04-03T22:21:38.865-05:00,1.830029,-0.476818,0.485026,2025-04-03T22:21:38.859-05:00
113.000000,256.059369,3.746666,180.000000,44.940036,283.469369,0.766415,2.304699,3.000000,-93.171476,1.601329,2025-04-03T22:21:39.999-05:00,-0.131117,-1.011785,0.006285,2025-04-03T22:21:39.860-05:00,1.350221,-0.462326,0.331561,2025-04-03T22:21:39.864-05:00
114.000000,256.133481,2.484473,65.788571,44.940068,283.543480,0.766415,2.279307,3.000000,-93.171475,3.041562,2025-04-03T22:21:40.999-05:00,-0.143053,-0.972899,-0.002902,2025-04-03T22:21:40.865-05:00,1.019885,-0.065373,0.301749,2025-04-03T22:21:40.859-05:00
115.000000,256.482617,2.505466,45.858857,44.940108,283.892617,0.766415,2.257822,3.000000,-93.171475,3.992936,2025-04-03T22:21:41.999-05:00,-0.142354,-0.978321,-0.005795,2025-04-03T22:21:41.860-05:00,1.178145,-0.154057,0.285768,2025-04-03T22:21:41.863-05:00
116.000000,256.534355,2.282686,37.100950,44.940154,283.944354,0.766415,2.253385,3.000000,-93.171474,4.864898,2025-04-03T22:21:42.999-05:00,-0.168590,-0.997823,-0.014209,2025-04-03T22:21:42.864-05:00,1.186751,-0.385991,0.176544,2025-04-03T22:21:42.858-05:00
117.000000,256.304975,2.185327,28.786764,44.940209,283.714975,0.792678,2.236493,3.000000,-93.171473,5.901398,2025-04-03T22:21:43.999-05:00,-0.164326,-0.996220,-0.049584,2025-04-03T22:21:43.859-05:00,0.902698,-0.293241,-0.259414,2025-04-03T22:21:43.863-05:00
118.000000,256.346183,2.077396,24.493215,44.940270,283.756182,2.715388,2.231919,3.000000,-93.171470,6.790141,2025-04-03T22:21:44.999-05:00,-0.172598,-0.979113,-0.071271,2025-04-03T22:21:44.864-05:00,0.673538,-0.084221,-0.457872,2025-04-03T22:21:44.867-05:00
119.000000,256.412643,2.018891,22.040509,44.940335,283.822643,8.837791,2.349540,3.000000,-93.171458,7.397374,2025-04-03T22:21:45.999-05:00,-0.192925,-0.970455,-0.109185,2025-04-03T22:21:45.858-05:00,0.462187,-0.007013,-0.785347,2025-04-03T22:21:45.862-05:00
120.000000,256.483349,1.981011,20.558705,44.940401,283.893348,14.105333,3.898882,3.000000,-93.171436,7.802948,2025-04-03T22:21:46.999-05:00,-0.232416,-0.974225,-0.097646,2025-04-03T22:21:46.863-05:00,0.159995,-0.054414,-0.735964,2025-04-03T22:21:46.867-05:00
121.000000,256.631451,1.969224,20.072553,44.940465,284.041450,20.918606,4.081596,3.000000,-93.171404,7.948879,2025-04-03T22:21:47.999-05:00,-0.224065,-0.971420,-0.113541,2025-04-03T22:21:47.858-05:00,0.209453,-0.025075,-0.957546,2025-04-03T22:21:47.862-05:00
122.000000,256.965027,1.974852,20.268235,44.940524,284.375026,26.621935,4.324209,3.000000,-93.171363,7.887952,2025-04-03T22:21:48.999-05:00,-0.236224,-0.970274,-0.133927,2025-04-03T22:21:48.862-05:00,-0.014710,0.019499,-1.107629,2025-04-03T22:21:48.866-05:00
123.000000,257.053094,1.973513,20.219348,44.940586,284.463094,30.510687,3.957492,3.000000,-93.171312,7.899477,2025-04-03T22:21:49.999-05:00,-0.258490,-0.971377,-0.106961,2025-04-03T22:21:49.867-05:00,-0.323631,0.020998,-0.806512,2025-04-03T22:21:49.861-05:00
124.000000,257.076608,1.980583,20.632630,44.940642,284.486607,38.755524,2.292897,3.000000,-93.171255,7.765380,2025-04-03T22:21:50.999-05:00,-0.252105,-0.954241,-0.068607,2025-04-03T22:21:50.862-05:00,-0.275321,0.187189,-0.380970,2025-04-03T22:21:50.866-05:00
125.000000,257.080952,1.994539,21.190238,44.940692,284.490952,43.928284,3.477495,3.000000,-93.171190,7.598364,2025-04-03T22:21:51.999-05:00,-0.239227,-0.964741,-0.098025,2025-04-03T22:21:51.867-05:00,-0.166946,0.100887,-0.623144,2025-04-03T22:21:51.860-05:00
126.000000,256.998426,1.995878,21.372017,44.940730,284.408426,51.638817,4.696290,3.000000,-93.171115,7.565182,2025-04-03T22:21:52.999-05:00,-0.225250,-0.966705,-0.075116,2025-04-03T22:21:52.861-05:00,-0.074457,0.078763,-0.315392,2025-04-03T22:21:52.865-05:00
127.000000,256.813135,2.002139,21.349545,44.940765,284.223135,53.993988,5.500354,3.000000,-93.171034,7.595040,2025-04-03T22:21:53.999-05:00,-0.241126,-0.961538,-0.013018,2025-04-03T22:21:53.866-05:00,-0.149339,0.114265,0.346492,2025-04-03T22:21:53.860-05:00
128.000000,256.575254,1.992418,21.123083,44.940805,283.985254,53.993988,4.911912,3.000000,-93.170958,7.636375,2025-04-03T22:21:54.999-05:00,-0.243301,-0.972780,-0.004679,2025-04-03T22:21:54.861-05:00,-0.160546,0.009696,0.450662,2025-04-03T22:21:54.864-05:00
129.000000,256.350243,1.998369,21.038988,44.940849,283.760242,50.304554,4.469112,3.000000,-93.170880,7.680014,2025-04-03T22:21:55.999-05:00,-0.270672,-0.958700,-0.000176,2025-04-03T22:21:55.865-05:00,-0.416318,0.119706,0.543937,2025-04-03T22:21:55.859-05:00
130.000000,256.103753,2.001042,21.319679,44.940893,283.513753,47.670593,2.728801,3.000000,-93.170810,7.565526,2025-04-03T22:21:56.999-05:00,-0.289920,-0.951934,0.027880,2025-04-03T22:21:56.860-05:00,-0.504253,0.178277,0.715221,2025-04-03T22:21:56.864-05:00
131.000000,256.050503,2.003695,21.445773,44.940946,283.460503,44.542637,2.498303,3.000000,-93.170738,7.532822,2025-04-03T22:21:57.999-05:00,-0.278793,-0.967209,0.015627,2025-04-03T22:21:57.865-05:00,-0.433910,0.039989,0.521825,2025-04-03T22:21:57.859-05:00
132.000000,255.903546,2.003555,21.820695,44.941002,283.313546,39.290810,2.343137,3.000000,-93.170676,7.429987,2025-04-03T22:21:58.999-05:00,-0.284632,-0.958435,0.005534,2025-04-03T22:21:58.859-05:00,-0.431828,0.093390,0.351621,2025-04-03T22:21:58.863-05:00
133.000000,255.827669,2.023033,22.506718,44.941057,283.237669,35.530399,2.239255,3.000000,-93.170621,7.265246,2025-04-03T22:21:59.999-05:00,-0.285028,-0.954830,0.020421,2025-04-03T22:21:59.864-05:00,-0.430950,0.167153,0.482518,2025-04-03T22:21:59.858-05:00
134.000000,255.899165,2.038340,23.376716,44.941110,283.309165,35.097931,2.187056,3.000000,-93.170569,7.058071,2025-04-03T22:22:00.999-05:00,-0.294155,-0.951909,0.040573,2025-04-03T22:22:00.859-05:00,-0.464336,0.164259,0.664906,2025-04-03T22:22:00.863-05:00
135.000000,255.875708,2.058420,24.429987,44.941165,283.285708,29.604681,2.133295,3.000000,-93.170526,6.813049,2025-04-03T22:22:01.999-05:00,-0.299371,-0.953639,0.051913,2025-04-03T22:22:01.864-05:00,-0.487947,0.142202,0.714337,2025-04-03T22:22:01.867-05:00
136.000000,255.961817,2.070001,25.632634,44.941228,283.371817,19.460150,2.138966,3.000000,-93.170511,6.543142,2025-04-03T22:22:02.999-05:00,-0.313292,-0.946042,0.056548,2025-04-03T22:22:02.858-05:00,-0.570363,0.206202,0.757777,2025-04-03T22:22:02.862-05:00
137.000000,256.071428,2.091699,27.015145,44.941282,283.481428,19.460150,2.107711,3.000000,-93.170485,6.273463,2025-04-03T22:22:03.999-05:00,-0.362452,-0.941730,0.009579,2025-04-03T22:22:03.863-05:00,-0.999809,0.224495,0.354729,2025-04-03T22:22:03.867-05:00
138.000000,255.896843,2.128665,29.997250,44.941327,283.306843,19.460150,2.084831,3.000000,-93.170447,5.746256,2025-04-03T22:22:04.999-05:00,-0.410308,-0.916852,-0.038307,2025-04-03T22:22:04.858-05:00,-1.361413,0.447853,-0.222690,2025-04-03T22:22:04.861-05:00
139.000000,255.728492,2.251097,38.927764,44.941364,283.138492,19.460150,2.086745,3.000000,-93.170429,4.643804,2025-04-03T22:22:05.999-05:00,-0.427406,-0.923668,-0.052106,2025-04-03T22:22:05.862-05:00,-1.446554,0.357160,-0.424018,2025-04-03T22:22:05.866-05:00
140.000000,,,,,,,,,,,,,,,,-1.031363,0.013803,-0.369654,2025-04-03T22:22:06.861-05:00
