seconds_elapsed,location_altitude,location_speedAccuracy,location_bearingAccuracy,location_latitude,location_altitudeAboveMeanSeaLevel,location_bearing,location_horizontalAccuracy,location_verticalAccuracy,location_longitude,location_speed,location_local_time,accelerometerUncalibrated_z,accelerometerUncalibrated_y,accelerometerUncalibrated_x,accelerometerUncalibrated_local_time,accelerometer_z,accelerometer_y,accelerometer_x,accelerometer_local_time
0.000000,251.493712,0.508753,10.873521,44.938982,278.903712,14.035763,2.297594,3.000000,-93.177161,4.830120,2025-02-19T16:17:31.000-06:00,-0.204868,-0.966700,-0.277720,2025-02-19T16:17:30.856-06:00,0.320101,-0.000236,-1.837961,2025-02-19T16:17:30.864-06:00
1.000000,251.488036,0.490833,10.487404,44.939018,278.898036,37.238153,2.238075,3.000000,-93.177126,4.489405,2025-02-19T16:17:32.000-06:00,-0.160076,-0.991254,-0.227196,2025-02-19T16:17:31.850-06:00,0.362967,-0.148968,-1.295837,2025-02-19T16:17:31.849-06:00
2.000000,251.517484,0.347159,10.969910,44.939036,278.927484,63.600706,2.302416,3.000000,-93.177067,4.415672,2025-02-19T16:17:33.000-06:00,-0.054314,-1.012376,-0.056029,2025-02-19T16:17:32.845-06:00,1.112327,-0.290827,0.108427,2025-02-19T16:17:32.844-06:00
3.000000,251.686676,0.249860,8.979675,44.939044,279.096676,82.750555,2.259214,3.000000,-93.176988,5.560245,2025-02-19T16:17:34.000-06:00,-0.090864,-1.000860,-0.000679,2025-02-19T16:17:33.850-06:00,0.640873,-0.147601,0.600549,2025-02-19T16:17:33.849-06:00
4.000000,251.978326,0.293422,7.252713,44.939006,279.388326,90.161163,4.777466,3.000000,-93.176894,6.950119,2025-02-19T16:17:35.000-06:00,-0.104973,-0.992510,0.006383,2025-02-19T16:17:34.845-06:00,0.451640,-0.058137,0.719906,2025-02-19T16:17:34.843-06:00
5.000000,252.353943,0.060019,7.741137,44.939005,279.763943,90.161163,5.241440,3.000000,-93.176791,7.946521,2025-02-19T16:17:36.000-06:00,-0.123332,-0.995143,0.000872,2025-02-19T16:17:35.849-06:00,0.183319,-0.079348,0.749946,2025-02-19T16:17:35.848-06:00
6.000000,252.557293,0.307643,7.861864,44.939005,279.967293,90.161163,5.675256,3.000000,-93.176679,8.713986,2025-02-19T16:17:37.000-06:00,-0.181412,-0.981181,-0.011226,2025-02-19T16:17:36.844-06:00,-0.378184,0.043045,0.642567,2025-02-19T16:17:36.843-06:00
7.000000,252.727513,0.257537,9.236118,44.939005,280.137513,90.161163,5.832026,3.000000,-93.176561,9.149958,2025-02-19T16:17:38.000-06:00,-0.181861,-0.978347,-0.008565,2025-02-19T16:17:37.849-06:00,-0.409001,0.106456,0.569080,2025-02-19T16:17:37.848-06:00
8.000000,252.701405,0.360126,7.249887,44.939005,280.111404,90.161163,5.678931,3.000000,-93.176441,9.454323,2025-02-19T16:17:39.000-06:00,-0.235155,-0.965309,-0.012160,2025-02-19T16:17:38.844-06:00,-0.927272,0.228949,0.490846,2025-02-19T16:17:38.843-06:00
9.000000,252.864826,0.335358,7.251341,44.939004,280.274826,90.161163,5.683686,3.000000,-93.176325,9.263346,2025-02-19T16:17:40.000-06:00,-0.213346,-0.980107,-0.023235,2025-02-19T16:17:39.849-06:00,-0.694476,0.066536,0.367123,2025-02-19T16:17:39.847-06:00
10.000000,252.867853,0.300244,7.248524,44.939004,280.277853,90.161163,6.219774,3.000000,-93.176216,8.773154,2025-02-19T16:17:41.000-06:00,-0.192945,-0.975213,-0.017957,2025-02-19T16:17:40.843-06:00,-0.451114,0.112642,0.461083,2025-02-19T16:17:40.842-06:00
11.000000,252.833181,0.292744,7.248026,44.939020,280.243180,90.075386,2.166192,3.000000,-93.176111,8.655106,2025-02-19T16:17:42.000-06:00,-0.185345,-0.979840,-0.041858,2025-02-19T16:17:41.848-06:00,-0.309778,0.065209,0.204404,2025-02-19T16:17:41.847-06:00
12.000000,253.020530,0.297705,7.252809,44.939004,280.430530,90.075386,2.106919,3.000000,-93.175997,8.824261,2025-02-19T16:17:43.000-06:00,-0.195638,-0.974233,-0.049303,2025-02-19T16:17:42.843-06:00,-0.383814,0.111842,0.113037,2025-02-19T16:17:42.842-06:00
13.000000,253.177850,0.297946,7.251567,44.939004,280.587850,90.075386,2.069222,3.000000,-93.175883,8.890986,2025-02-19T16:17:44.000-06:00,-0.190139,-0.982217,-0.038492,2025-02-19T16:17:43.848-06:00,-0.293511,0.029925,0.193281,2025-02-19T16:17:43.846-06:00
14.000000,253.290621,0.300420,7.255979,44.939004,280.700620,90.075386,2.044552,3.000000,-93.175768,9.043946,2025-02-19T16:17:45.000-06:00,-0.178419,-0.970816,-0.038939,2025-02-19T16:17:44.842-06:00,-0.133116,0.145978,0.166077,2025-02-19T16:17:44.841-06:00
15.000000,253.438754,0.299404,7.255117,44.939012,280.848754,90.075386,2.116283,3.000000,-93.175654,8.972083,2025-02-19T16:17:46.000-06:00,-0.197052,-0.990755,-0.031019,2025-02-19T16:17:45.847-06:00,-0.316058,-0.065508,0.171812,2025-02-19T16:17:45.846-06:00
16.000000,253.566051,0.295894,7.249095,44.939012,280.976050,90.075386,2.074311,3.000000,-93.175538,9.126647,2025-02-19T16:17:47.000-06:00,-0.190484,-0.974692,-0.022609,2025-02-19T16:17:46.842-06:00,-0.192232,0.098523,0.253995,2025-02-19T16:17:46.841-06:00
17.000000,253.679053,0.297545,7.255096,44.939011,281.089052,90.075386,2.047001,3.000000,-93.175418,9.300752,2025-02-19T16:17:48.000-06:00,-0.189286,-0.994220,-0.018547,2025-02-19T16:17:47.847-06:00,-0.225568,-0.087275,0.294227,2025-02-19T16:17:47.846-06:00
18.000000,253.831790,0.291837,7.249278,44.939010,281.241790,90.075386,2.029640,3.000000,-93.175299,9.304080,2025-02-19T16:17:49.000-06:00,-0.174756,-0.964376,-0.036245,2025-02-19T16:17:48.842-06:00,-0.071492,0.190882,0.080579,2025-02-19T16:17:48.850-06:00
19.000000,253.884735,0.275099,7.236029,44.939010,281.294734,90.000000,2.035990,3.000000,-93.175177,9.499144,2025-02-19T16:17:50.000-06:00,-0.190305,-0.990202,-0.002640,2025-02-19T16:17:49.846-06:00,-0.140322,-0.053142,0.285113,2025-02-19T16:17:49.845-06:00
20.000000,253.908427,0.312460,7.256596,44.939010,281.318427,90.000000,2.022398,3.000000,-93.175056,9.454343,2025-02-19T16:17:51.000-06:00,-0.213575,-0.965632,-0.073698,2025-02-19T16:17:50.841-06:00,-0.371199,0.178642,-0.341635,2025-02-19T16:17:50.850-06:00
21.000000,254.074647,0.315681,7.257374,44.939011,281.484647,90.000000,2.013887,3.000000,-93.174933,9.627422,2025-02-19T16:17:52.000-06:00,-0.283717,-0.956826,-0.081432,2025-02-19T16:17:51.846-06:00,-1.013025,0.244805,-0.459765,2025-02-19T16:17:51.845-06:00
22.000000,254.046295,0.313525,7.258500,44.939004,281.456294,90.000000,2.008717,3.000000,-93.174820,9.230615,2025-02-19T16:17:53.000-06:00,-0.328262,-0.960112,-0.026392,2025-02-19T16:17:52.841-06:00,-1.319985,0.203748,0.076662,2025-02-19T16:17:52.849-06:00
23.000000,254.189902,0.295809,7.258380,44.938999,281.599901,90.000000,2.030170,3.000000,-93.174721,7.965575,2025-02-19T16:17:54.000-06:00,-0.302173,-0.944218,-0.016186,2025-02-19T16:17:53.845-06:00,-1.060507,0.358682,0.086505,2025-02-19T16:17:53.844-06:00
24.000000,254.321331,0.274994,7.689017,44.938996,281.731331,90.000000,2.020549,3.000000,-93.174636,6.748142,2025-02-19T16:17:55.000-06:00,-0.335204,-0.948045,-0.020241,2025-02-19T16:17:54.850-06:00,-1.254768,0.293903,-0.021434,2025-02-19T16:17:54.849-06:00
25.000000,254.304994,0.330422,9.837241,44.938996,281.714993,90.000000,2.014789,3.000000,-93.174564,5.642051,2025-02-19T16:17:56.000-06:00,-0.344452,-0.946840,-0.029183,2025-02-19T16:17:55.845-06:00,-1.231628,0.279747,-0.107420,2025-02-19T16:17:55.844-06:00
26.000000,254.297338,0.428815,11.414213,44.938997,281.707338,90.000000,2.011831,3.000000,-93.174510,4.268339,2025-02-19T16:17:57.000-06:00,-0.356195,-0.940717,-0.032985,2025-02-19T16:17:56.850-06:00,-1.286565,0.335780,-0.147684,2025-02-19T16:17:56.849-06:00
27.000000,254.237129,0.407005,13.968867,44.938999,281.647129,90.000000,2.009859,3.000000,-93.174474,2.828858,2025-02-19T16:17:58.000-06:00,-0.326643,-0.952558,-0.032579,2025-02-19T16:17:57.845-06:00,-0.826877,0.168314,-0.149116,2025-02-19T16:17:57.843-06:00
28.000000,254.340760,0.376399,17.932599,44.938999,281.750760,90.000000,2.008451,3.000000,-93.174455,1.365338,2025-02-19T16:17:59.000-06:00,-0.232178,-0.968815,-0.003601,2025-02-19T16:17:58.849-06:00,0.173090,-0.006838,0.143857,2025-02-19T16:17:58.848-06:00
29.000000,254.213081,0.351683,36.960991,44.939002,281.623080,90.000000,2.007395,3.000000,-93.174448,0.652003,2025-02-19T16:18:00.000-06:00,-0.127619,-0.992981,0.019514,2025-02-19T16:17:59.844-06:00,1.159627,-0.232802,0.339665,2025-02-19T16:17:59.843-06:00
30.000000,254.287259,0.398124,29.748655,44.939002,281.697259,90.000000,2.006573,3.000000,-93.174432,1.103571,2025-02-19T16:18:01.000-06:00,-0.060397,-1.003779,0.024760,2025-02-19T16:18:00.849-06:00,1.740262,-0.318470,0.392049,2025-02-19T16:18:00.848-06:00
31.000000,254.343958,0.324518,12.726715,44.939003,281.753958,90.000000,2.005916,3.000000,-93.174401,2.458584,2025-02-19T16:18:02.000-06:00,-0.078974,-1.010504,0.043398,2025-02-19T16:18:01.844-06:00,1.501137,-0.371510,0.586273,2025-02-19T16:18:01.842-06:00
32.000000,254.510484,0.090149,13.712204,44.939005,281.920484,90.000000,2.005378,3.000000,-93.174353,3.642241,2025-02-19T16:18:03.000-06:00,-0.091933,-0.998938,0.022582,2025-02-19T16:18:02.848-06:00,1.291617,-0.244611,0.441243,2025-02-19T16:18:02.847-06:00
33.000000,254.843236,0.331564,7.246147,44.939008,282.253236,90.000000,2.004930,3.000000,-93.174288,5.018774,2025-02-19T16:18:04.000-06:00,-0.120034,-0.990169,-0.002984,2025-02-19T16:18:03.843-06:00,0.994183,-0.146458,0.160554,2025-02-19T16:18:03.842-06:00
34.000000,254.962749,0.340986,7.256210,44.939012,282.372749,90.000000,2.004550,3.000000,-93.174210,5.941816,2025-02-19T16:18:05.000-06:00,-0.139080,-0.994833,-0.016641,2025-02-19T16:18:04.848-06:00,0.841373,-0.197353,-0.003600,2025-02-19T16:18:04.847-06:00
35.000000,255.019457,0.336056,7.257952,44.939016,282.429456,89.699303,2.004736,3.000000,-93.174125,6.695633,2025-02-19T16:18:06.000-06:00,-0.122943,-0.977617,-0.013774,2025-02-19T16:18:05.843-06:00,0.960039,-0.028502,0.019588,2025-02-19T16:18:05.842-06:00
36.000000,255.055716,0.333619,7.390087,44.939020,282.465716,89.699303,2.004252,3.000000,-93.174029,7.697805,2025-02-19T16:18:07.000-06:00,-0.170997,-0.993955,-0.024677,2025-02-19T16:18:06.848-06:00,0.413100,-0.163411,-0.058335,2025-02-19T16:18:06.846-06:00
37.000000,254.991815,0.333596,7.258794,44.939005,282.401814,89.699303,2.003506,3.000000,-93.173925,8.485362,2025-02-19T16:18:08.000-06:00,-0.169398,-0.986071,-0.020493,2025-02-19T16:18:07.842-06:00,0.312696,-0.076420,0.026331,2025-02-19T16:18:07.841-06:00
38.000000,254.967076,0.319865,7.258872,44.939005,282.377076,89.699303,2.002619,3.000000,-93.173817,8.663899,2025-02-19T16:18:09.000-06:00,-0.173863,-0.972156,-0.042012,2025-02-19T16:18:08.847-06:00,0.160105,0.084869,-0.082897,2025-02-19T16:18:08.846-06:00
39.000000,254.994707,0.326341,7.258860,44.939005,282.404706,89.699303,2.001794,3.000000,-93.173699,9.378878,2025-02-19T16:18:10.000-06:00,-0.225305,-0.969824,-0.078648,2025-02-19T16:18:09.842-06:00,-0.307485,0.107494,-0.258963,2025-02-19T16:18:09.841-06:00
40.000000,254.763674,0.308582,7.258974,44.939006,282.173674,89.733635,2.001147,3.000000,-93.173584,9.211169,2025-02-19T16:18:11.000-06:00,-0.227413,-0.964749,-0.089095,2025-02-19T16:18:10.847-06:00,-0.473484,0.168162,-0.398480,2025-02-19T16:18:10.845-06:00
41.000000,254.925146,0.323958,7.257974,44.939021,282.335146,89.733635,2.019095,3.000000,-93.173474,9.013266,2025-02-19T16:18:12.000-06:00,-0.224587,-0.979163,-0.034572,2025-02-19T16:18:11.842-06:00,-0.366058,0.016669,0.093936,2025-02-19T16:18:11.850-06:00
42.000000,254.850795,0.316961,7.258523,44.939016,282.260795,89.733635,2.012570,3.000000,-93.173370,8.591511,2025-02-19T16:18:13.000-06:00,-0.215569,-0.967262,-0.034064,2025-02-19T16:18:12.846-06:00,-0.243508,0.143113,0.138178,2025-02-19T16:18:12.845-06:00
43.000000,254.839835,0.312247,7.258876,44.939011,282.249835,89.733635,2.008302,3.000000,-93.173263,8.473750,2025-02-19T16:18:14.000-06:00,-0.237432,-0.994021,0.020831,2025-02-19T16:18:13.841-06:00,-0.495271,-0.124184,0.428110,2025-02-19T16:18:13.850-06:00
44.000000,254.790127,0.359834,7.256497,44.939006,282.200126,90.109154,2.005470,3.000000,-93.173158,8.167650,2025-02-19T16:18:15.000-06:00,-0.217562,-0.959836,-0.003032,2025-02-19T16:18:14.846-06:00,-0.251044,0.209632,0.146525,2025-02-19T16:18:14.845-06:00
45.000000,255.008679,0.326929,7.258475,44.939009,282.418678,90.109154,2.003654,3.000000,-93.173056,7.969998,2025-02-19T16:18:16.000-06:00,-0.203605,-0.983258,-0.060782,2025-02-19T16:18:15.841-06:00,-0.116346,-0.036333,-0.151336,2025-02-19T16:18:15.849-06:00
46.000000,255.152883,0.320432,7.258416,44.939014,282.562883,90.109154,2.002446,3.000000,-93.172951,8.014046,2025-02-19T16:18:17.000-06:00,-0.201481,-0.981518,-0.068966,2025-02-19T16:18:16.845-06:00,-0.187034,-0.008616,-0.132620,2025-02-19T16:18:16.844-06:00
47.000000,255.266863,0.309893,7.249076,44.939017,282.676863,90.109154,2.001649,3.000000,-93.172851,7.806937,2025-02-19T16:18:18.000-06:00,-0.162064,-0.972501,-0.084117,2025-02-19T16:18:17.850-06:00,0.129496,0.106402,-0.119224,2025-02-19T16:18:17.849-06:00
48.000000,255.564512,0.301450,7.246947,44.939018,282.974511,90.109154,2.130874,3.000000,-93.172745,8.159109,2025-02-19T16:18:19.000-06:00,-0.150937,-0.981881,-0.045547,2025-02-19T16:18:18.845-06:00,0.305952,-0.006916,0.091798,2025-02-19T16:18:18.844-06:00
49.000000,255.541794,0.291707,7.244956,44.939021,282.951794,90.109154,2.089219,3.000000,-93.172643,8.338109,2025-02-19T16:18:20.000-06:00,-0.170022,-0.974958,-0.060043,2025-02-19T16:18:19.850-06:00,0.120908,0.055442,0.010271,2025-02-19T16:18:19.848-06:00
50.000000,255.884084,0.267551,7.239733,44.939006,283.294084,90.109154,2.058227,3.000000,-93.172530,8.502947,2025-02-19T16:18:21.000-06:00,-0.189542,-0.988790,-0.053349,2025-02-19T16:18:20.845-06:00,-0.031304,-0.076947,0.067378,2025-02-19T16:18:20.843-06:00
51.000000,255.800960,0.292124,7.255555,44.939008,283.210959,90.109154,2.038546,3.000000,-93.172424,8.306800,2025-02-19T16:18:22.000-06:00,-0.230425,-0.971030,-0.067924,2025-02-19T16:18:21.849-06:00,-0.411543,0.085867,-0.062932,2025-02-19T16:18:21.848-06:00
52.000000,256.164678,0.282866,7.251066,44.939012,283.574678,89.691185,2.024924,3.000000,-93.172309,8.628511,2025-02-19T16:18:23.000-06:00,-0.224134,-0.961730,-0.080760,2025-02-19T16:18:22.844-06:00,-0.413603,0.188089,-0.122721,2025-02-19T16:18:22.843-06:00
53.000000,256.269235,0.293428,7.246582,44.939011,283.679234,89.691185,2.016375,3.000000,-93.172207,8.003697,2025-02-19T16:18:24.000-06:00,-0.231013,-0.965419,-0.083065,2025-02-19T16:18:23.849-06:00,-0.423469,0.140303,-0.106758,2025-02-19T16:18:23.848-06:00
54.000000,256.201700,0.303154,7.258139,44.939013,283.611700,89.691185,2.438724,3.000000,-93.172108,7.705428,2025-02-19T16:18:25.000-06:00,-0.227378,-0.976451,-0.074317,2025-02-19T16:18:24.844-06:00,-0.386262,0.029996,-0.067437,2025-02-19T16:18:24.842-06:00
55.000000,256.371755,0.313492,7.258702,44.939012,283.781755,89.691185,2.300371,3.000000,-93.172013,7.392983,2025-02-19T16:18:26.000-06:00,-0.221024,-0.956423,-0.083048,2025-02-19T16:18:25.848-06:00,-0.338354,0.218535,-0.106753,2025-02-19T16:18:25.847-06:00
56.000000,256.399815,0.328666,7.256636,44.939014,283.809815,89.691185,2.210314,3.000000,-93.171925,6.906274,2025-02-19T16:18:27.000-06:00,-0.226233,-0.975922,-0.094032,2025-02-19T16:18:26.843-06:00,-0.258984,0.012113,-0.111383,2025-02-19T16:18:26.842-06:00
57.000000,256.342513,0.392317,7.225876,44.939014,283.752513,88.184364,2.188420,3.000000,-93.171843,6.639853,2025-02-19T16:18:28.000-06:00,-0.275949,-0.962286,-0.102099,2025-02-19T16:18:27.848-06:00,-0.775465,0.144616,-0.206700,2025-02-19T16:18:27.847-06:00
58.000000,256.367907,0.465255,7.160840,44.939014,283.777907,87.450653,2.146512,3.000000,-93.171768,5.972734,2025-02-19T16:18:29.000-06:00,-0.343148,-0.941906,-0.111439,2025-02-19T16:18:28.843-06:00,-1.359739,0.331737,-0.307656,2025-02-19T16:18:28.842-06:00
59.000000,256.379585,0.497650,8.191836,44.939014,283.789585,87.450653,2.248913,3.000000,-93.171706,4.702116,2025-02-19T16:18:30.000-06:00,-0.374725,-0.932671,-0.102241,2025-02-19T16:18:29.848-06:00,-1.537081,0.400530,-0.310949,2025-02-19T16:18:29.846-06:00
60.000000,256.575948,0.434713,8.952666,44.939015,283.985948,87.450653,2.300806,3.000000,-93.171667,3.019730,2025-02-19T16:18:31.000-06:00,-0.338372,-0.944173,-0.076093,2025-02-19T16:18:30.842-06:00,-1.022626,0.250715,-0.152864,2025-02-19T16:18:30.841-06:00
61.000000,256.805230,0.379637,16.924238,44.939017,284.215230,87.450653,2.257834,3.000000,-93.171652,1.390350,2025-02-19T16:18:32.000-06:00,-0.215169,-0.972879,-0.061295,2025-02-19T16:18:31.847-06:00,0.249890,-0.040883,0.032384,2025-02-19T16:18:31.846-06:00
62.000000,257.078010,0.363057,22.200805,44.939022,284.488009,87.450653,2.290946,3.000000,-93.171639,1.062478,2025-02-19T16:18:33.000-06:00,-0.192531,-0.979810,-0.050837,2025-02-19T16:18:32.842-06:00,0.412369,-0.093737,0.094938,2025-02-19T16:18:32.841-06:00
63.000000,257.181704,0.364623,27.295659,44.939016,284.591704,87.450653,2.306878,3.000000,-93.171632,0.862801,2025-02-19T16:18:34.000-06:00,-0.172934,-0.984988,-0.039967,2025-02-19T16:18:33.847-06:00,0.528914,-0.124485,0.138623,2025-02-19T16:18:33.845-06:00
64.000000,257.291003,0.375419,25.006494,44.939014,284.701003,87.450653,2.408107,3.000000,-93.171620,0.948112,2025-02-19T16:18:35.000-06:00,-0.041146,-1.011120,-0.008825,2025-02-19T16:18:34.841-06:00,1.794689,-0.373454,0.449009,2025-02-19T16:18:34.850-06:00
65.000000,257.282854,0.441692,17.176427,44.939012,284.692854,87.450653,2.435323,3.000000,-93.171597,1.952876,2025-02-19T16:18:36.000-06:00,-0.088736,-1.006004,-0.004839,2025-02-19T16:18:35.846-06:00,1.232950,-0.308116,0.479545,2025-02-19T16:18:35.845-06:00
66.000000,257.551543,0.309491,8.171836,44.939012,284.961543,87.450653,2.399046,3.000000,-93.171554,3.053907,2025-02-19T16:18:37.000-06:00,-0.095060,-1.000640,-0.004321,2025-02-19T16:18:36.841-06:00,1.159630,-0.242556,0.491722,2025-02-19T16:18:36.850-06:00
67.000000,257.921913,0.265871,8.002022,44.939016,285.331913,87.450653,2.368350,3.000000,-93.171498,4.146601,2025-02-19T16:18:38.000-06:00,-0.104566,-0.971770,-0.059818,2025-02-19T16:18:37.846-06:00,1.112025,0.014492,0.062645,2025-02-19T16:18:37.844-06:00
68.000000,258.203199,0.379390,12.687106,44.939021,285.613199,87.450653,2.424902,3.000000,-93.171421,5.808731,2025-02-19T16:18:39.000-06:00,-0.139141,-0.999780,-0.076163,2025-02-19T16:18:38.841-06:00,0.755485,-0.246363,-0.135067,2025-02-19T16:18:38.849-06:00
69.000000,258.068630,0.326940,7.490483,44.939027,285.478630,88.985893,2.404967,3.000000,-93.171346,6.419670,2025-02-19T16:18:40.000-06:00,-0.142287,-0.993533,-0.092303,2025-02-19T16:18:39.845-06:00,0.517576,-0.144932,-0.396426,2025-02-19T16:18:39.844-06:00
70.000000,258.280721,0.349945,7.295089,44.939029,285.690721,88.985893,2.443188,3.000000,-93.171262,6.946606,2025-02-19T16:18:41.000-06:00,-0.135617,-0.988374,-0.074666,2025-02-19T16:18:40.850-06:00,0.452979,-0.053898,-0.226567,2025-02-19T16:18:40.849-06:00
71.000000,258.522960,0.339790,7.256412,44.939032,285.932960,90.505730,2.402944,3.000000,-93.171174,7.414697,2025-02-19T16:18:42.000-06:00,-0.159740,-0.986711,-0.028471,2025-02-19T16:18:41.845-06:00,0.107564,-0.015435,0.167421,2025-02-19T16:18:41.844-06:00
72.000000,258.493122,0.329314,7.257236,44.939034,285.903122,90.505730,2.346086,3.000000,-93.171081,7.583562,2025-02-19T16:18:43.000-06:00,-0.209916,-0.970986,-0.072306,2025-02-19T16:18:42.850-06:00,-0.365331,0.115839,-0.224014,2025-02-19T16:18:42.848-06:00
73.000000,258.508558,0.319912,7.257716,44.939035,285.918558,90.505730,2.285992,3.000000,-93.170986,7.730047,2025-02-19T16:18:44.000-06:00,-0.211174,-0.967687,-0.069968,2025-02-19T16:18:43.844-06:00,-0.370333,0.149943,-0.197585,2025-02-19T16:18:43.843-06:00
74.000000,258.612139,0.324616,7.254907,44.939032,286.022139,90.505730,2.220282,3.000000,-93.170899,7.304363,2025-02-19T16:18:45.000-06:00,-0.202969,-0.983670,-0.036598,2025-02-19T16:18:44.849-06:00,-0.259141,0.003514,0.049767,2025-02-19T16:18:44.848-06:00
75.000000,258.683938,0.336677,7.255837,44.939019,286.093938,90.000000,2.496114,3.000000,-93.170813,6.996486,2025-02-19T16:18:46.000-06:00,-0.180376,-0.979984,-0.011925,2025-02-19T16:18:45.844-06:00,-0.018774,0.028750,0.227522,2025-02-19T16:18:45.843-06:00
76.000000,258.796143,0.317291,7.251431,44.939020,286.206143,90.000000,2.370327,3.000000,-93.170725,6.866835,2025-02-19T16:18:47.000-06:00,-0.150532,-0.972897,-0.045697,2025-02-19T16:18:46.849-06:00,0.244944,0.098506,0.005184,2025-02-19T16:18:46.847-06:00
77.000000,258.856421,0.293105,7.247678,44.939022,286.266420,90.000000,2.277007,3.000000,-93.170630,7.085308,2025-02-19T16:18:48.000-06:00,-0.212676,-0.994903,-0.055905,2025-02-19T16:18:47.843-06:00,-0.310298,-0.128737,-0.073249,2025-02-19T16:18:47.842-06:00
78.000000,258.967682,0.285167,7.247781,44.939023,286.377682,90.000000,2.202301,3.000000,-93.170529,7.636353,2025-02-19T16:18:49.000-06:00,-0.219690,-0.957791,-0.053721,2025-02-19T16:18:48.848-06:00,-0.343439,0.248193,-0.204277,2025-02-19T16:18:48.847-06:00
79.000000,258.826910,0.303605,7.257882,44.939027,286.236910,90.000000,2.150138,3.000000,-93.170441,7.074581,2025-02-19T16:18:50.000-06:00,-0.246479,-0.973742,-0.012332,2025-02-19T16:18:49.843-06:00,-0.530525,0.065218,0.206705,2025-02-19T16:18:49.842-06:00
80.000000,258.862243,0.310867,7.258638,44.939030,286.272243,90.000000,2.112616,3.000000,-93.170353,6.919709,2025-02-19T16:18:51.000-06:00,-0.221024,-0.973080,-0.074214,2025-02-19T16:18:50.848-06:00,-0.388950,0.087576,-0.269219,2025-02-19T16:18:50.846-06:00
81.000000,259.032261,0.299167,7.257896,44.939031,286.442260,90.000000,2.084762,3.000000,-93.170267,6.648180,2025-02-19T16:18:52.000-06:00,-0.236021,-0.968495,-0.047109,2025-02-19T16:18:51.843-06:00,-0.424350,0.119793,-0.113571,2025-02-19T16:18:51.841-06:00
82.000000,258.834792,0.309366,7.258960,44.939032,286.244792,90.000000,2.064980,3.000000,-93.170187,6.218493,2025-02-19T16:18:53.000-06:00,-0.217414,-0.961134,-0.038075,2025-02-19T16:18:52.847-06:00,-0.214424,0.181967,-0.002373,2025-02-19T16:18:52.846-06:00
83.000000,258.763997,0.351888,7.248379,44.939033,286.173996,90.000000,2.051090,3.000000,-93.170112,5.767569,2025-02-19T16:18:54.000-06:00,-0.232167,-0.975927,-0.044808,2025-02-19T16:18:53.842-06:00,-0.330033,0.043519,-0.046320,2025-02-19T16:18:53.841-06:00
84.000000,258.851559,0.331849,7.255595,44.939034,286.261559,90.000000,2.042575,3.000000,-93.170040,5.658820,2025-02-19T16:18:55.000-06:00,-0.222017,-0.975614,-0.057733,2025-02-19T16:18:54.847-06:00,-0.177474,0.017378,-0.151550,2025-02-19T16:18:54.846-06:00
85.000000,259.075980,0.368165,7.291336,44.939034,286.485980,90.000000,2.126081,3.000000,-93.169973,5.277323,2025-02-19T16:18:56.000-06:00,-0.220178,-0.965549,-0.038100,2025-02-19T16:18:55.842-06:00,-0.197417,0.137435,-0.011636,2025-02-19T16:18:55.850-06:00
86.000000,259.300472,0.344874,8.079428,44.939033,286.710472,90.000000,2.110321,3.000000,-93.169909,4.918034,2025-02-19T16:18:57.000-06:00,-0.253573,-0.966047,-0.049583,2025-02-19T16:18:56.846-06:00,-0.440527,0.099824,-0.103417,2025-02-19T16:18:56.845-06:00
87.000000,259.234105,0.370671,8.345602,44.939034,286.644105,90.000000,2.098063,3.000000,-93.169847,4.696963,2025-02-19T16:18:58.000-06:00,-0.296746,-0.960949,-0.061375,2025-02-19T16:18:57.841-06:00,-0.882950,0.164373,-0.196236,2025-02-19T16:18:57.850-06:00
88.000000,259.418150,0.426485,10.626092,44.939024,286.828150,90.000000,2.099952,3.000000,-93.169795,3.858213,2025-02-19T16:18:59.000-06:00,-0.303504,-0.950755,-0.061199,2025-02-19T16:18:58.846-06:00,-0.850586,0.243966,-0.161442,2025-02-19T16:18:58.845-06:00
89.000000,259.434367,0.460265,12.079789,44.939026,286.844367,90.000000,2.090866,3.000000,-93.169761,2.807576,2025-02-19T16:19:00.000-06:00,-0.288604,-0.954950,-0.067109,2025-02-19T16:18:59.841-06:00,-0.631514,0.178298,-0.151866,2025-02-19T16:18:59.849-06:00
90.000000,259.530215,0.423286,13.231183,44.939027,286.940215,90.000000,2.133625,3.000000,-93.169738,1.811633,2025-02-19T16:19:01.000-06:00,-0.238129,-0.971296,-0.058347,2025-02-19T16:19:00.845-06:00,-0.139422,0.016690,-0.037203,2025-02-19T16:19:00.844-06:00
91.000000,259.655793,0.386695,23.015350,44.939028,287.065792,90.000000,2.123346,3.000000,-93.169726,1.032881,2025-02-19T16:19:02.000-06:00,-0.163010,-0.984365,-0.041047,2025-02-19T16:19:01.850-06:00,0.571744,-0.099586,0.053301,2025-02-19T16:19:01.849-06:00
92.000000,259.709666,0.394659,19.824016,44.939027,287.119665,90.000000,2.134348,3.000000,-93.169711,1.204967,2025-02-19T16:19:03.000-06:00,-0.080176,-0.998143,-0.065475,2025-02-19T16:19:02.845-06:00,1.344367,-0.230198,-0.125735,2025-02-19T16:19:02.844-06:00
93.000000,259.717829,0.327583,10.201862,44.939026,287.127829,90.000000,2.125391,3.000000,-93.169687,2.422132,2025-02-19T16:19:04.000-06:00,-0.174611,-0.978508,-0.059182,2025-02-19T16:19:03.850-06:00,0.503312,-0.055703,-0.144585,2025-02-19T16:19:03.849-06:00
