seconds_elapsed,location_altitude,location_speedAccuracy,location_bearingAccuracy,location_latitude,location_altitudeAboveMeanSeaLevel,location_bearing,location_horizontalAccuracy,location_verticalAccuracy,location_longitude,location_speed,location_local_time,accelerometerUncalibrated_z,accelerometerUncalibrated_y,accelerometerUncalibrated_x,accelerometerUncalibrated_local_time,accelerometer_z,accelerometer_y,accelerometer_x,accelerometer_local_time
0.000000,264.112126,2.136110,30.092747,44.934431,291.522125,354.282598,2.984692,3.000000,-93.166969,5.739409,2025-02-19T15:54:17.000-06:00,-0.133054,-0.993941,-0.062755,2025-02-19T15:54:16.059-06:00,0.286702,-0.083666,-0.165599,2025-02-19T15:54:16.057-06:00
1.000000,263.961351,2.092863,25.985964,44.934494,291.371351,358.458121,2.985435,3.000000,-93.166964,6.505003,2025-02-19T15:54:18.000-06:00,-0.123244,-0.990051,-0.022009,2025-02-19T15:54:17.034-06:00,0.341547,-0.039747,0.272568,2025-02-19T15:54:17.042-06:00
2.000000,264.037130,2.036448,22.638453,44.934563,291.447130,0.150170,3.016219,3.000000,-93.166966,7.234162,2025-02-19T15:54:19.000-06:00,-0.112403,-1.001819,-0.034756,2025-02-19T15:54:18.038-06:00,0.367984,-0.138677,0.259879,2025-02-19T15:54:18.037-06:00
3.000000,264.052037,1.968077,19.058262,44.934641,291.462036,359.502319,3.002360,3.000000,-93.166967,8.306578,2025-02-19T15:54:20.000-06:00,-0.110888,-0.993215,-0.038619,2025-02-19T15:54:19.033-06:00,0.340302,-0.067652,0.280306,2025-02-19T15:54:19.042-06:00
4.000000,263.859899,1.892920,16.802979,44.934726,291.269898,359.502319,2.932343,3.000000,-93.166969,9.109340,2025-02-19T15:54:21.000-06:00,-0.130272,-0.992360,-0.069119,2025-02-19T15:54:20.038-06:00,0.081207,-0.043771,0.113531,2025-02-19T15:54:20.037-06:00
5.000000,263.789860,1.859622,15.471929,44.934815,291.199860,0.000000,2.591189,3.000000,-93.166970,9.691667,2025-02-19T15:54:22.000-06:00,-0.139015,-0.989283,-0.058260,2025-02-19T15:54:21.033-06:00,0.007307,-0.027637,0.208670,2025-02-19T15:54:21.041-06:00
6.000000,263.627673,1.834029,14.409283,44.934909,291.037673,0.000000,2.837645,3.000000,-93.166970,10.290435,2025-02-19T15:54:23.000-06:00,-0.137878,-0.991074,-0.068110,2025-02-19T15:54:22.037-06:00,-0.019396,-0.033798,0.113049,2025-02-19T15:54:22.036-06:00
7.000000,263.860562,1.824502,13.499826,44.935009,291.270562,0.000000,3.032682,3.000000,-93.166971,10.922729,2025-02-19T15:54:24.000-06:00,-0.135679,-0.991171,-0.059049,2025-02-19T15:54:23.042-06:00,-0.005301,-0.031522,0.138677,2025-02-19T15:54:23.041-06:00
8.000000,263.893659,1.818671,12.826244,44.935115,291.303659,0.000000,2.693676,3.000000,-93.166969,11.487320,2025-02-19T15:54:25.000-06:00,-0.139104,-0.984869,-0.062317,2025-02-19T15:54:24.037-06:00,-0.067001,0.033216,0.126979,2025-02-19T15:54:24.036-06:00
9.000000,263.993006,1.798856,12.133850,44.935224,291.403006,0.000000,2.817841,3.000000,-93.166972,12.012537,2025-02-19T15:54:26.000-06:00,-0.141176,-0.971940,-0.067282,2025-02-19T15:54:25.042-06:00,-0.034622,0.151695,0.106040,2025-02-19T15:54:25.040-06:00
10.000000,263.837626,1.766347,11.455648,44.935339,291.247626,0.000000,2.500886,3.000000,-93.166971,12.493550,2025-02-19T15:54:27.000-06:00,-0.176178,-1.008604,-0.045537,2025-02-19T15:54:26.036-06:00,-0.334562,-0.202642,0.101701,2025-02-19T15:54:26.035-06:00
11.000000,264.080766,1.742365,10.959294,44.935458,291.490766,0.000000,3.509031,3.000000,-93.166975,12.880923,2025-02-19T15:54:28.000-06:00,-0.160651,-0.978178,-0.052347,2025-02-19T15:54:27.041-06:00,-0.256798,0.101275,0.134512,2025-02-19T15:54:27.040-06:00
12.000000,264.075451,1.745695,10.754528,44.935577,291.485451,0.000000,2.806162,3.000000,-93.166972,13.151629,2025-02-19T15:54:29.000-06:00,-0.167114,-0.978933,-0.059756,2025-02-19T15:54:28.036-06:00,-0.302286,0.093922,0.120823,2025-02-19T15:54:28.035-06:00
13.000000,264.054422,1.757124,10.614121,44.935698,291.464422,0.000000,2.398869,3.000000,-93.166973,13.412699,2025-02-19T15:54:30.000-06:00,-0.164140,-0.981590,-0.063806,2025-02-19T15:54:29.041-06:00,-0.262867,0.058198,0.106898,2025-02-19T15:54:29.039-06:00
14.000000,264.089017,1.722554,10.173497,44.935823,291.499017,0.230499,2.193983,3.000000,-93.166974,13.717567,2025-02-19T15:54:31.000-06:00,-0.168323,-0.993666,-0.088680,2025-02-19T15:54:30.035-06:00,-0.251836,-0.064466,-0.118557,2025-02-19T15:54:30.034-06:00
15.000000,264.024459,1.725760,10.038978,44.935948,291.434459,0.230499,3.106605,3.000000,-93.166975,13.928499,2025-02-19T15:54:32.000-06:00,-0.162017,-0.969879,-0.068114,2025-02-19T15:54:31.040-06:00,-0.156774,0.162550,-0.044978,2025-02-19T15:54:31.039-06:00
16.000000,264.431482,0.306179,7.258143,44.936081,291.841482,0.230499,2.516571,3.000000,-93.166970,14.188107,2025-02-19T15:54:33.000-06:00,-0.183540,-0.985615,-0.058626,2025-02-19T15:54:32.035-06:00,-0.350687,0.017005,0.071039,2025-02-19T15:54:32.034-06:00
17.000000,264.212443,0.303787,7.258367,44.936212,291.622443,359.878601,2.240891,3.000000,-93.166966,14.393006,2025-02-19T15:54:34.000-06:00,-0.173548,-0.957977,-0.060107,2025-02-19T15:54:33.040-06:00,-0.198716,0.274004,0.074850,2025-02-19T15:54:33.038-06:00
18.000000,264.164339,0.300856,7.257899,44.936346,291.574339,359.878601,2.111023,3.000000,-93.166966,14.622053,2025-02-19T15:54:35.000-06:00,-0.183139,-1.003015,-0.056112,2025-02-19T15:54:34.035-06:00,-0.305142,-0.168339,0.076587,2025-02-19T15:54:34.033-06:00
19.000000,264.191986,0.298346,7.257973,44.936480,291.601986,359.878601,2.050723,3.000000,-93.166966,14.735634,2025-02-19T15:54:36.000-06:00,-0.175441,-0.978664,-0.077144,2025-02-19T15:54:35.039-06:00,-0.215290,0.073534,-0.063298,2025-02-19T15:54:35.038-06:00
20.000000,264.213574,0.293614,7.257642,44.936615,291.623574,359.878601,2.023204,3.000000,-93.166965,14.921067,2025-02-19T15:54:37.000-06:00,-0.172532,-0.983262,-0.070753,2025-02-19T15:54:36.034-06:00,-0.166038,0.015868,0.004628,2025-02-19T15:54:36.033-06:00
21.000000,264.449252,0.284009,7.255115,44.936751,291.859252,0.133632,2.010530,3.000000,-93.166965,14.976575,2025-02-19T15:54:38.000-06:00,-0.183910,-0.978300,-0.063803,2025-02-19T15:54:37.039-06:00,-0.257816,0.063244,0.046544,2025-02-19T15:54:37.038-06:00
22.000000,264.530821,0.282346,7.254861,44.936887,291.940821,0.133632,2.004746,3.000000,-93.166965,15.088402,2025-02-19T15:54:39.000-06:00,-0.180360,-0.988942,-0.071513,2025-02-19T15:54:38.034-06:00,-0.225466,-0.034818,-0.009189,2025-02-19T15:54:38.042-06:00
23.000000,264.779286,0.277747,7.253115,44.937025,292.189285,0.679109,2.002121,3.000000,-93.166966,15.189169,2025-02-19T15:54:40.000-06:00,-0.179237,-0.975464,-0.081907,2025-02-19T15:54:39.038-06:00,-0.201184,0.081235,-0.105730,2025-02-19T15:54:39.037-06:00
24.000000,264.875293,0.282064,7.255936,44.937167,292.285293,359.884857,2.000932,3.000000,-93.166964,15.362942,2025-02-19T15:54:41.000-06:00,-0.177342,-0.980974,-0.080117,2025-02-19T15:54:40.033-06:00,-0.126369,0.027077,-0.091425,2025-02-19T15:54:40.042-06:00
25.000000,265.052537,0.267271,7.251513,44.937309,292.462537,359.884857,2.000408,3.000000,-93.166963,15.538219,2025-02-19T15:54:42.000-06:00,-0.187214,-0.973351,-0.078984,2025-02-19T15:54:41.038-06:00,-0.257825,0.111851,-0.021711,2025-02-19T15:54:41.037-06:00
26.000000,265.207878,0.274011,7.252365,44.937448,292.617878,359.884857,2.000178,3.000000,-93.166963,15.301832,2025-02-19T15:54:43.000-06:00,-0.249566,-0.964560,-0.065236,2025-02-19T15:54:42.033-06:00,-0.807926,0.190203,0.040806,2025-02-19T15:54:42.041-06:00
27.000000,265.324667,0.291746,7.255183,44.937581,292.734666,0.565796,2.000079,3.000000,-93.166965,14.798057,2025-02-19T15:54:44.000-06:00,-0.247279,-0.961154,-0.082357,2025-02-19T15:54:43.037-06:00,-0.751938,0.204366,-0.109650,2025-02-19T15:54:43.036-06:00
28.000000,265.526137,0.288128,7.255902,44.937711,292.936137,0.565796,2.000036,3.000000,-93.166966,14.250992,2025-02-19T15:54:45.000-06:00,-0.250765,-0.971526,-0.093102,2025-02-19T15:54:44.042-06:00,-0.737764,0.101000,-0.225114,2025-02-19T15:54:44.041-06:00
29.000000,265.499161,0.322160,7.258591,44.937834,292.909161,0.000000,2.626954,3.000000,-93.166965,13.765801,2025-02-19T15:54:46.000-06:00,-0.219355,-0.961025,-0.071169,2025-02-19T15:54:45.037-06:00,-0.351295,0.198007,-0.022222,2025-02-19T15:54:45.036-06:00
30.000000,265.538174,0.338590,7.257471,44.937956,292.948174,0.000000,2.345879,3.000000,-93.166962,13.591997,2025-02-19T15:54:47.000-06:00,-0.208515,-0.964953,-0.095595,2025-02-19T15:54:46.042-06:00,-0.223673,0.134509,-0.141204,2025-02-19T15:54:46.040-06:00
31.000000,265.484228,0.415832,7.243277,44.938075,292.894227,0.000000,3.058001,3.000000,-93.166965,13.481462,2025-02-19T15:54:48.000-06:00,-0.217895,-0.951298,-0.073344,2025-02-19T15:54:47.036-06:00,-0.134531,0.247782,0.019294,2025-02-19T15:54:47.035-06:00
32.000000,265.334993,0.444542,7.233282,44.938195,292.744993,0.000000,2.696282,3.000000,-93.166965,13.297552,2025-02-19T15:54:49.000-06:00,-0.215623,-0.967708,-0.075369,2025-02-19T15:54:48.041-06:00,-0.044570,0.065753,0.011684,2025-02-19T15:54:48.040-06:00
33.000000,265.101746,0.421440,7.239975,44.938315,292.511746,0.435836,2.343056,3.000000,-93.166964,13.325811,2025-02-19T15:54:50.000-06:00,-0.219522,-0.973868,-0.063840,2025-02-19T15:54:49.036-06:00,-0.066440,0.012107,0.020210,2025-02-19T15:54:49.035-06:00
34.000000,264.839518,0.408132,7.241964,44.938435,292.249518,0.435836,2.617421,3.000000,-93.166962,13.368611,2025-02-19T15:54:51.000-06:00,-0.219113,-0.974391,-0.062289,2025-02-19T15:54:50.041-06:00,-0.068153,0.006131,0.030064,2025-02-19T15:54:50.039-06:00
35.000000,264.611229,0.406447,7.240683,44.938556,292.021229,0.435836,2.430486,3.000000,-93.166964,13.420280,2025-02-19T15:54:52.000-06:00,-0.218982,-0.968492,-0.064282,2025-02-19T15:54:51.035-06:00,-0.051619,0.060401,0.008359,2025-02-19T15:54:51.034-06:00
36.000000,264.672670,0.390562,7.245907,44.938677,292.082670,0.435836,2.942172,3.000000,-93.166964,13.216774,2025-02-19T15:54:53.000-06:00,-0.238151,-0.969374,-0.066212,2025-02-19T15:54:52.040-06:00,-0.238553,0.047956,0.055904,2025-02-19T15:54:52.039-06:00
37.000000,264.568390,0.420064,7.236920,44.938794,291.978390,0.435836,2.465223,3.000000,-93.166965,13.029677,2025-02-19T15:54:54.000-06:00,-0.231967,-0.967788,-0.079650,2025-02-19T15:54:53.035-06:00,-0.184666,0.061629,-0.022296,2025-02-19T15:54:53.034-06:00
38.000000,264.495447,0.431536,7.235771,44.938909,291.905447,0.283031,2.357284,3.000000,-93.166966,12.748781,2025-02-19T15:54:55.000-06:00,-0.238812,-0.972089,-0.090726,2025-02-19T15:54:54.040-06:00,-0.245647,0.016311,-0.141526,2025-02-19T15:54:54.038-06:00
39.000000,264.474458,0.400141,7.246942,44.939022,291.884458,0.283031,2.179883,3.000000,-93.166965,12.488954,2025-02-19T15:54:56.000-06:00,-0.232445,-0.960530,-0.096260,2025-02-19T15:54:55.034-06:00,-0.237910,0.130458,-0.082830,2025-02-19T15:54:55.033-06:00
40.000000,264.146190,0.544810,7.182580,44.939131,291.556189,0.283031,2.308961,3.000000,-93.166965,12.200465,2025-02-19T15:54:57.000-06:00,-0.234499,-0.958677,-0.095552,2025-02-19T15:54:56.039-06:00,-0.157829,0.113946,0.079227,2025-02-19T15:54:56.038-06:00
41.000000,263.740705,0.623769,7.105396,44.939238,291.150705,0.225607,2.160441,3.000000,-93.166968,11.901705,2025-02-19T15:54:58.000-06:00,-0.288412,-0.953054,-0.126415,2025-02-19T15:54:57.034-06:00,-0.644988,0.151719,-0.145146,2025-02-19T15:54:57.033-06:00
42.000000,263.416389,0.739478,7.002782,44.939336,290.826389,0.225607,2.112697,3.000000,-93.166967,10.940896,2025-02-19T15:54:59.000-06:00,-0.309138,-0.949624,-0.121867,2025-02-19T15:54:58.039-06:00,-0.823437,0.185969,-0.143425,2025-02-19T15:54:58.038-06:00
43.000000,263.272929,0.741380,6.932403,44.939425,290.682929,359.584412,2.062002,3.000000,-93.166966,10.003047,2025-02-19T15:55:00.000-06:00,-0.305986,-0.948513,-0.118431,2025-02-19T15:54:59.034-06:00,-0.757677,0.188157,-0.153698,2025-02-19T15:54:59.042-06:00
44.000000,262.937139,0.784317,6.739285,44.939508,290.347139,0.000000,2.035154,3.000000,-93.166965,9.097815,2025-02-19T15:55:01.000-06:00,-0.304399,-0.949665,-0.117620,2025-02-19T15:55:00.038-06:00,-0.636782,0.156155,-0.159909,2025-02-19T15:55:00.037-06:00
45.000000,262.831371,0.743795,6.692290,44.939582,290.241371,0.000000,2.020880,3.000000,-93.166963,8.208012,2025-02-19T15:55:02.000-06:00,-0.305016,-0.947630,-0.116253,2025-02-19T15:55:01.033-06:00,-0.593958,0.166210,-0.147671,2025-02-19T15:55:01.042-06:00
46.000000,262.659766,0.749792,6.505199,44.939647,290.069766,359.692200,2.012812,3.000000,-93.166961,7.339157,2025-02-19T15:55:03.000-06:00,-0.284058,-0.956513,-0.110019,2025-02-19T15:55:02.038-06:00,-0.297169,0.053990,-0.074304,2025-02-19T15:55:02.037-06:00
47.000000,262.688552,0.674022,6.678212,44.939711,290.098552,359.692200,2.008862,3.000000,-93.166958,6.866178,2025-02-19T15:55:04.000-06:00,-0.271783,-0.967884,-0.089706,2025-02-19T15:55:03.033-06:00,-0.193211,-0.046502,0.032939,2025-02-19T15:55:03.041-06:00
48.000000,262.489917,0.681442,6.487153,44.939768,289.899917,359.692200,2.096756,3.000000,-93.166958,6.429350,2025-02-19T15:55:05.000-06:00,-0.251443,-0.955008,-0.099311,2025-02-19T15:55:04.037-06:00,0.047509,0.063253,0.000162,2025-02-19T15:55:04.036-06:00
49.000000,262.541696,0.643424,6.577646,44.939821,289.951696,0.000000,2.121337,3.000000,-93.166956,5.968242,2025-02-19T15:55:06.000-06:00,-0.261066,-0.956409,-0.091436,2025-02-19T15:55:05.042-06:00,-0.008514,0.038089,0.031977,2025-02-19T15:55:05.041-06:00
50.000000,262.508007,0.611283,6.745526,44.939872,289.918007,0.000000,2.133300,3.000000,-93.166955,5.634198,2025-02-19T15:55:07.000-06:00,-0.226525,-0.975611,-0.087130,2025-02-19T15:55:06.037-06:00,0.309157,-0.136230,0.105980,2025-02-19T15:55:06.036-06:00
51.000000,262.638868,0.598531,6.910817,44.939925,290.048868,0.000000,2.114257,3.000000,-93.166955,5.697624,2025-02-19T15:55:08.000-06:00,-0.195360,-0.975147,-0.093183,2025-02-19T15:55:07.042-06:00,0.521141,-0.119712,0.103784,2025-02-19T15:55:07.040-06:00
52.000000,262.710268,0.605164,7.512724,44.939979,290.120268,0.000000,2.146273,3.000000,-93.166954,5.991142,2025-02-19T15:55:09.000-06:00,-0.178444,-0.979446,-0.084898,2025-02-19T15:55:08.036-06:00,0.677161,-0.154942,0.137993,2025-02-19T15:55:08.035-06:00
53.000000,262.758847,0.437175,7.206052,44.940037,290.168847,0.000000,2.129606,3.000000,-93.166953,6.279657,2025-02-19T15:55:10.000-06:00,-0.167336,-0.988300,-0.067191,2025-02-19T15:55:09.041-06:00,0.689372,-0.201633,0.177683,2025-02-19T15:55:09.040-06:00
54.000000,262.873543,0.305611,7.257368,44.940098,290.283543,0.000000,2.129780,3.000000,-93.166957,6.745494,2025-02-19T15:55:11.000-06:00,-0.142943,-0.981918,-0.084594,2025-02-19T15:55:10.036-06:00,0.769456,-0.118246,0.118002,2025-02-19T15:55:10.035-06:00
55.000000,262.878713,0.303361,7.256114,44.940166,290.288712,0.195515,2.108422,3.000000,-93.166959,7.315377,2025-02-19T15:55:12.000-06:00,-0.148394,-0.970994,-0.086354,2025-02-19T15:55:11.041-06:00,0.781493,-0.027182,0.162218,2025-02-19T15:55:11.039-06:00
56.000000,262.635237,0.278997,7.254085,44.940237,290.045237,0.195515,2.090082,3.000000,-93.166959,7.845851,2025-02-19T15:55:13.000-06:00,-0.164859,-0.986122,-0.075309,2025-02-19T15:55:12.035-06:00,0.765855,-0.193297,0.139448,2025-02-19T15:55:12.034-06:00
57.000000,262.645327,0.277362,7.255252,44.940316,290.055327,0.195515,2.206215,3.000000,-93.166962,8.457467,2025-02-19T15:55:14.000-06:00,-0.173834,-0.985333,-0.082959,2025-02-19T15:55:13.040-06:00,0.563611,-0.157404,0.012327,2025-02-19T15:55:13.039-06:00
58.000000,262.683219,0.290522,7.256317,44.940396,290.093219,0.195515,2.268486,3.000000,-93.166962,8.681414,2025-02-19T15:55:15.000-06:00,-0.220424,-0.971428,-0.097177,2025-02-19T15:55:14.035-06:00,0.033250,-0.005218,-0.125988,2025-02-19T15:55:14.034-06:00
59.000000,262.766424,0.296541,7.256876,44.940474,290.176423,0.195515,2.174215,3.000000,-93.166961,8.541966,2025-02-19T15:55:16.000-06:00,-0.229860,-0.966140,-0.096362,2025-02-19T15:55:15.040-06:00,-0.122426,0.059168,-0.110957,2025-02-19T15:55:15.038-06:00
60.000000,262.806784,0.296178,7.256566,44.940549,290.216784,0.195515,2.115155,3.000000,-93.166960,8.368584,2025-02-19T15:55:17.000-06:00,-0.231078,-0.965264,-0.096336,2025-02-19T15:55:16.034-06:00,-0.153347,0.068542,-0.059208,2025-02-19T15:55:16.033-06:00
61.000000,262.845600,0.295947,7.257324,44.940622,290.255600,0.195515,2.815095,3.000000,-93.166959,8.154959,2025-02-19T15:55:18.000-06:00,-0.228608,-0.969764,-0.089346,2025-02-19T15:55:17.039-06:00,-0.136447,0.024443,-0.007520,2025-02-19T15:55:17.038-06:00
62.000000,262.667688,0.294816,7.256794,44.940693,290.077688,0.195515,2.563449,3.000000,-93.166958,7.960289,2025-02-19T15:55:19.000-06:00,-0.221142,-0.966366,-0.070516,2025-02-19T15:55:18.034-06:00,0.018892,0.056597,0.076690,2025-02-19T15:55:18.033-06:00
63.000000,262.692347,0.302601,7.258628,44.940766,290.102347,359.438263,2.472348,3.000000,-93.166962,8.153742,2025-02-19T15:55:20.000-06:00,-0.157719,-0.985105,-0.052425,2025-02-19T15:55:19.039-06:00,0.588351,-0.106670,0.131672,2025-02-19T15:55:19.037-06:00
64.000000,262.543822,0.286184,7.257693,44.940845,289.953822,359.107117,2.494181,3.000000,-93.166963,8.632206,2025-02-19T15:55:21.000-06:00,-0.211487,-0.974670,-0.056150,2025-02-19T15:55:20.033-06:00,0.056634,-0.008399,0.093141,2025-02-19T15:55:20.042-06:00
65.000000,262.459867,0.293468,7.257542,44.940922,289.869867,359.107208,2.411618,3.000000,-93.166962,8.428259,2025-02-19T15:55:22.000-06:00,-0.242626,-0.966280,-0.070270,2025-02-19T15:55:21.038-06:00,-0.237041,0.056046,-0.038319,2025-02-19T15:55:21.037-06:00
66.000000,262.241718,0.295245,7.257480,44.940997,289.651718,359.107208,2.749118,3.000000,-93.166964,8.350352,2025-02-19T15:55:23.000-06:00,-0.233149,-0.973421,-0.066416,2025-02-19T15:55:22.033-06:00,-0.156201,0.019086,-0.012356,2025-02-19T15:55:22.042-06:00
67.000000,262.132238,0.296558,7.257796,44.941072,289.542238,0.206399,2.762398,3.000000,-93.166965,8.307814,2025-02-19T15:55:24.000-06:00,-0.227245,-0.969206,-0.060698,2025-02-19T15:55:23.038-06:00,-0.113981,0.046941,-0.006807,2025-02-19T15:55:23.037-06:00
68.000000,262.075060,0.296026,7.257641,44.941146,289.485059,0.206399,2.623299,3.000000,-93.166966,8.122800,2025-02-19T15:55:25.000-06:00,-0.247813,-0.969031,-0.073786,2025-02-19T15:55:24.033-06:00,-0.300917,0.053460,-0.092672,2025-02-19T15:55:24.041-06:00
69.000000,261.898911,0.284539,7.257920,44.941212,289.308911,0.206399,2.723851,3.000000,-93.166969,7.416642,2025-02-19T15:55:26.000-06:00,-0.294856,-0.943644,-0.099055,2025-02-19T15:55:25.037-06:00,-0.702031,0.279859,-0.406706,2025-02-19T15:55:25.036-06:00
70.000000,261.993035,0.303204,7.258935,44.941274,289.403035,0.206399,2.782199,3.000000,-93.166968,6.903407,2025-02-19T15:55:27.000-06:00,-0.227334,-0.984213,-0.050522,2025-02-19T15:55:26.042-06:00,-0.129954,-0.084408,0.046284,2025-02-19T15:55:26.041-06:00
71.000000,262.078287,0.313353,7.258778,44.941336,289.488287,0.000000,2.561305,3.000000,-93.166966,6.943594,2025-02-19T15:55:28.000-06:00,-0.119618,-0.975279,-0.067087,2025-02-19T15:55:27.037-06:00,0.827318,-0.001913,0.188255,2025-02-19T15:55:27.036-06:00
72.000000,261.819420,0.289386,7.258567,44.941405,289.229420,0.000000,2.524761,3.000000,-93.166966,7.793355,2025-02-19T15:55:29.000-06:00,-0.116349,-1.015371,-0.050100,2025-02-19T15:55:28.042-06:00,0.958960,-0.402406,0.198874,2025-02-19T15:55:28.040-06:00
73.000000,262.048212,0.322887,7.258812,44.941486,289.458212,0.000000,2.561636,3.000000,-93.166965,8.749636,2025-02-19T15:55:30.000-06:00,-0.122340,-0.980678,-0.054165,2025-02-19T15:55:29.036-06:00,0.690101,-0.026640,0.271310,2025-02-19T15:55:29.035-06:00
74.000000,261.618726,0.289213,7.258738,44.941569,289.028726,0.320952,2.613618,3.000000,-93.166961,9.367547,2025-02-19T15:55:31.000-06:00,-0.151216,-0.966135,-0.093409,2025-02-19T15:55:30.041-06:00,0.516763,0.071838,0.080406,2025-02-19T15:55:30.040-06:00
75.000000,,,,,,,,,,,,-0.161124,-0.994976,-0.099344,2025-02-19T15:55:31.036-06:00,0.465623,-0.227642,-0.055411,2025-02-19T15:55:31.035-06:00
