seconds_elapsed,location_altitude,location_speedAccuracy,location_bearingAccuracy,location_latitude,location_altitudeAboveMeanSeaLevel,location_bearing,location_horizontalAccuracy,location_verticalAccuracy,location_longitude,location_speed,location_local_time,accelerometerUncalibrated_z,accelerometerUncalibrated_y,accelerometerUncalibrated_x,accelerometerUncalibrated_local_time,accelerometer_z,accelerometer_y,accelerometer_x,accelerometer_local_time
0.000000,255.227521,3.767916,180.000000,44.934362,282.637521,179.916322,2.671471,3.000000,-93.177233,0.541760,2025-02-19T15:29:41.999-06:00,0.100377,-0.996290,-0.039515,2025-02-19T15:29:41.316-06:00,0.761078,0.012008,0.259811,2025-02-19T15:29:41.316-06:00
1.000000,255.271317,3.751065,180.000000,44.934350,282.681317,179.916321,2.711143,3.000000,-93.177234,1.196408,2025-02-19T15:29:42.999-06:00,0.183777,-1.000476,0.075605,2025-02-19T15:29:42.311-06:00,1.482441,-0.026933,1.310194,2025-02-19T15:29:42.311-06:00
2.000000,255.448572,2.517960,71.581571,44.934320,282.858572,169.257764,2.688402,3.000000,-93.177225,2.842865,2025-02-19T15:29:43.999-06:00,0.057611,-1.005995,0.127460,2025-02-19T15:29:43.306-06:00,0.221797,-0.076367,1.773767,2025-02-19T15:29:43.306-06:00
3.000000,255.223045,2.373944,51.848032,44.934287,282.633045,156.456618,2.653982,3.000000,-93.177198,3.709899,2025-02-19T15:29:44.999-06:00,-0.003179,-0.998827,0.169571,2025-02-19T15:29:44.311-06:00,-0.314240,-0.001977,2.091748,2025-02-19T15:29:44.311-06:00
4.000000,255.136795,2.303630,42.345690,44.934267,282.546795,129.409080,2.654040,3.000000,-93.177138,4.394224,2025-02-19T15:29:45.999-06:00,0.025378,-1.010745,0.160534,2025-02-19T15:29:45.305-06:00,-0.094397,-0.116612,1.758012,2025-02-19T15:29:45.305-06:00
5.000000,255.138313,2.177840,31.571613,44.934267,282.548313,99.743365,2.621338,3.000000,-93.177052,5.589183,2025-02-19T15:29:46.999-06:00,0.085681,-0.982556,0.040730,2025-02-19T15:29:46.310-06:00,0.338873,0.153402,0.500965,2025-02-19T15:29:46.310-06:00
6.000000,255.196506,2.084953,25.770198,44.934274,282.606506,89.938284,2.584555,3.000000,-93.176963,6.550538,2025-02-19T15:29:47.999-06:00,0.126016,-1.012257,-0.014608,2025-02-19T15:29:47.305-06:00,0.596887,-0.138460,-0.004652,2025-02-19T15:29:47.305-06:00
7.000000,255.138944,1.996624,21.803693,44.934276,282.548944,89.454370,2.534007,3.000000,-93.176866,7.419175,2025-02-19T15:29:48.999-06:00,0.115849,-0.989905,-0.011979,2025-02-19T15:29:48.310-06:00,0.393778,0.072477,-0.013532,2025-02-19T15:29:48.310-06:00
8.000000,255.055051,1.934788,18.713948,44.934275,282.465051,89.812987,2.624585,3.000000,-93.176756,8.362451,2025-02-19T15:29:49.999-06:00,0.104988,-0.995470,-0.019941,2025-02-19T15:29:49.304-06:00,0.251866,0.010260,-0.064451,2025-02-19T15:29:49.304-06:00
9.000000,255.130591,1.874044,16.441074,44.934275,282.540591,90.032598,2.495490,3.000000,-93.176634,9.228869,2025-02-19T15:29:50.999-06:00,0.099784,-1.000254,-0.025760,2025-02-19T15:29:50.309-06:00,0.156927,-0.034938,-0.103435,2025-02-19T15:29:50.309-06:00
10.000000,255.159443,1.844471,15.034960,44.934276,282.569443,90.045514,2.312564,3.000000,-93.176506,9.938248,2025-02-19T15:29:51.999-06:00,0.097152,-0.991272,-0.029045,2025-02-19T15:29:51.304-06:00,0.098205,0.046067,-0.142886,2025-02-19T15:29:51.304-06:00
11.000000,255.177439,1.844915,14.103491,44.934275,282.587439,90.210290,2.189206,3.000000,-93.176370,10.599536,2025-02-19T15:29:52.999-06:00,0.075511,-1.000172,-0.039894,2025-02-19T15:29:52.309-06:00,-0.127523,-0.043365,-0.193345,2025-02-19T15:29:52.309-06:00
12.000000,255.255919,1.816482,13.329609,44.934275,282.665919,90.136343,2.462981,3.000000,-93.176229,11.025657,2025-02-19T15:29:53.999-06:00,0.080990,-1.001517,-0.031110,2025-02-19T15:29:53.304-06:00,-0.085469,-0.057702,-0.115223,2025-02-19T15:29:53.304-06:00
13.000000,255.655604,1.808213,12.662095,44.934272,283.065604,90.707610,2.877935,3.000000,-93.176079,11.570563,2025-02-19T15:29:54.999-06:00,0.073690,-0.985846,-0.030428,2025-02-19T15:29:54.308-06:00,-0.134699,0.100485,-0.101582,2025-02-19T15:29:54.308-06:00
14.000000,255.777181,1.778231,12.055301,44.934274,283.187181,90.237170,2.471592,3.000000,-93.175929,11.951823,2025-02-19T15:29:55.999-06:00,0.032990,-1.000835,-0.050247,2025-02-19T15:29:55.303-06:00,-0.520528,-0.051577,-0.212868,2025-02-19T15:29:55.303-06:00
15.000000,256.089576,1.780167,12.054728,44.934274,283.499576,90.086342,2.248158,3.000000,-93.175778,11.963784,2025-02-19T15:29:56.999-06:00,0.042029,-0.991868,-0.051234,2025-02-19T15:29:56.308-06:00,-0.427331,0.046091,-0.199558,2025-02-19T15:29:56.308-06:00
16.000000,256.316328,1.757039,11.774512,44.934275,283.726328,89.942006,2.319356,3.000000,-93.175624,12.089543,2025-02-19T15:29:57.999-06:00,0.044575,-0.991347,-0.064670,2025-02-19T15:29:57.303-06:00,-0.379399,0.040821,-0.314952,2025-02-19T15:29:57.303-06:00
17.000000,256.453687,1.791536,12.163231,44.934284,283.863687,88.860436,3.576456,3.000000,-93.175478,11.933007,2025-02-19T15:29:58.999-06:00,0.028687,-1.001589,-0.055356,2025-02-19T15:29:58.307-06:00,-0.503054,-0.053253,-0.221652,2025-02-19T15:29:58.307-06:00
18.000000,256.581164,1.773507,12.018640,44.934285,283.991164,88.835490,3.696403,3.000000,-93.175324,11.953697,2025-02-19T15:29:59.999-06:00,0.037623,-0.988971,-0.066771,2025-02-19T15:29:59.312-06:00,-0.389207,0.073736,-0.347672,2025-02-19T15:29:59.312-06:00
19.000000,256.648484,1.777358,11.903532,44.934280,284.058484,90.336681,3.338835,3.000000,-93.175165,12.096759,2025-02-19T15:30:00.999-06:00,0.034043,-0.999743,-0.054149,2025-02-19T15:30:00.307-06:00,-0.382163,-0.027056,-0.182199,2025-02-19T15:30:00.307-06:00
20.000000,256.593383,1.780071,11.781920,44.934278,284.003383,90.606633,2.902184,3.000000,-93.175006,12.240398,2025-02-19T15:30:01.999-06:00,0.039718,-0.995226,-0.050734,2025-02-19T15:30:01.312-06:00,-0.339003,0.010889,-0.126669,2025-02-19T15:30:01.312-06:00
21.000000,256.628228,1.789233,11.704319,44.934275,284.038227,90.763379,2.474007,3.000000,-93.174848,12.385346,2025-02-19T15:30:02.999-06:00,0.049528,-0.995480,-0.048292,2025-02-19T15:30:02.306-06:00,-0.218181,0.006253,-0.091581,2025-02-19T15:30:02.306-06:00
22.000000,256.617221,1.760709,11.352752,44.934275,284.027221,90.687154,2.579059,3.000000,-93.174688,12.566505,2025-02-19T15:30:03.999-06:00,0.045923,-0.984889,-0.045197,2025-02-19T15:30:03.311-06:00,-0.149420,0.124813,-0.042862,2025-02-19T15:30:03.311-06:00
23.000000,256.498324,1.752309,11.066107,44.934275,283.908324,90.415471,2.495134,3.000000,-93.174524,12.830778,2025-02-19T15:30:04.999-06:00,0.043284,-1.008169,-0.024573,2025-02-19T15:30:04.306-06:00,-0.171368,-0.095723,-0.010840,2025-02-19T15:30:04.306-06:00
24.000000,256.658346,1.734661,10.718693,44.934276,284.068346,89.991379,2.247513,3.000000,-93.174356,13.111519,2025-02-19T15:30:05.999-06:00,0.043716,-0.997382,-0.033999,2025-02-19T15:30:05.311-06:00,-0.186334,0.000645,-0.098881,2025-02-19T15:30:05.311-06:00
25.000000,256.750249,1.721664,10.530314,44.934276,284.160249,89.908219,2.123314,3.000000,-93.174188,13.245986,2025-02-19T15:30:06.999-06:00,0.044076,-0.999188,-0.040488,2025-02-19T15:30:06.305-06:00,-0.170780,-0.018849,-0.088385,2025-02-19T15:30:06.305-06:00
26.000000,256.891360,1.736200,10.518171,44.934276,284.301360,90.069261,2.236712,3.000000,-93.174020,13.372394,2025-02-19T15:30:07.999-06:00,0.049693,-0.993691,-0.050737,2025-02-19T15:30:07.310-06:00,-0.138392,0.040034,-0.134109,2025-02-19T15:30:07.310-06:00
27.000000,257.010384,1.756448,10.542469,44.934275,284.420384,90.325219,2.347540,3.000000,-93.173847,13.495808,2025-02-19T15:30:08.999-06:00,0.045816,-0.999798,-0.046560,2025-02-19T15:30:08.305-06:00,-0.155290,-0.025766,-0.131906,2025-02-19T15:30:08.305-06:00
28.000000,257.215972,1.703708,10.166118,44.934274,284.625972,90.331704,2.169737,3.000000,-93.173675,13.572579,2025-02-19T15:30:09.999-06:00,0.032004,-0.991493,-0.039692,2025-02-19T15:30:09.310-06:00,-0.263753,0.059531,-0.076295,2025-02-19T15:30:09.310-06:00
29.000000,257.152639,1.732523,10.364511,44.934276,284.562639,89.803316,2.082559,3.000000,-93.173503,13.542822,2025-02-19T15:30:10.999-06:00,0.029314,-0.996196,-0.047522,2025-02-19T15:30:10.304-06:00,-0.251649,0.018885,-0.115950,2025-02-19T15:30:10.304-06:00
30.000000,257.417698,1.739179,10.454572,44.934274,284.827698,90.202987,2.040086,3.000000,-93.173332,13.471261,2025-02-19T15:30:11.999-06:00,0.022200,-0.999665,-0.044209,2025-02-19T15:30:11.309-06:00,-0.295816,-0.019981,-0.154692,2025-02-19T15:30:11.309-06:00
31.000000,257.330137,1.734014,10.426801,44.934273,284.740137,90.215244,2.019499,3.000000,-93.173159,13.471703,2025-02-19T15:30:12.999-06:00,0.029429,-0.995749,-0.051211,2025-02-19T15:30:12.304-06:00,-0.257908,0.022516,-0.094050,2025-02-19T15:30:12.304-06:00
32.000000,257.559178,1.714860,10.344261,44.934271,284.969178,90.424534,2.172503,3.000000,-93.172988,13.428397,2025-02-19T15:30:13.999-06:00,0.036853,-1.006848,-0.043029,2025-02-19T15:30:13.309-06:00,-0.189917,-0.089297,-0.078711,2025-02-19T15:30:13.309-06:00
33.000000,257.714056,1.742513,10.645414,44.934273,285.124056,90.175674,2.418990,3.000000,-93.172824,13.256048,2025-02-19T15:30:14.999-06:00,0.037431,-0.987983,-0.029771,2025-02-19T15:30:14.303-06:00,-0.158473,0.099202,-0.017861,2025-02-19T15:30:14.303-06:00
34.000000,257.824958,1.738621,10.530611,44.934269,285.234958,90.693703,2.204530,3.000000,-93.172651,13.374301,2025-02-19T15:30:15.999-06:00,0.040271,-1.000536,-0.032474,2025-02-19T15:30:15.308-06:00,-0.098055,-0.025369,-0.005666,2025-02-19T15:30:15.308-06:00
35.000000,258.150432,1.740607,10.451969,44.934270,285.560432,90.331949,2.099647,3.000000,-93.172478,13.486754,2025-02-19T15:30:16.999-06:00,0.047256,-1.002463,-0.039049,2025-02-19T15:30:16.303-06:00,-0.071696,-0.045178,-0.044116,2025-02-19T15:30:16.303-06:00
36.000000,258.445993,1.721617,10.273876,44.934273,285.855993,89.875693,2.048430,3.000000,-93.172305,13.568901,2025-02-19T15:30:17.999-06:00,0.047243,-0.988050,-0.031446,2025-02-19T15:30:17.308-06:00,-0.085664,0.101391,0.034902,2025-02-19T15:30:17.308-06:00
37.000000,258.778657,1.711061,10.129749,44.934273,286.188657,89.727425,2.198820,3.000000,-93.172131,13.678977,2025-02-19T15:30:18.999-06:00,0.062699,-0.997772,-0.049719,2025-02-19T15:30:18.312-06:00,0.110587,0.003752,-0.066108,2025-02-19T15:30:18.312-06:00
38.000000,258.851836,1.719019,9.976270,44.934274,286.261836,89.595343,2.095626,3.000000,-93.171952,13.954958,2025-02-19T15:30:19.999-06:00,0.049488,-0.992677,-0.026640,2025-02-19T15:30:19.307-06:00,0.019310,0.052143,-0.003607,2025-02-19T15:30:19.307-06:00
39.000000,259.027671,1.699995,9.689645,44.934273,286.437671,89.351979,2.574837,3.000000,-93.171771,14.208458,2025-02-19T15:30:20.999-06:00,0.051972,-1.004722,-0.025327,2025-02-19T15:30:20.312-06:00,0.001182,-0.063846,0.022192,2025-02-19T15:30:20.312-06:00
40.000000,259.398746,1.716219,9.688772,44.934274,286.808746,89.011090,2.461345,3.000000,-93.171588,14.342247,2025-02-19T15:30:21.999-06:00,0.042084,-0.997482,-0.034392,2025-02-19T15:30:21.307-06:00,-0.104995,0.003758,-0.103756,2025-02-19T15:30:21.307-06:00
41.000000,259.422463,1.716647,9.678057,44.934277,286.832462,88.947350,2.552905,3.000000,-93.171406,14.363831,2025-02-19T15:30:22.999-06:00,0.040428,-0.987866,-0.049228,2025-02-19T15:30:22.311-06:00,-0.106157,0.104197,-0.176803,2025-02-19T15:30:22.311-06:00
42.000000,259.543824,1.735653,9.836008,44.934276,286.953824,89.373458,2.503547,3.000000,-93.171227,14.292598,2025-02-19T15:30:23.999-06:00,0.034894,-0.991286,-0.031676,2025-02-19T15:30:23.306-06:00,-0.127692,0.068108,-0.061258,2025-02-19T15:30:23.306-06:00
43.000000,259.822715,1.707549,9.701677,44.934273,287.232715,90.099508,2.795077,3.000000,-93.171047,14.257957,2025-02-19T15:30:24.999-06:00,0.040901,-1.004493,-0.024152,2025-02-19T15:30:24.311-06:00,-0.033537,-0.049125,-0.056027,2025-02-19T15:30:24.311-06:00
44.000000,260.192552,1.714569,9.720895,44.934271,287.602552,90.414432,2.374872,3.000000,-93.170867,14.285646,2025-02-19T15:30:25.999-06:00,0.054031,-0.986244,-0.033629,2025-02-19T15:30:25.306-06:00,0.089883,0.107164,-0.066130,2025-02-19T15:30:25.306-06:00
45.000000,260.199538,1.706257,9.594418,44.934269,287.609538,90.687012,2.223210,3.000000,-93.170685,14.406532,2025-02-19T15:30:26.999-06:00,0.012913,-0.996535,-0.023866,2025-02-19T15:30:26.310-06:00,-0.305984,0.031165,0.051183,2025-02-19T15:30:26.310-06:00
46.000000,260.383364,1.714072,9.731624,44.934267,287.793364,90.701231,2.103966,3.000000,-93.170503,14.270324,2025-02-19T15:30:27.999-06:00,-0.006944,-1.000402,-0.039040,2025-02-19T15:30:27.305-06:00,-0.479444,-0.016022,-0.056665,2025-02-19T15:30:27.305-06:00
47.000000,260.691453,1.722470,10.037358,44.934267,288.101452,90.334879,2.201800,3.000000,-93.170326,13.901659,2025-02-19T15:30:28.999-06:00,-0.007225,-1.001193,-0.045533,2025-02-19T15:30:28.310-06:00,-0.498028,-0.031305,-0.118696,2025-02-19T15:30:28.310-06:00
48.000000,260.660585,1.733764,10.422251,44.934269,288.070585,90.141973,2.097501,3.000000,-93.170157,13.476951,2025-02-19T15:30:29.999-06:00,0.001397,-0.993915,-0.047449,2025-02-19T15:30:29.305-06:00,-0.380520,0.048795,-0.120831,2025-02-19T15:30:29.305-06:00
49.000000,260.800030,1.742878,10.752469,44.934265,288.210030,90.679945,2.265125,3.000000,-93.169991,13.132212,2025-02-19T15:30:30.999-06:00,0.002712,-0.991230,-0.044061,2025-02-19T15:30:30.309-06:00,-0.343731,0.075316,-0.091020,2025-02-19T15:30:30.309-06:00
50.000000,261.034485,1.749492,11.019316,44.934266,288.444485,90.502599,2.211586,3.000000,-93.169828,12.862404,2025-02-19T15:30:31.999-06:00,0.017978,-0.991932,-0.050325,2025-02-19T15:30:31.304-06:00,-0.187621,0.064402,-0.104851,2025-02-19T15:30:31.304-06:00
51.000000,261.193075,1.742557,11.160353,44.934266,288.603075,90.473218,2.106397,3.000000,-93.169668,12.650827,2025-02-19T15:30:32.999-06:00,0.006312,-1.002027,-0.054615,2025-02-19T15:30:32.309-06:00,-0.240401,-0.038158,-0.114190,2025-02-19T15:30:32.309-06:00
52.000000,261.235585,1.763205,11.496642,44.934265,288.645585,90.525121,2.257398,3.000000,-93.169511,12.426579,2025-02-19T15:30:33.999-06:00,-0.002746,-0.988427,-0.056235,2025-02-19T15:30:33.304-06:00,-0.254837,0.102797,-0.112920,2025-02-19T15:30:33.304-06:00
53.000000,261.256029,1.742134,11.620073,44.934265,288.666029,90.604388,2.261981,3.000000,-93.169357,12.147609,2025-02-19T15:30:34.999-06:00,-0.010446,-0.994987,-0.044225,2025-02-19T15:30:34.309-06:00,-0.332448,0.038843,-0.018042,2025-02-19T15:30:34.309-06:00
54.000000,261.273667,1.776457,12.164832,44.934264,288.683667,90.323789,2.136150,3.000000,-93.169207,11.832588,2025-02-19T15:30:35.999-06:00,-0.015326,-0.999299,-0.051716,2025-02-19T15:30:35.303-06:00,-0.362203,-0.007148,-0.069180,2025-02-19T15:30:35.303-06:00
55.000000,261.282778,1.795152,12.729515,44.934265,288.692778,90.053430,2.431118,3.000000,-93.169063,11.426637,2025-02-19T15:30:36.999-06:00,-0.036275,-0.995898,-0.061659,2025-02-19T15:30:36.308-06:00,-0.541430,0.029180,-0.144373,2025-02-19T15:30:36.308-06:00
56.000000,261.354611,1.813353,13.588568,44.934264,288.764611,90.063731,2.233314,3.000000,-93.168926,10.811526,2025-02-19T15:30:37.999-06:00,-0.038499,-0.995897,-0.070272,2025-02-19T15:30:37.303-06:00,-0.534589,0.027662,-0.220837,2025-02-19T15:30:37.303-06:00
57.000000,261.333412,1.848342,14.753463,44.934264,288.743412,90.110081,2.265475,3.000000,-93.168798,10.143012,2025-02-19T15:30:38.999-06:00,-0.012590,-0.995082,-0.058494,2025-02-19T15:30:38.308-06:00,-0.277807,0.034764,-0.080132,2025-02-19T15:30:38.308-06:00
58.000000,261.351016,1.865908,15.518660,44.934263,288.761016,90.132933,2.151028,3.000000,-93.168676,9.736793,2025-02-19T15:30:39.999-06:00,-0.005820,-1.000585,-0.059763,2025-02-19T15:30:39.312-06:00,-0.197286,-0.024482,-0.072948,2025-02-19T15:30:39.312-06:00
59.000000,261.384534,1.899836,16.231659,44.934263,288.794534,90.187259,2.087079,3.000000,-93.168556,9.436617,2025-02-19T15:30:40.999-06:00,0.004211,-0.994637,-0.058579,2025-02-19T15:30:40.307-06:00,-0.076570,0.034607,-0.013905,2025-02-19T15:30:40.307-06:00
60.000000,261.365801,1.896060,16.522042,44.934260,288.775800,90.565307,2.156146,3.000000,-93.168438,9.271346,2025-02-19T15:30:41.999-06:00,0.001617,-0.995664,-0.057129,2025-02-19T15:30:41.312-06:00,-0.079916,0.029665,-0.003275,2025-02-19T15:30:41.312-06:00
61.000000,261.448426,1.904106,16.862482,44.934259,288.858426,90.501292,2.092004,3.000000,-93.168324,9.025631,2025-02-19T15:30:42.999-06:00,0.004678,-0.991357,-0.056543,2025-02-19T15:30:42.307-06:00,-0.037285,0.065553,0.002529,2025-02-19T15:30:42.307-06:00
62.000000,261.511447,1.909059,17.522861,44.934259,288.921447,90.396963,2.055134,3.000000,-93.168216,8.767483,2025-02-19T15:30:43.999-06:00,0.003398,-1.002929,-0.064376,2025-02-19T15:30:43.311-06:00,-0.049967,-0.047603,-0.054784,2025-02-19T15:30:43.311-06:00
63.000000,261.266746,1.994651,18.170248,44.934261,288.676745,90.035011,2.033169,3.000000,-93.168109,8.496437,2025-02-19T15:30:44.999-06:00,-0.049811,-0.995791,-0.074736,2025-02-19T15:30:44.306-06:00,-0.521976,0.026350,-0.138081,2025-02-19T15:30:44.306-06:00
64.000000,261.305359,1.995563,20.828953,44.934261,288.715359,90.093966,2.127652,3.000000,-93.168014,7.678331,2025-02-19T15:30:45.999-06:00,-0.098280,-0.994566,-0.090843,2025-02-19T15:30:45.311-06:00,-0.997107,0.036038,-0.267646,2025-02-19T15:30:45.311-06:00
65.000000,261.349599,2.148784,25.734037,44.934262,288.759599,89.992425,2.224042,3.000000,-93.167936,6.387905,2025-02-19T15:30:46.999-06:00,-0.129411,-0.997877,-0.104282,2025-02-19T15:30:46.306-06:00,-1.244994,-0.001065,-0.364648,2025-02-19T15:30:46.306-06:00
66.000000,261.445934,2.410118,34.899945,44.934263,288.855933,89.918791,2.347272,3.000000,-93.167879,4.874716,2025-02-19T15:30:47.999-06:00,-0.137036,-0.997961,-0.106573,2025-02-19T15:30:47.310-06:00,-1.260445,-0.003345,-0.367305,2025-02-19T15:30:47.310-06:00
67.000000,261.367757,3.466773,40.186397,44.934263,288.777756,89.796537,2.377768,3.000000,-93.167842,3.275149,2025-02-19T15:30:48.999-06:00,-0.081350,-0.996801,-0.091510,2025-02-19T15:30:48.305-06:00,-0.621573,0.005101,-0.197736,2025-02-19T15:30:48.305-06:00
68.000000,261.449438,4.019519,47.589745,44.934264,288.859437,89.728869,2.314807,3.000000,-93.167819,2.109249,2025-02-19T15:30:49.999-06:00,-0.040473,-0.995417,-0.078076,2025-02-19T15:30:49.310-06:00,-0.130162,0.013327,-0.045249,2025-02-19T15:30:49.310-06:00
69.000000,261.627857,4.038107,69.143866,44.934264,289.037857,89.753863,2.288327,3.000000,-93.167803,1.378934,2025-02-19T15:30:50.999-06:00,-0.017960,-0.996359,-0.071495,2025-02-19T15:30:50.305-06:00,0.134871,0.002947,0.034194,2025-02-19T15:30:50.305-06:00
70.000000,261.709733,3.746674,180.000000,44.934264,289.119733,89.753870,2.252286,3.000000,-93.167793,0.829827,2025-02-19T15:30:51.999-06:00,0.002462,-0.996083,-0.065725,2025-02-19T15:30:51.309-06:00,0.325567,0.007032,0.091854,2025-02-19T15:30:51.309-06:00
71.000000,261.853817,3.750302,180.000000,44.934263,289.263817,89.753875,2.424535,3.000000,-93.167785,0.569015,2025-02-19T15:30:52.999-06:00,0.000823,-0.996176,-0.066979,2025-02-19T15:30:52.304-06:00,0.286760,0.006024,0.075052,2025-02-19T15:30:52.304-06:00
72.000000,261.878796,3.746104,180.000000,44.934264,289.288796,89.753877,2.489141,3.000000,-93.167782,0.253363,2025-02-19T15:30:53.999-06:00,0.006105,-0.995823,-0.064747,2025-02-19T15:30:53.309-06:00,0.307601,0.011054,0.087429,2025-02-19T15:30:53.309-06:00
73.000000,261.983627,3.760677,180.000000,44.934263,289.393627,89.753878,2.489536,3.000000,-93.167781,0.005052,2025-02-19T15:30:54.999-06:00,0.030055,-0.996021,-0.057306,2025-02-19T15:30:54.304-06:00,0.497652,0.010281,0.143392,2025-02-19T15:30:54.304-06:00
74.000000,262.021342,3.745432,180.000000,44.934263,289.431342,89.753879,2.678425,3.000000,-93.167779,0.005637,2025-02-19T15:30:55.999-06:00,0.031312,-0.995670,-0.058844,2025-02-19T15:30:55.308-06:00,0.465970,0.017196,0.129578,2025-02-19T15:30:55.308-06:00
75.000000,262.066212,3.737258,180.000000,44.934263,289.476212,89.753881,2.660355,3.000000,-93.167776,0.016760,2025-02-19T15:30:56.999-06:00,0.032169,-0.996044,-0.058396,2025-02-19T15:30:56.303-06:00,0.417001,0.010529,0.121585,2025-02-19T15:30:56.303-06:00
