seconds_elapsed,location_altitude,location_speedAccuracy,location_bearingAccuracy,location_latitude,location_altitudeAboveMeanSeaLevel,location_bearing,location_horizontalAccuracy,location_verticalAccuracy,location_longitude,location_speed,location_local_time,accelerometerUncalibrated_z,accelerometerUncalibrated_y,accelerometerUncalibrated_x,accelerometerUncalibrated_local_time,accelerometer_z,accelerometer_y,accelerometer_x,accelerometer_local_time
0.000000,261.674469,-0.170000,21.654817,44.941494,289.084469,134.148435,13.946408,10.276886,-93.166799,0.075000,2025-02-19T15:26:14.294-06:00,0.057589,-0.994562,-0.000150,2025-02-19T15:26:14.299-06:00,0.820564,0.049394,0.220925,2025-02-19T15:26:14.309-06:00
1.000000,261.300903,1.070000,29.084786,44.941509,288.710903,269.296875,3.535534,3.000000,-93.166803,1.890000,2025-02-19T15:26:16.000-06:00,0.135111,-0.998530,0.017996,2025-02-19T15:26:15.274-06:00,1.532961,0.010845,0.409629,2025-02-19T15:26:15.274-06:00
2.000000,262.257874,0.990000,17.383504,44.941504,289.667873,270.000000,3.535534,3.000000,-93.166837,1.890000,2025-02-19T15:26:17.000-06:00,0.124785,-0.997103,0.010919,2025-02-19T15:26:16.279-06:00,1.340552,0.023934,0.386225,2025-02-19T15:26:16.279-06:00
3.000000,261.901489,0.080000,0.974325,44.941505,289.311489,270.000000,3.535534,3.000000,-93.166900,3.290000,2025-02-19T15:26:18.000-06:00,0.100586,-0.998730,-0.010566,2025-02-19T15:26:17.273-06:00,0.989578,0.003259,0.248158,2025-02-19T15:26:17.273-06:00
4.000000,261.823608,0.090000,0.925407,44.941507,289.233608,269.648438,3.535534,3.000000,-93.166971,6.320000,2025-02-19T15:26:19.000-06:00,0.106923,-1.007561,0.002486,2025-02-19T15:26:18.278-06:00,0.962208,-0.082906,0.391475,2025-02-19T15:26:18.278-06:00
5.000000,261.395020,0.080000,0.724492,44.941507,288.805019,269.296875,3.535534,3.000000,-93.167046,7.220000,2025-02-19T15:26:20.000-06:00,0.101210,-0.974687,-0.017605,2025-02-19T15:26:19.273-06:00,0.699593,0.235259,0.191918,2025-02-19T15:26:19.273-06:00
6.000000,262.177490,0.320000,2.542875,44.941503,289.587490,268.945312,3.535534,3.000000,-93.167152,7.220000,2025-02-19T15:26:21.000-06:00,0.081968,-1.003287,-0.029644,2025-02-19T15:26:20.277-06:00,0.614983,-0.030553,0.151677,2025-02-19T15:26:20.277-06:00
7.000000,261.080933,0.630000,4.630471,44.941512,288.490932,277.031250,3.535534,3.000000,-93.167250,8.130000,2025-02-19T15:26:22.000-06:00,0.083072,-0.971781,-0.027726,2025-02-19T15:26:21.272-06:00,0.654308,0.255784,0.119920,2025-02-19T15:26:21.272-06:00
8.000000,261.997070,2.100000,15.794213,44.941519,289.407070,275.273438,3.535534,3.000000,-93.167357,8.570000,2025-02-19T15:26:23.000-06:00,0.052442,-1.003876,-0.019174,2025-02-19T15:26:22.277-06:00,0.437721,-0.042870,0.101125,2025-02-19T15:26:22.277-06:00
9.000000,261.100342,0.940000,5.294808,44.941509,288.510342,269.648438,3.535534,3.000000,-93.167499,10.880000,2025-02-19T15:26:24.000-06:00,0.059798,-0.994271,-0.007780,2025-02-19T15:26:23.281-06:00,0.429638,0.051930,0.169458,2025-02-19T15:26:23.281-06:00
10.000000,260.966431,0.140000,0.841952,44.941509,288.376431,268.593750,3.535534,3.000000,-93.167636,11.180000,2025-02-19T15:26:25.000-06:00,0.056859,-1.002599,-0.013261,2025-02-19T15:26:24.276-06:00,0.408351,-0.035803,0.127397,2025-02-19T15:26:24.276-06:00
11.000000,260.379395,0.080000,0.437365,44.941507,287.789394,269.296875,3.535534,3.000000,-93.167779,11.180000,2025-02-19T15:26:26.000-06:00,0.015782,-0.991251,-0.042784,2025-02-19T15:26:25.281-06:00,-0.087597,0.086486,-0.164887,2025-02-19T15:26:25.281-06:00
12.000000,260.106018,0.400000,2.188834,44.941506,287.516018,269.648438,3.535534,3.000000,-93.167930,11.820000,2025-02-19T15:26:27.000-06:00,0.001947,-0.997815,-0.032077,2025-02-19T15:26:26.275-06:00,-0.208130,0.018456,-0.069989,2025-02-19T15:26:26.275-06:00
13.000000,260.106029,0.400000,7.258975,44.941506,287.516029,269.648332,4.748652,4.029364,-93.168079,11.820000,2025-02-19T15:26:28.000-06:00,0.005202,-0.996589,-0.035144,2025-02-19T15:26:27.280-06:00,-0.219148,0.021382,-0.080390,2025-02-19T15:26:27.280-06:00
14.000000,260.088512,0.480000,7.258975,44.941506,287.498512,269.999893,4.748652,4.029364,-93.168233,11.910000,2025-02-19T15:26:29.000-06:00,0.018761,-0.987911,-0.043338,2025-02-19T15:26:28.275-06:00,-0.089092,0.106051,-0.165464,2025-02-19T15:26:28.275-06:00
15.000000,259.503918,0.308016,7.258975,44.941506,286.913918,269.999891,4.748652,4.029364,-93.168388,12.230000,2025-02-19T15:26:30.000-06:00,0.009425,-0.998985,-0.034381,2025-02-19T15:26:29.279-06:00,-0.159314,0.008104,-0.045213,2025-02-19T15:26:29.279-06:00
16.000000,258.566297,1.810000,11.316476,44.941509,285.976297,270.351447,4.748652,4.029364,-93.168561,12.960000,2025-02-19T15:26:31.000-06:00,0.005320,-0.994376,-0.038950,2025-02-19T15:26:30.274-06:00,-0.243025,0.043953,-0.052042,2025-02-19T15:26:30.274-06:00
17.000000,258.681470,1.390000,8.819856,44.941513,286.091470,271.054573,4.748652,4.029364,-93.168719,12.770000,2025-02-19T15:26:32.000-06:00,0.002056,-0.998470,-0.050835,2025-02-19T15:26:31.279-06:00,-0.268507,0.009243,-0.137516,2025-02-19T15:26:31.279-06:00
18.000000,258.175306,0.680000,7.258975,44.941506,285.585306,269.648322,4.748652,4.029364,-93.168880,12.900000,2025-02-19T15:26:33.000-06:00,0.015149,-1.005446,-0.034744,2025-02-19T15:26:32.274-06:00,-0.140793,-0.064524,-0.032052,2025-02-19T15:26:32.274-06:00
19.000000,257.572889,0.340000,7.258975,44.941513,284.982889,269.999885,4.748652,4.029364,-93.169044,12.900000,2025-02-19T15:26:34.000-06:00,0.020354,-1.015378,-0.032285,2025-02-19T15:26:33.278-06:00,-0.166894,-0.156455,-0.102365,2025-02-19T15:26:33.278-06:00
20.000000,257.116347,0.640000,7.258975,44.941510,284.526347,269.296754,4.748652,4.029364,-93.169220,13.490000,2025-02-19T15:26:35.000-06:00,0.019287,-0.989761,-0.047573,2025-02-19T15:26:34.273-06:00,-0.229876,0.078348,-0.146720,2025-02-19T15:26:34.273-06:00
21.000000,256.534256,0.600000,7.258975,44.941516,283.944255,270.703002,4.748652,4.029364,-93.169393,13.750000,2025-02-19T15:26:36.000-06:00,0.003412,-1.004218,-0.021165,2025-02-19T15:26:35.278-06:00,-0.389026,-0.048834,-0.011103,2025-02-19T15:26:35.278-06:00
22.000000,256.136550,1.160000,7.258975,44.941513,283.546550,270.351441,4.748652,4.029364,-93.169559,13.570000,2025-02-19T15:26:37.000-06:00,0.006910,-0.998292,-0.029379,2025-02-19T15:26:36.272-06:00,-0.295735,0.005733,-0.146020,2025-02-19T15:26:36.272-06:00
23.000000,255.879043,0.770000,7.258975,44.941513,283.289043,269.999877,4.748652,4.029364,-93.169735,13.750000,2025-02-19T15:26:38.000-06:00,0.008161,-0.990513,-0.016623,2025-02-19T15:26:37.277-06:00,-0.283161,0.089369,0.011855,2025-02-19T15:26:37.277-06:00
24.000000,255.934219,0.450000,7.258975,44.941511,283.344219,269.648315,4.748652,4.029364,-93.169907,13.700000,2025-02-19T15:26:39.000-06:00,0.017456,-1.005960,-0.026079,2025-02-19T15:26:38.272-06:00,-0.194422,-0.072759,-0.094473,2025-02-19T15:26:38.272-06:00
25.000000,255.631485,0.570000,7.258975,44.941514,283.041485,270.351439,4.748652,4.029364,-93.170081,13.850000,2025-02-19T15:26:40.000-06:00,0.019374,-0.999858,-0.021712,2025-02-19T15:26:39.276-06:00,-0.178995,-0.001240,-0.065522,2025-02-19T15:26:39.276-06:00
26.000000,255.559891,0.480000,7.258975,44.941512,282.969891,269.999874,4.748652,4.029364,-93.170260,14.060000,2025-02-19T15:26:41.000-06:00,0.013906,-0.991838,-0.029163,2025-02-19T15:26:40.281-06:00,-0.214868,0.079318,-0.068544,2025-02-19T15:26:40.281-06:00
27.000000,255.696854,1.350000,7.847090,44.941516,283.106853,270.351438,4.748652,4.029364,-93.170434,13.940000,2025-02-19T15:26:42.000-06:00,0.014509,-1.003514,-0.018595,2025-02-19T15:26:41.276-06:00,-0.201499,-0.053072,-0.056067,2025-02-19T15:26:41.276-06:00
28.000000,255.055558,0.660000,7.258975,44.941514,282.465557,269.648312,4.748652,4.029364,-93.170616,14.060000,2025-02-19T15:26:43.000-06:00,0.010197,-0.998130,-0.023781,2025-02-19T15:26:42.280-06:00,-0.237199,0.013137,-0.044784,2025-02-19T15:26:42.280-06:00
29.000000,255.146012,0.308016,7.258975,44.941514,282.556012,269.648311,4.748652,4.029364,-93.170792,14.120000,2025-02-19T15:26:44.000-06:00,0.016911,-1.004545,-0.039558,2025-02-19T15:26:43.275-06:00,-0.200106,-0.058690,-0.097732,2025-02-19T15:26:43.275-06:00
30.000000,255.304214,1.510000,8.859738,44.941512,282.714214,269.296751,4.748652,4.029364,-93.170963,13.810000,2025-02-19T15:26:45.000-06:00,-0.000295,-0.978085,-0.038372,2025-02-19T15:26:44.280-06:00,-0.315229,0.201566,-0.041449,2025-02-19T15:26:44.280-06:00
31.000000,254.608781,0.910000,7.258975,44.941514,282.018781,269.999871,4.748652,4.029364,-93.171151,14.420000,2025-02-19T15:26:46.000-06:00,0.025452,-1.005105,-0.026582,2025-02-19T15:26:45.274-06:00,-0.043707,-0.051869,0.000908,2025-02-19T15:26:45.274-06:00
32.000000,254.263443,0.308016,7.258975,44.941514,281.673443,270.351436,4.748652,4.029364,-93.171326,14.150000,2025-02-19T15:26:47.000-06:00,0.012120,-0.989018,-0.035558,2025-02-19T15:26:46.279-06:00,-0.171710,0.094270,-0.084126,2025-02-19T15:26:46.279-06:00
33.000000,254.639143,1.272955,7.258962,44.941495,282.049143,269.734315,2.000000,3.000000,-93.171513,14.339891,2025-02-19T15:26:48.000-06:00,0.005458,-0.996574,-0.044040,2025-02-19T15:26:47.274-06:00,-0.227226,0.020685,-0.135311,2025-02-19T15:26:47.274-06:00
34.000000,254.735966,1.272718,7.258971,44.941492,282.145966,269.891005,2.000000,3.000000,-93.171692,14.329971,2025-02-19T15:26:49.000-06:00,0.010666,-1.007460,-0.043681,2025-02-19T15:26:48.279-06:00,-0.181365,-0.078952,-0.120828,2025-02-19T15:26:48.279-06:00
35.000000,254.362294,1.273866,7.258954,44.941495,281.772294,270.658657,2.145527,3.000000,-93.171874,14.307189,2025-02-19T15:26:50.000-06:00,0.004471,-0.990269,-0.030910,2025-02-19T15:26:49.273-06:00,-0.228913,0.094677,0.011396,2025-02-19T15:26:49.273-06:00
36.000000,254.334215,0.658063,7.257883,44.941503,281.744214,269.978326,2.069072,3.000000,-93.172065,14.312131,2025-02-19T15:26:51.000-06:00,0.011228,-0.990349,-0.039783,2025-02-19T15:26:50.278-06:00,-0.144574,0.083304,-0.089400,2025-02-19T15:26:50.278-06:00
37.000000,254.400105,0.646215,7.258602,44.941502,281.810104,269.817156,2.030514,3.000000,-93.172246,14.269655,2025-02-19T15:26:52.000-06:00,0.002150,-1.004156,-0.035356,2025-02-19T15:26:51.273-06:00,-0.222814,-0.052515,-0.062280,2025-02-19T15:26:51.273-06:00
38.000000,254.884754,0.663905,7.258439,44.941499,282.294754,268.980108,2.136264,3.000000,-93.172425,14.120132,2025-02-19T15:26:53.000-06:00,-0.000026,-0.995895,-0.040600,2025-02-19T15:26:52.277-06:00,-0.251779,0.035416,-0.069451,2025-02-19T15:26:52.277-06:00
39.000000,254.503499,0.652049,7.258739,44.941502,281.913499,269.969752,2.064706,3.000000,-93.172604,14.145671,2025-02-19T15:26:54.000-06:00,0.003188,-1.000416,-0.043319,2025-02-19T15:26:53.272-06:00,-0.181497,-0.008752,-0.058740,2025-02-19T15:26:53.272-06:00
40.000000,254.521728,0.653348,7.258909,44.941501,281.931728,270.140696,2.030562,3.000000,-93.172782,14.087601,2025-02-19T15:26:55.000-06:00,0.002301,-0.983194,-0.031527,2025-02-19T15:26:54.277-06:00,-0.193322,0.141638,0.015332,2025-02-19T15:26:54.277-06:00
41.000000,254.059439,0.657903,7.257091,44.941501,281.469439,270.256237,2.014580,3.000000,-93.172959,13.983663,2025-02-19T15:26:56.000-06:00,0.003952,-1.007472,-0.048667,2025-02-19T15:26:55.281-06:00,-0.147014,-0.076974,-0.116872,2025-02-19T15:26:55.281-06:00
42.000000,254.158238,0.671904,7.258783,44.941498,281.568238,269.329963,2.006897,3.000000,-93.173137,13.980647,2025-02-19T15:26:57.000-06:00,0.005351,-0.992620,-0.037408,2025-02-19T15:26:56.276-06:00,-0.133855,0.072625,-0.100278,2025-02-19T15:26:56.276-06:00
43.000000,254.082950,0.657278,7.258768,44.941497,281.492950,269.627092,2.003305,3.000000,-93.173312,13.890553,2025-02-19T15:26:58.000-06:00,-0.006418,-1.006175,-0.041802,2025-02-19T15:26:57.281-06:00,-0.252864,-0.069061,-0.068381,2025-02-19T15:26:57.281-06:00
44.000000,253.970325,0.659823,7.258837,44.941496,281.380325,269.838643,2.001587,3.000000,-93.173484,13.673756,2025-02-19T15:26:59.000-06:00,-0.003368,-0.975706,-0.057179,2025-02-19T15:26:58.275-06:00,-0.186538,0.223433,-0.126013,2025-02-19T15:26:58.275-06:00
45.000000,253.723740,0.664744,7.257706,44.941496,281.133740,269.954635,2.000767,3.000000,-93.173655,13.522328,2025-02-19T15:27:00.000-06:00,-0.023880,-1.004991,-0.052748,2025-02-19T15:26:59.280-06:00,-0.311104,-0.056590,-0.205210,2025-02-19T15:26:59.280-06:00
46.000000,253.477889,0.661877,7.257043,44.941500,280.887889,271.397462,2.270726,3.000000,-93.173822,13.241859,2025-02-19T15:27:01.000-06:00,-0.028447,-0.993436,-0.102772,2025-02-19T15:27:00.275-06:00,-0.351461,0.057315,-0.685940,2025-02-19T15:27:00.275-06:00
47.000000,253.459916,0.686465,7.258142,44.941501,280.869916,271.609554,2.134712,3.000000,-93.173981,12.715235,2025-02-19T15:27:02.000-06:00,0.006900,-0.983485,-0.148929,2025-02-19T15:27:01.279-06:00,0.002309,0.159570,-1.042485,2025-02-19T15:27:01.279-06:00
48.000000,253.063802,0.667833,7.256473,44.941521,280.473801,277.092066,2.068189,3.000000,-93.174138,12.487686,2025-02-19T15:27:03.000-06:00,0.034859,-0.997333,-0.144995,2025-02-19T15:27:02.274-06:00,0.234992,0.015858,-0.921620,2025-02-19T15:27:02.274-06:00
49.000000,253.195103,0.662600,7.258913,44.941548,280.605102,281.879993,2.034777,3.000000,-93.174294,12.523819,2025-02-19T15:27:04.000-06:00,0.018582,-0.980167,-0.086021,2025-02-19T15:27:03.279-06:00,0.064733,0.174090,-0.284906,2025-02-19T15:27:03.279-06:00
50.000000,251.902838,0.861016,7.249615,44.941580,279.312838,285.297741,2.103343,3.000000,-93.174436,12.201894,2025-02-19T15:27:05.000-06:00,0.007059,-1.009921,-0.050324,2025-02-19T15:27:04.274-06:00,-0.111642,-0.142620,0.466183,2025-02-19T15:27:04.274-06:00
51.000000,252.112046,0.955125,7.289333,44.941583,279.522046,278.688186,2.170058,3.000000,-93.174555,10.602832,2025-02-19T15:27:06.000-06:00,0.009489,-0.998737,0.008139,2025-02-19T15:27:05.278-06:00,-0.095220,-0.042698,1.055541,2025-02-19T15:27:05.278-06:00
52.000000,252.436746,0.749855,7.258938,44.941615,279.846746,278.113007,2.670677,3.000000,-93.174761,13.166175,2025-02-19T15:27:07.000-06:00,0.017906,-1.008482,-0.012959,2025-02-19T15:27:06.273-06:00,-0.016219,-0.127574,0.784894,2025-02-19T15:27:06.273-06:00
53.000000,252.007646,0.678834,7.258580,44.941623,279.417646,275.412449,2.785720,3.000000,-93.174918,12.906630,2025-02-19T15:27:08.000-06:00,0.040636,-0.989850,-0.018417,2025-02-19T15:27:07.278-06:00,0.262246,0.069843,0.609654,2025-02-19T15:27:07.278-06:00
54.000000,251.614410,0.669615,7.257508,44.941629,279.024410,273.569595,2.394734,3.000000,-93.175086,13.223251,2025-02-19T15:27:09.000-06:00,0.017049,-1.003167,-0.022063,2025-02-19T15:27:08.272-06:00,0.015120,-0.067482,0.598961,2025-02-19T15:27:08.272-06:00
55.000000,251.127235,0.674752,7.256180,44.941631,278.537235,271.553972,2.194412,3.000000,-93.175256,13.332235,2025-02-19T15:27:10.000-06:00,0.011929,-0.986982,-0.060010,2025-02-19T15:27:09.277-06:00,-0.081310,0.087165,0.242083,2025-02-19T15:27:09.277-06:00
56.000000,251.399865,0.832156,7.258692,44.941632,278.809865,270.676814,3.244905,3.000000,-93.175434,13.573167,2025-02-19T15:27:11.000-06:00,-0.018317,-0.990682,-0.084500,2025-02-19T15:27:10.272-06:00,-0.333463,0.067414,-0.071833,2025-02-19T15:27:10.272-06:00
57.000000,250.728797,0.683800,7.254736,44.941632,278.138797,270.067060,2.623535,3.000000,-93.175587,12.795092,2025-02-19T15:27:12.000-06:00,-0.036570,-0.994066,-0.098569,2025-02-19T15:27:11.276-06:00,-0.474179,0.019447,-0.246251,2025-02-19T15:27:11.276-06:00
58.000000,250.988877,0.793862,7.258323,44.941643,278.398877,273.260855,2.312577,3.000000,-93.175746,12.399236,2025-02-19T15:27:13.000-06:00,-0.037825,-0.999160,-0.102192,2025-02-19T15:27:12.281-06:00,-0.479511,-0.021380,-0.222373,2025-02-19T15:27:12.281-06:00
59.000000,250.499365,0.825797,7.256808,44.941642,277.909365,271.796968,2.487296,3.000000,-93.175912,12.525382,2025-02-19T15:27:14.000-06:00,-0.024102,-0.989887,-0.081244,2025-02-19T15:27:13.276-06:00,-0.342179,0.064661,-0.029700,2025-02-19T15:27:13.276-06:00
60.000000,251.415237,0.714874,7.258159,44.941647,278.825237,272.162584,2.245270,3.000000,-93.176078,12.780438,2025-02-19T15:27:15.000-06:00,-0.010771,-0.993509,-0.083381,2025-02-19T15:27:14.280-06:00,-0.223103,0.034333,-0.016313,2025-02-19T15:27:14.280-06:00
61.000000,251.332555,0.660556,7.258927,44.941636,278.742555,267.578516,2.129258,3.000000,-93.176209,11.398128,2025-02-19T15:27:16.000-06:00,-0.005811,-0.996795,-0.088466,2025-02-19T15:27:15.275-06:00,-0.117667,-0.000049,-0.049333,2025-02-19T15:27:15.275-06:00
62.000000,250.964527,0.662666,7.257039,44.941637,278.374526,269.508766,2.069077,3.000000,-93.176354,11.272550,2025-02-19T15:27:17.000-06:00,-0.011482,-1.008659,-0.131747,2025-02-19T15:27:16.280-06:00,-0.267720,-0.140587,-0.226760,2025-02-19T15:27:16.280-06:00
63.000000,250.870994,0.660660,7.258622,44.941640,278.280994,270.974808,2.037274,3.000000,-93.176494,10.948343,2025-02-19T15:27:18.000-06:00,-0.066880,-0.976198,-0.139655,2025-02-19T15:27:17.275-06:00,-0.844997,0.167449,-0.293109,2025-02-19T15:27:17.275-06:00
64.000000,250.720697,0.671436,7.257672,44.941644,278.130697,272.229420,2.083953,3.000000,-93.176621,10.196113,2025-02-19T15:27:19.000-06:00,-0.084408,-0.992552,-0.152479,2025-02-19T15:27:18.279-06:00,-0.924912,0.003871,-0.340917,2025-02-19T15:27:18.279-06:00
65.000000,249.956050,0.711284,7.244079,44.941639,277.366049,269.423997,2.382172,3.000000,-93.176731,9.159558,2025-02-19T15:27:20.000-06:00,-0.129662,-0.992010,-0.159953,2025-02-19T15:27:19.274-06:00,-1.328444,0.001902,-0.365404,2025-02-19T15:27:19.274-06:00
66.000000,249.632949,0.681391,7.235913,44.941640,277.042948,269.778989,2.241607,3.000000,-93.176817,7.560395,2025-02-19T15:27:21.000-06:00,-0.153945,-0.989822,-0.180670,2025-02-19T15:27:20.279-06:00,-1.455316,0.009574,-0.494673,2025-02-19T15:27:20.279-06:00
67.000000,249.667490,0.657138,8.815118,44.941641,277.077490,270.216477,2.172637,3.000000,-93.176885,5.998731,2025-02-19T15:27:22.000-06:00,-0.133217,-0.989894,-0.171851,2025-02-19T15:27:21.273-06:00,-1.155864,0.017265,-0.385848,2025-02-19T15:27:21.273-06:00
68.000000,249.835368,0.652667,12.500076,44.941641,277.245368,270.601100,2.227105,3.000000,-93.176928,4.228007,2025-02-19T15:27:23.000-06:00,-0.100829,-0.989550,-0.167652,2025-02-19T15:27:22.278-06:00,-0.813246,0.012659,-0.301358,2025-02-19T15:27:22.278-06:00
69.000000,249.780829,0.648834,18.724322,44.941641,277.190829,270.437176,2.189254,3.000000,-93.176957,2.804933,2025-02-19T15:27:24.000-06:00,-0.077128,-0.988291,-0.151211,2025-02-19T15:27:23.273-06:00,-0.530747,0.024662,-0.167431,2025-02-19T15:27:23.273-06:00
70.000000,249.735300,0.678036,31.670390,44.941640,277.145300,270.940123,2.162218,3.000000,-93.176974,1.694017,2025-02-19T15:27:25.000-06:00,-0.035687,-0.990185,-0.139637,2025-02-19T15:27:24.278-06:00,-0.133289,0.007660,-0.075352,2025-02-19T15:27:24.278-06:00
71.000000,249.802898,0.654875,52.858956,44.941641,277.212898,271.152927,2.151966,3.000000,-93.176982,1.000626,2025-02-19T15:27:26.000-06:00,-0.022342,-0.990893,-0.134988,2025-02-19T15:27:25.272-06:00,0.048211,-0.004183,-0.003486,2025-02-19T15:27:25.272-06:00
72.000000,249.850104,0.682668,103.958548,44.941639,277.260103,270.451283,2.169845,3.000000,-93.176986,0.526207,2025-02-19T15:27:27.000-06:00,-0.012364,-0.990330,-0.134215,2025-02-19T15:27:26.277-06:00,0.147402,-0.001423,0.013837,2025-02-19T15:27:26.277-06:00
73.000000,249.831901,0.908858,180.000000,44.941639,277.241901,270.330147,2.152861,3.000000,-93.176983,0.023318,2025-02-19T15:27:28.000-06:00,0.030099,-0.989755,-0.121326,2025-02-19T15:27:27.272-06:00,0.577854,0.003803,0.138090,2025-02-19T15:27:27.272-06:00
