seconds_elapsed,location_altitude,location_speedAccuracy,location_bearingAccuracy,location_latitude,location_altitudeAboveMeanSeaLevel,location_bearing,location_horizontalAccuracy,location_verticalAccuracy,location_longitude,location_speed,location_local_time,accelerometerUncalibrated_z,accelerometerUncalibrated_y,accelerometerUncalibrated_x,accelerometerUncalibrated_local_time,accelerometer_z,accelerometer_y,accelerometer_x,accelerometer_local_time
0,259.974815,-1,-1,44.941526,287.384815,-1,26.241531,29.999976,-93.1671,-1,2025-03-28T02:18:10Z,-0.164366,-0.96637,-0.02253,2025-03-28T02:18:10Z,0.53653,0.076427,0.10413,2025-03-28T02:18:10Z
1,NA,NA,NA,NA,NA,NA,NA,NA,NA,NA,NA,-0.202868,-0.976226,-0.029268,2025-03-28T02:18:11Z,0.299885,-0.037396,-0.004546,2025-03-28T02:18:11Z
2,NA,NA,NA,NA,NA,NA,NA,NA,NA,NA,NA,-0.205605,-0.984452,-0.013515,2025-03-28T02:18:12Z,0.200783,-0.10226,0.021412,2025-03-28T02:18:12Z
3,258.058105,1.39,10.102564,44.941501,285.468105,272.109375,14,4,-93.167547,8.95,2025-03-28T02:18:14Z,-0.198702,-0.971313,-0.006274,2025-03-28T02:18:13Z,0.279737,0.020882,0.081235,2025-03-28T02:18:13Z
4,260.119812,0.64,4.099401,44.941488,287.529812,270.351562,4.403571,3,-93.167676,10.08,2025-03-28T02:18:15Z,-0.195907,-0.98651,-0.007976,2025-03-28T02:18:14Z,0.252144,-0.105606,0.065843,2025-03-28T02:18:14Z
5,259.286865,0.6,3.612075,44.94148,286.696865,267.890625,4.730385,3,-93.167803,10.08,2025-03-28T02:18:16Z,-0.204553,-0.969528,-0.011592,2025-03-28T02:18:15Z,0.133187,0.054512,0.030092,2025-03-28T02:18:15Z
6,259.55481,0.66,3.760399,44.941514,286.964809,269.648438,5.504186,3,-93.167908,10.78,2025-03-28T02:18:17Z,-0.215091,-0.979986,-0.017143,2025-03-28T02:18:16Z,0.035103,-0.046247,-0.002858,2025-03-28T02:18:16Z
7,259.174072,1.16,6.342981,44.941526,286.584072,271.757812,5.931837,3,-93.168073,11.88,2025-03-28T02:18:18Z,-0.215066,-0.97178,-0.032537,2025-03-28T02:18:17Z,-0.029535,0.052865,-0.091772,2025-03-28T02:18:17Z
8,258.711304,0.53,2.753842,44.941518,286.121304,270,4.553215,3,-93.168249,12.47,2025-03-28T02:18:19Z,-0.232007,-0.969208,-0.030946,2025-03-28T02:18:18Z,-0.163689,0.069096,-0.072844,2025-03-28T02:18:18Z
9,258.36145,0.51,2.602578,44.941489,285.77145,269.296875,3.950822,3,-93.168439,12.47,2025-03-28T02:18:20Z,-0.248295,-0.967197,-0.031152,2025-03-28T02:18:19Z,-0.331382,0.090421,-0.055424,2025-03-28T02:18:19Z
10,257.881042,1.05,4.398601,44.941501,285.291042,268.945312,3.535534,3,-93.168543,12.72,2025-03-28T02:18:20Z,-0.253831,-0.966461,-0.035856,2025-03-28T02:18:20Z,-0.387943,0.096783,-0.068589,2025-03-28T02:18:20Z
11,257.748108,0.83,4.027744,44.941505,285.158108,268.59375,3.535534,3,-93.168715,12.97,2025-03-28T02:18:21Z,-0.256505,-0.960488,-0.043059,2025-03-28T02:18:21Z,-0.414859,0.1548,-0.114118,2025-03-28T02:18:21Z
12,257.646362,1.65,6.345953,44.941505,285.056362,268.242188,3.535534,3,-93.168884,13.04,2025-03-28T02:18:22Z,-0.262664,-0.982496,-0.04642,2025-03-28T02:18:22Z,-0.493909,-0.056803,-0.210589,2025-03-28T02:18:22Z
13,257.889526,0.95,3.918885,44.941511,285.299526,270,3.535534,3,-93.169061,13.47,2025-03-28T02:18:23Z,-0.253983,-0.970295,-0.039778,2025-03-28T02:18:23Z,-0.474302,0.077479,-0.117507,2025-03-28T02:18:23Z
14,257.501465,1.22,5.126046,44.941511,284.911465,270.351562,3.535534,3,-93.169231,13.04,2025-03-28T02:18:24Z,-0.254756,-0.97179,-0.039471,2025-03-28T02:18:24Z,-0.435803,0.055834,-0.141104,2025-03-28T02:18:24Z
15,258.149841,2.02,5.88637,44.941511,285.559841,269.648438,3.535534,3,-93.169404,13.28,2025-03-28T02:18:25Z,-0.246355,-0.966994,-0.027383,2025-03-28T02:18:25Z,-0.361008,0.10729,-0.101886,2025-03-28T02:18:25Z
16,258.149855,2.02,12.325114,44.94151,285.559855,269.648319,4.748652,4.029364,-93.169572,13.28,2025-03-28T02:18:26Z,-0.241925,-0.971059,-0.010713,2025-03-28T02:18:26Z,-0.257925,0.05123,-0.005883,2025-03-28T02:18:26Z
17,257.210218,2.44,15.267141,44.941515,284.620218,270.703009,4.748652,4.029364,-93.169731,12.95,2025-03-28T02:18:27Z,-0.237474,-0.968606,-0.018521,2025-03-28T02:18:27Z,-0.188247,0.061389,-0.068618,2025-03-28T02:18:27Z
18,257.26985,1.7,10.443397,44.941514,284.67985,270.351444,4.748652,4.029364,-93.169904,13.19,2025-03-28T02:18:28Z,-0.229656,-0.972816,-0.011894,2025-03-28T02:18:28Z,-0.12834,0.037628,-0.03578,2025-03-28T02:18:28Z
19,256.932875,1.22,7.494673,44.941512,284.342875,269.999882,4.748652,4.029364,-93.170079,13.19,2025-03-28T02:18:29Z,-0.229357,-0.969017,-8.06e-4,2025-03-28T02:18:29Z,-0.120208,0.059574,0.070451,2025-03-28T02:18:29Z
20,256.561415,1.75,10.750555,44.94151,283.971415,269.648319,4.748652,4.029364,-93.170242,13.19,2025-03-28T02:18:30Z,-0.225176,-0.976588,-0.010858,2025-03-28T02:18:30Z,-0.068607,0.007057,0.016448,2025-03-28T02:18:30Z
21,256.842056,2.52,14.937216,44.941513,284.252056,270.35144,4.748652,4.029364,-93.17042,13.67,2025-03-28T02:18:31Z,-0.220545,-0.97268,-0.005913,2025-03-28T02:18:31Z,-0.029615,0.029976,-0.005615,2025-03-28T02:18:31Z
22,256.643691,2.92,17.308203,44.941522,284.053691,271.406128,4.748652,4.029364,-93.170588,13.67,2025-03-28T02:18:32Z,-0.232352,-0.969888,-0.019472,2025-03-28T02:18:32Z,-0.117015,0.053413,-0.086778,2025-03-28T02:18:32Z
23,256.409744,1.56,9.246848,44.941511,283.819744,268.94519,4.748652,4.029364,-93.170772,13.67,2025-03-28T02:18:33Z,-0.237326,-0.97602,-0.03004,2025-03-28T02:18:33Z,-0.213756,0.001243,-0.013868,2025-03-28T02:18:33Z
24,256.300064,1.07,7.258975,44.941524,283.710063,269.999877,4.748652,4.029364,-93.17095,13.72,2025-03-28T02:18:34Z,-0.22839,-0.959816,-0.042947,2025-03-28T02:18:34Z,-0.059039,0.142574,-0.139955,2025-03-28T02:18:34Z
25,256.484512,1.69,10.032097,44.941524,283.894512,268.94519,4.748652,4.029364,-93.171119,13.65,2025-03-28T02:18:35Z,-0.230762,-0.97421,-0.030765,2025-03-28T02:18:35Z,-0.065603,0.002203,-0.106435,2025-03-28T02:18:35Z
26,256.080338,1.15,7.258975,44.941525,283.490338,270.702998,4.748652,4.029364,-93.171306,14.14,2025-03-28T02:18:36Z,-0.234119,-0.970664,-0.018416,2025-03-28T02:18:36Z,-0.109356,0.03925,-0.006704,2025-03-28T02:18:36Z
27,255.836808,1.53,8.767578,44.941533,283.246808,271.406123,4.748652,4.029364,-93.171484,14.14,2025-03-28T02:18:37Z,-0.237666,-0.967718,-0.018443,2025-03-28T02:18:37Z,-0.140067,0.067289,0.020624,2025-03-28T02:18:37Z
28,255.906388,1.09,7.258975,44.941533,283.316388,271.054561,4.748652,4.029364,-93.171665,14.16,2025-03-28T02:18:38Z,-0.236998,-0.974802,-0.018596,2025-03-28T02:18:38Z,-0.124474,-0.00491,0.011898,2025-03-28T02:18:38Z
29,255.72487,1.67,9.268324,44.941534,283.13487,271.054557,4.748652,4.029364,-93.171852,14.6,2025-03-28T02:18:39Z,-0.239813,-0.965444,-0.020771,2025-03-28T02:18:39Z,-0.146447,0.086043,0.0032,2025-03-28T02:18:39Z
30,255.50612,0.76,7.258975,44.941527,282.91612,268.945182,4.748652,4.029364,-93.172032,14.6,2025-03-28T02:18:40Z,-0.243364,-0.963078,-0.026753,2025-03-28T02:18:40Z,-0.16516,0.093968,-0.052366,2025-03-28T02:18:40Z
31,254.967546,1.66,9.314907,44.941527,282.377546,269.999871,4.748652,4.029364,-93.172208,14.44,2025-03-28T02:18:41Z,-0.251463,-0.972412,-0.028021,2025-03-28T02:18:41Z,-0.230375,0.020702,-0.098983,2025-03-28T02:18:41Z
32,255.484635,0.83,7.258975,44.941528,282.894635,269.999871,4.748652,4.029364,-93.172395,14.39,2025-03-28T02:18:42Z,-0.252981,-0.962695,-0.032536,2025-03-28T02:18:42Z,-0.251254,0.101367,-0.07831,2025-03-28T02:18:42Z
33,255.925553,0.39,7.258975,44.941529,283.335553,269.999872,4.748652,4.029364,-93.17258,14.28,2025-03-28T02:18:43Z,-0.245449,-0.97229,-0.031496,2025-03-28T02:18:43Z,-0.158262,0.01234,-0.054365,2025-03-28T02:18:43Z
34,255.664567,0.37,7.258975,44.94153,283.074567,269.999872,4.748652,4.029364,-93.172758,14.28,2025-03-28T02:18:44Z,-0.240249,-0.95598,-0.027673,2025-03-28T02:18:44Z,-0.090166,0.163196,-0.071741,2025-03-28T02:18:44Z
35,255.761185,0.308016,7.258975,44.941533,283.171185,270.703,4.748652,4.029364,-93.172932,13.99,2025-03-28T02:18:45Z,-0.238412,-0.980073,-0.025701,2025-03-28T02:18:45Z,-0.050082,-0.074203,-0.021787,2025-03-28T02:18:45Z
36,254.037524,1.155259,7.258962,44.941523,281.447524,270.072108,2,3,-93.173109,14.037946,2025-03-28T02:18:46Z,-0.25157,-0.965695,-0.012835,2025-03-28T02:18:46Z,-0.176541,0.05709,0.04829,2025-03-28T02:18:46Z
37,254.016807,1.177839,7.258961,44.94153,281.426807,271.347943,2,3,-93.173289,14.1031,2025-03-28T02:18:47Z,-0.260708,-0.971043,-0.017492,2025-03-28T02:18:47Z,-0.289015,0.019811,0.066443,2025-03-28T02:18:47Z
38,253.828952,1.272373,7.412465,44.941526,281.238952,269.939431,2,3,-93.17346,13.906391,2025-03-28T02:18:48Z,-0.301135,-0.933559,-0.056202,2025-03-28T02:18:48Z,-0.589232,0.357451,-0.208768,2025-03-28T02:18:48Z
39,253.898028,1.283404,7.593496,44.94152,281.308028,268.374209,2,3,-93.173629,13.694494,2025-03-28T02:18:49Z,-0.363917,-0.943132,-0.055085,2025-03-28T02:18:49Z,-1.138057,0.249394,-0.363374,2025-03-28T02:18:49Z
40,253.632832,0.66443,7.258404,44.941515,281.042832,268.16807,2,3,-93.173778,12.712599,2025-03-28T02:18:50Z,-0.350719,-0.939365,-0.069838,2025-03-28T02:18:50Z,-0.991368,0.282548,-0.473171,2025-03-28T02:18:50Z
41,253.506665,0.654353,7.257707,44.941525,280.916665,271.84221,2,3,-93.17391,11.151573,2025-03-28T02:18:51Z,-0.265595,-0.958291,-0.094716,2025-03-28T02:18:51Z,-0.121997,0.085507,-0.656683,2025-03-28T02:18:51Z
42,253.026121,0.731486,7.251675,44.941539,280.436121,278.375027,2,3,-93.174031,9.980489,2025-03-28T02:18:52Z,-0.226341,-0.973017,-0.149304,2025-03-28T02:18:52Z,0.238953,-0.054941,-1.013913,2025-03-28T02:18:52Z
43,252.915088,0.684401,7.254022,44.941552,280.325088,280.33683,2.13703,3,-93.174167,10.166813,2025-03-28T02:18:53Z,-0.218135,-0.963852,-0.113747,2025-03-28T02:18:53Z,0.314551,0.0246,-0.58393,2025-03-28T02:18:53Z
44,253.091142,0.685139,7.258295,44.941581,280.501141,284.912542,2.07634,3,-93.174301,10.589096,2025-03-28T02:18:54Z,-0.227393,-0.969461,-0.054441,2025-03-28T02:18:54Z,0.232768,-0.04731,0.226837,2025-03-28T02:18:54Z
45,252.370077,0.685292,7.252024,44.941605,279.780077,284.125392,2.042326,3,-93.17444,11.174326,2025-03-28T02:18:55Z,-0.233612,-0.973678,-0.019299,2025-03-28T02:18:55Z,0.131216,-0.096326,0.773221,2025-03-28T02:18:55Z
46,253.668368,0.676755,7.255748,44.941623,281.078367,280.362746,2.12454,3,-93.174588,11.667706,2025-03-28T02:18:56Z,-0.23253,-0.97001,-0.008888,2025-03-28T02:18:56Z,0.143275,-0.059678,0.858705,2025-03-28T02:18:56Z
47,253.31734,0.667542,7.25879,44.941642,280.72734,280.05665,2.401567,3,-93.174715,10.973816,2025-03-28T02:18:57Z,-0.230682,-0.977563,-0.007375,2025-03-28T02:18:57Z,0.161038,-0.125426,0.779048,2025-03-28T02:18:57Z
48,252.761757,0.68056,7.256596,44.941648,280.171757,275.679267,2.218974,3,-93.174855,10.915592,2025-03-28T02:18:58Z,-0.234991,-0.966296,-0.006815,2025-03-28T02:18:58Z,0.161879,-0.015675,0.705027,2025-03-28T02:18:58Z
49,252.360531,0.676602,7.253467,44.941653,279.770531,273.527148,2.117271,3,-93.175007,11.414673,2025-03-28T02:18:59Z,-0.230489,-0.975911,-0.032521,2025-03-28T02:18:59Z,0.188175,-0.094411,0.441443,2025-03-28T02:18:59Z
50,252.675919,0.695478,7.258654,44.941649,280.085919,270.025831,2.062793,3,-93.175157,11.718083,2025-03-28T02:19:00Z,-0.229506,-0.972728,-0.066943,2025-03-28T02:19:00Z,0.17392,-0.076007,0.093183,2025-03-28T02:19:00Z
51,252.233184,0.676065,7.257411,44.94165,279.643183,270.419736,2.033243,3,-93.175305,11.718101,2025-03-28T02:19:01Z,-0.234444,-0.964949,-0.074879,2025-03-28T02:19:01Z,0.092742,0.012141,0.005582,2025-03-28T02:19:01Z
52,251.075857,0.687133,7.243569,44.941649,278.485857,269.666578,2.017934,3,-93.175448,11.51768,2025-03-28T02:19:02Z,-0.250201,-0.967263,-0.07454,2025-03-28T02:19:02Z,-0.039972,6.12e-4,-0.045778,2025-03-28T02:19:02Z
53,251.101724,0.685529,7.253848,44.941655,278.511724,271.190906,2.009558,3,-93.175591,11.305823,2025-03-28T02:19:03Z,-0.251769,-0.961987,-0.074356,2025-03-28T02:19:03Z,-0.045124,0.04465,-0.052491,2025-03-28T02:19:03Z
54,250.868952,0.686329,7.25477,44.941653,278.278952,270.402255,2.119105,3,-93.175739,11.383667,2025-03-28T02:19:04Z,-0.24679,-0.963917,-0.082195,2025-03-28T02:19:04Z,-0.019543,0.028203,-0.114806,2025-03-28T02:19:04Z
55,252.309803,0.677827,7.25155,44.941649,279.719803,269.195118,2.063529,3,-93.175883,11.269652,2025-03-28T02:19:05Z,-0.246597,-0.961455,-0.067912,2025-03-28T02:19:05Z,-0.00378,0.051667,0.012043,2025-03-28T02:19:05Z
56,251.732894,0.728352,7.258934,44.941655,279.142894,271.144203,2.033977,3,-93.176031,11.444283,2025-03-28T02:19:06Z,-0.266541,-0.955704,-0.069124,2025-03-28T02:19:06Z,-0.199602,0.109326,0.011417,2025-03-28T02:19:06Z
57,251.711357,0.67258,7.258894,44.941651,279.121357,269.833633,2.018514,3,-93.176171,11.253931,2025-03-28T02:19:07Z,-0.318416,-0.949767,-0.088631,2025-03-28T02:19:07Z,-0.663415,0.152113,-0.154896,2025-03-28T02:19:07Z
58,251.599118,0.673855,7.258386,44.941653,279.009118,270.469177,2.046359,3,-93.176304,10.67918,2025-03-28T02:19:08Z,-0.258341,-0.971578,-0.111664,2025-03-28T02:19:08Z,-0.146865,-0.057491,-0.216793,2025-03-28T02:19:08Z
59,250.88062,0.69424,7.248862,44.941649,278.29062,268.854657,2.026101,3,-93.17643,10.289272,2025-03-28T02:19:09Z,-0.264978,-0.952133,-0.119334,2025-03-28T02:19:09Z,-0.260477,0.141547,-0.250053,2025-03-28T02:19:09Z
60,251.451116,0.663072,7.258598,44.941654,278.861116,270.776686,2.014968,3,-93.176548,9.740946,2025-03-28T02:19:10Z,-0.295667,-0.944388,-0.137404,2025-03-28T02:19:10Z,-0.47105,0.195905,-0.426763,2025-03-28T02:19:10Z
61,250.800982,0.715416,7.255877,44.941658,278.210982,272.524943,2.264589,3,-93.176661,9.094572,2025-03-28T02:19:11Z,-0.319705,-0.945192,-0.133792,2025-03-28T02:19:11Z,-0.681383,0.184268,-0.46406,2025-03-28T02:19:11Z
62,250.97178,0.707387,7.258266,44.941659,278.38178,272.054132,2.77755,3,-93.176767,8.424802,2025-03-28T02:19:13Z,-0.357674,-0.939738,-0.058871,2025-03-28T02:19:12Z,-0.881869,0.220246,-0.11674,2025-03-28T02:19:12Z
63,250.548206,0.722355,8.30547,44.941671,277.958206,275.399948,2.745678,3,-93.176846,7.002669,2025-03-28T02:19:14Z,-0.392565,-0.934016,-0.04993,2025-03-28T02:19:13Z,-1.128823,0.261341,-0.289122,2025-03-28T02:19:13Z
