seconds_elapsed,location_latitude,location_longitude,location_local_time,accelerometer_z,accelerometer_y_new,accelerometer_x_new,L2_norm
1,44.940042,-93.167343,2025-02-28T01:23:32Z,0.124689,0.014961,0.490415,0.5062391238011934
2,44.940103,-93.167372,2025-02-28T01:23:33Z,-2.14e-4,-0.045221,-0.26442,0.2682590558340948
3,44.940111,-93.167432,2025-02-28T01:23:34Z,-0.061987,0.011048,-0.135401,0.14932473764919194
4,44.940119,-93.167489,2025-02-28T01:23:35Z,-0.329081,-0.180021,-0.206872,0.4283665362583777
5,44.940129,-93.167543,2025-02-28T01:23:36Z,-0.080372,-0.047751,-0.261354,0.27757112548137997
6,44.940115,-93.16761,2025-02-28T01:23:37Z,0.315958,0.056683,-0.521254,0.6121667687558677
7,44.940129,-93.167691,2025-02-28T01:23:38Z,0.398393,0.065534,-0.507513,0.6485222685259158
8,44.940115,-93.167783,2025-02-28T01:23:39Z,0.363487,0.093484,-0.454937,0.5897709143336928
9,44.940115,-93.167882,2025-02-28T01:23:40Z,0.333484,0.087584,-0.405102,0.5319681999104834
10,44.940115,-93.167993,2025-02-28T01:23:41Z,0.192182,-0.01142,-0.336783,0.3879267026295045
11,44.940115,-93.168111,2025-02-28T01:23:42Z,0.138701,0.073555,-0.39351,0.4236725451643049
12,44.940115,-93.168232,2025-02-28T01:23:43Z,-0.303731,-0.202061,-0.096612,0.3773791814952171
13,44.940116,-93.168358,2025-02-28T01:23:44Z,-0.41882,-0.17606,-0.144546,0.47676080178219354
14,44.940116,-93.168485,2025-02-28T01:23:45Z,-0.186613,-0.044183,-0.193975,0.27276885797869227
15,44.940116,-93.168611,2025-02-28T01:23:46Z,-0.166148,-0.045584,-0.159687,0.23491061476442482
16,44.940116,-93.168745,2025-02-28T01:23:47Z,-0.438574,-0.198188,-0.096464,0.4908471657410278
17,44.940117,-93.16889,2025-02-28T01:23:48Z,-0.443253,-0.135226,-0.07194,0.4689719146015036
18,44.940117,-93.169031,2025-02-28T01:23:49Z,-0.443751,-0.18474,-0.104426,0.49188271679029344
19,44.940118,-93.169163,2025-02-28T01:23:50Z,-2.506324,-0.775003,0.713083,2.7185983535406626
20,44.940119,-93.169297,2025-02-28T01:23:51Z,-0.928411,-0.256831,0.272186,1.0009966863471627
21,44.940119,-93.169358,2025-02-28T01:23:52Z,0.050762,-0.006005,-0.060596,0.07927619999091783
22,44.94012,-93.169454,2025-02-28T01:23:53Z,0.32404,-0.01567,-0.301397,0.44281782045102924
23,44.94012,-93.169558,2025-02-28T01:23:54Z,0.569804,0.358257,-0.295726,0.7351724583667427
24,44.94012,-93.169672,2025-02-28T01:23:55Z,0.593271,0.003793,-0.16056,0.6146253980189885
25,44.94012,-93.169806,2025-02-28T01:23:56Z,0.524355,0.190327,-0.158118,0.5798049972861565
26,44.94012,-93.169939,2025-02-28T01:23:57Z,0.252315,-0.011616,-0.178092,0.3090542851102376
27,44.94015,-93.170074,2025-02-28T01:23:58Z,0.294635,0.122179,-0.10578,0.33604597849996654
28,44.94015,-93.170222,2025-02-28T01:23:59Z,0.146125,0.013493,-0.119322,0.18913570883891812
29,44.940146,-93.170376,2025-02-28T01:24:00Z,0.118851,-0.008608,-0.063388,0.134972946952343
30,44.940147,-93.170527,2025-02-28T01:24:01Z,-0.221695,-0.106881,0.078582,0.25835508880221425
31,44.940123,-93.170679,2025-02-28T01:24:02Z,-0.274159,-0.029997,0.028617,0.27727587341671106
32,44.940123,-93.170833,2025-02-28T01:24:03Z,-0.038033,-0.159357,-0.037814,0.16814000456167472
33,44.940138,-93.170985,2025-02-28T01:24:04Z,0.023287,0.012707,-0.103891,0.10722449393212355
34,44.940136,-93.171137,2025-02-28T01:24:05Z,0.183658,0.009836,-0.129942,0.22519309763844894
35,44.940137,-93.171293,2025-02-28T01:24:06Z,0.151373,-0.053485,-0.075464,0.17739573176939744
36,44.940137,-93.171459,2025-02-28T01:24:07Z,0.113731,0.088273,-0.004943,0.14405310180277273
37,44.940135,-93.17163,2025-02-28T01:24:08Z,-0.133877,0.064324,-0.054111,0.15807791884384106
38,44.940133,-93.171802,2025-02-28T01:24:09Z,0.025659,-0.084668,0.146419,0.17107185059500582
39,44.940133,-93.17197,2025-02-28T01:24:10Z,-0.109109,-0.139672,0.03416,0.1804991608429247
40,44.940137,-93.172144,2025-02-28T01:24:11Z,-0.114884,0.044839,0.009915,0.12372217506170831
41,44.940138,-93.172312,2025-02-28T01:24:12Z,-0.119169,-0.202471,-0.028053,0.2366066930815779
42,44.940139,-93.172482,2025-02-28T01:24:13Z,-0.212554,-0.004573,0.003334,0.21262932723639041
43,44.940139,-93.172653,2025-02-28T01:24:14Z,-0.08507,-0.031974,-0.036398,0.09789819191384487
44,44.94014,-93.172825,2025-02-28T01:24:15Z,-0.356169,-0.022525,0.210546,0.41435896310083603
45,44.940135,-93.172995,2025-02-28T01:24:16Z,-0.226919,-0.267753,0.065902,0.35710919222837156
46,44.940137,-93.173162,2025-02-28T01:24:17Z,-0.235878,-0.062968,0.107058,0.2665798478355031
47,44.940138,-93.173322,2025-02-28T01:24:18Z,-0.2681,-0.175551,0.098941,0.33538796204097726
48,44.940141,-93.17348,2025-02-28T01:24:19Z,-0.389736,0.024387,0.107712,0.4050811652113685
49,44.940141,-93.173619,2025-02-28T01:24:20Z,-0.113472,-0.353758,0.11685,0.38945415628543495
50,44.940134,-93.173786,2025-02-28T01:24:21Z,-0.125096,0.007593,0.001002,0.12533023126524584
51,44.940137,-93.173936,2025-02-28T01:24:22Z,0.011696,0.054892,-0.034848,0.06606293351040354
52,44.940137,-93.174085,2025-02-28T01:24:23Z,0.171334,-0.007768,-0.077094,0.18804033135473888
53,44.940138,-93.174237,2025-02-28T01:24:24Z,0.61449,0.037194,-0.166867,0.6378290910776961
54,44.94014,-93.174396,2025-02-28T01:24:25Z,0.487827,-0.02767,-0.166213,0.5161081012714294
55,44.940137,-93.174561,2025-02-28T01:24:26Z,0.540149,0.173576,-0.210749,0.6052311219509453
56,44.940138,-93.174732,2025-02-28T01:24:27Z,0.577495,0.0687,-0.059729,0.5846261356337057
57,44.940137,-93.17491,2025-02-28T01:24:28Z,0.259743,0.081791,-0.07433,0.2822784841783022
58,44.940136,-93.175094,2025-02-28T01:24:29Z,-0.153753,-0.138883,0.131868,0.24559650266646715
59,44.940137,-93.175279,2025-02-28T01:24:30Z,-0.166938,-0.056475,0.044194,0.18168883043544531
60,44.940139,-93.175456,2025-02-28T01:24:31Z,-0.226932,-0.115696,0.129406,0.2857089600905089
61,44.940136,-93.175631,2025-02-28T01:24:32Z,-0.293632,-0.067109,-0.02387,0.3021475570065063
62,44.940142,-93.175801,2025-02-28T01:24:33Z,-0.225985,-0.127546,0.018543,0.26015580944887623
63,44.940138,-93.17597,2025-02-28T01:24:34Z,-0.234606,-0.182642,0.059685,0.30324969023067444
64,44.940139,-93.176136,2025-02-28T01:24:35Z,-0.2256,-0.009454,-0.02589,0.22727743006290793
65,44.940118,-93.176314,2025-02-28T01:24:36Z,-0.308443,-0.126978,-0.206907,0.3925187936672587
66,44.94013,-93.176459,2025-02-28T01:24:37Z,-0.565295,-0.1728,-0.166196,0.6140353307758438
67,44.940128,-93.176614,2025-02-28T01:24:38Z,-0.822697,-0.310052,0.209428,0.9037824316155963
68,44.940118,-93.176757,2025-02-28T01:24:39Z,-1.290745,-0.349336,0.575229,1.4556602276499828
1,44.940157,-93.177207,2025-02-28T01:07:09Z,-0.934151,-0.307064,-1.583546,1.8640129626730066
2,44.940126,-93.177134,2025-02-28T01:07:10Z,-0.585175,-0.076099,-1.208089,1.3445072965019564
3,44.940097,-93.177076,2025-02-28T01:07:11Z,-0.630298,-0.27668,-1.687407,1.8224076862362604
4,44.940087,-93.177006,2025-02-28T01:07:12Z,-0.129869,-0.055595,-1.272222,1.2800412409254631
5,44.940078,-93.176914,2025-02-28T01:07:13Z,0.339328,0.156051,-0.353121,0.5139940143873273
6,44.940073,-93.176817,2025-02-28T01:07:15Z,0.223858,0.042741,0.118552,0.25689253385219274
7,44.940073,-93.176724,2025-02-28T01:07:16Z,0.33528,-0.020116,0.254705,0.4215352522399521
8,44.940081,-93.176587,2025-02-28T01:07:17Z,0.181512,0.124205,0.347746,0.41146174632035964
9,44.940084,-93.176461,2025-02-28T01:07:18Z,0.015024,-0.022721,0.427759,0.4286253918026789
10,44.940084,-93.176329,2025-02-28T01:07:19Z,-0.184375,-0.068965,0.466674,0.5064927779603575
11,44.940086,-93.176196,2025-02-28T01:07:20Z,-0.139974,0.017517,0.494147,0.5138879484615299
12,44.940089,-93.176059,2025-02-28T01:07:21Z,-0.145099,-0.118024,0.504275,0.5378444570710011
13,44.940091,-93.175922,2025-02-28T01:07:22Z,-0.165476,-0.053506,0.379927,0.4178393518339315
14,44.940095,-93.175797,2025-02-28T01:07:23Z,-0.469644,-0.115413,0.369377,0.6085433554267108
15,44.940094,-93.175616,2025-02-28T01:07:24Z,-0.331627,-0.294572,0.456955,0.636833575071227
16,44.940093,-93.175469,2025-02-28T01:07:25Z,-0.517042,0.005034,0.504442,0.722370751265581
17,44.940093,-93.175328,2025-02-28T01:07:26Z,-0.401833,-0.202604,0.37834,0.5879279686364649
18,44.940082,-93.17518,2025-02-28T01:07:27Z,-0.404112,-0.10984,0.358768,0.5514397627737775
19,44.940083,-93.17503,2025-02-28T01:07:28Z,-0.459177,-0.132285,0.324382,0.5775521798746845
20,44.940084,-93.174886,2025-02-28T01:07:29Z,-0.225895,-0.056932,0.284552,0.3677494314788264
21,44.940085,-93.174743,2025-02-28T01:07:30Z,-0.187936,-0.010788,0.236758,0.3024742494891094
22,44.94008,-93.174604,2025-02-28T01:07:31Z,-0.085121,-0.086386,0.257829,0.28492791874086326
23,44.940079,-93.17446,2025-02-28T01:07:32Z,-0.166207,-0.116577,0.189711,0.2778582863601516
24,44.940079,-93.174315000000007,2025-02-28T01:07:33Z,0.135646,-0.191776,0.253324,0.345472025593969
25,44.94008,-93.174165,2025-02-28T01:07:34Z,-0.231277,0.12047,0.027032,0.2621694121231537
26,44.940074,-93.174021,2025-02-28T01:07:35Z,0.141143,-0.324071,0.191327,0.4019320594565703
27,44.940074,-93.173873,2025-02-28T01:07:36Z,-0.039352,0.044182,0.101031,0.11708070715963412
28,44.940079,-93.173722,2025-02-28T01:07:37Z,0.082978,-0.002653,0.236317,0.2504757700497196
29,44.940078,-93.173569,2025-02-28T01:07:38Z,-0.093884,0.026548,0.069518,0.1197988066885476
30,44.940074,-93.173413,2025-02-28T01:07:39Z,0.064141,-0.202604,0.118937,0.24353328040742192
31,44.940078,-93.173258,2025-02-28T01:07:40Z,0.022548,0.073536,0.137667,0.1576964124163895
32,44.940076,-93.173106,2025-02-28T01:07:41Z,-0.125704,-0.140454,0.031475,0.19110075184833783
33,44.940077,-93.172944,2025-02-28T01:07:42Z,0.026092,-0.037095,0.099728,0.10955594677150117
34,44.940078,-93.172784,2025-02-28T01:07:43Z,-0.058858,-0.042983,0.072548,0.10283489075697995
35,44.940078,-93.172621,2025-02-28T01:07:44Z,-0.140357,-0.132725,0.137477,0.23709900590892405
36,44.940078,-93.172459,2025-02-28T01:07:45Z,-0.092212,0.001514,0.138982,0.16679730652501557
37,44.940079,-93.1723,2025-02-28T01:07:46Z,-0.01768,-0.027712,0.094369,0.09993020316701051
38,44.940079,-93.172139,2025-02-28T01:07:47Z,0.00431,-0.104138,0.087504,0.13608912212223281
39,44.94008,-93.171979,2025-02-28T01:07:48Z,-0.131559,-0.136291,0.059852,0.19865867478164653
40,44.940076,-93.171823,2025-02-28T01:07:49Z,-0.218934,0.130017,0.047357,0.2589965291157393
41,44.940078,-93.171663,2025-02-28T01:07:50Z,-0.255253,-0.179111,0.025245,0.3128452562450004
42,44.940089,-93.171503,2025-02-28T01:07:51Z,-0.284214,-0.312277,0.038688,0.42401802304737
43,44.940076,-93.171357,2025-02-28T01:07:51Z,-0.15163,0.164228,0.196961,0.29791966770423195
44,44.940082,-93.171209,2025-02-28T01:07:52Z,8.78e-4,-0.03177,0.245661,0.24770835816540385
45,44.940083,-93.17106,2025-02-28T01:07:53Z,-0.20445,-0.060868,0.264098,0.339488541084968
46,44.94008,-93.170913,2025-02-28T01:07:54Z,-0.339874,-0.068311,-0.129281,0.36999230472808486
47,44.94008,-93.170776,2025-02-28T01:07:55Z,-0.175732,-0.19914,0.076632,0.2764252861950224
48,44.940082,-93.17064,2025-02-28T01:07:56Z,0.036624,0.01279,-0.068848,0.07902498706105558
49,44.940082,-93.170507,2025-02-28T01:07:57Z,0.272036,-0.009464,-0.070082,0.2810776393027379
50,44.940086,-93.170372,2025-02-28T01:07:58Z,0.090913,0.031465,-2.38e-4,0.09620434729262498
51,44.940072,-93.170233,2025-02-28T01:07:59Z,-0.16245,-0.126304,0.154101,0.25707940624834186
52,44.940079,-93.170101,2025-02-28T01:08:00Z,-1.437972,-0.419542,0.587905,1.6091647683108776
53,44.940071,-93.169981,2025-02-28T01:08:01Z,-2.213865,-0.647618,0.778145,2.434361713709366
54,44.94008,-93.169898,2025-02-28T01:08:02Z,-1.302789,-0.427089,0.399693,1.428082170846972
55,44.940075,-93.169845,2025-02-28T01:08:03Z,-0.977927,-0.333993,0.28522,1.0720275135359167
56,44.940075,-93.169808,2025-02-28T01:08:04Z,-0.642285,-0.18171,0.222647,0.7036478039005025
57,44.940077,-93.16979,2025-02-28T01:08:05Z,0.529136,0.134427,-0.111121,0.5571385837168343
58,44.940075,-93.169769,2025-02-28T01:08:06Z,1.110401,0.315348,-0.405055,1.223316923339982
59,44.940076,-93.169752,2025-02-28T01:08:07Z,1.797805,0.466295,-0.481332,1.9186490922714348
60,44.940078,-93.169707,2025-02-28T01:08:08Z,1.421013,0.282476,-0.559849,1.5532229522982206
61,44.940077,-93.169654,2025-02-28T01:08:09Z,1.622336,0.468644,-0.431715,1.7429799588225334
62,44.940077,-93.169586,2025-02-28T01:08:10Z,1.31539,0.484984,-0.376361,1.4515880733448454
63,44.940075,-93.169507,2025-02-28T01:08:11Z,1.110467,0.310845,-0.319325,1.1965492165970442
64,44.940073,-93.169421,2025-02-28T01:08:12Z,0.956556,0.23322,-0.273344,1.021815977498884
65,44.940076,-93.169323,2025-02-28T01:08:13Z,0.739622,0.238964,-0.243294,0.8144547050732779
66,44.940077,-93.169222,2025-02-28T01:08:14Z,0.649609,0.14649,-0.151681,0.6829775243315113
67,44.940079,-93.169114,2025-02-28T01:08:15Z,0.113894,-0.071963,-0.019541,0.13613363759923555
68,44.94008,-93.169004,2025-02-28T01:08:16Z,0.057538,0.104686,-0.076367,0.14178045961626728
69,44.940074,-93.168895,2025-02-28T01:08:17Z,0.448313,-8.16e-4,-0.112553,0.46222655660833684
70,44.940075,-93.168781,2025-02-28T01:08:18Z,0.346992,0.076932,-0.174747,0.39605365128603476
71,44.940078,-93.168661,2025-02-28T01:08:19Z,-0.052457,-0.046137,-0.017904,0.07211735459651858
72,44.940081,-93.168512,2025-02-28T01:08:20Z,-0.167826,-0.055796,0.07823,0.1933874163227794
73,44.940079,-93.168412,2025-02-28T01:08:21Z,-0.139667,-0.054217,0.194383,0.24542026132126907
74,44.940075,-93.168299,2025-02-28T01:08:22Z,-0.228314,-0.082188,0.067062,0.2517527790988612
75,44.940075,-93.168185,2025-02-28T01:08:23Z,-0.348536,-0.153339,0.117878,0.3986043340218468
76,44.940074,-93.168074,2025-02-28T01:08:24Z,-0.456194,-0.130935,0.178333,0.5070104523084311
77,44.940075,-93.167971,2025-02-28T01:08:25Z,-0.448991,-0.156248,0.172674,0.5057891515849268
78,44.940077,-93.167878,2025-02-28T01:08:26Z,-0.47755,-0.174513,0.114707,0.521216351928832
79,44.940074,-93.167789,2025-02-28T01:08:27Z,-0.3934,-0.150861,0.198161,0.46560754208023736
80,44.940077,-93.167703,2025-02-28T01:08:28Z,-0.753766,-0.249647,0.243172,0.8304332778429584
81,44.940074,-93.167631,2025-02-28T01:08:29Z,-0.855632,-0.288134,0.303227,0.9524042917317204
82,44.940074,-93.167561,2025-02-28T01:08:30Z,-0.864872,-0.27767,0.280899,0.9507935914198201
83,44.940073,-93.167523,2025-02-28T01:08:31Z,-1.116523,-0.347277,0.33937,1.217537236045781
84,44.940073,-93.1675,2025-02-28T01:08:32Z,-0.439281,-0.147973,0.14444100000000001,0.4855172583657557
85,44.940075,-93.167481,2025-02-28T01:08:33Z,-0.120403,-0.057548,0.047661,0.14170471281506483
86,44.940076,-93.167468,2025-02-28T01:08:34Z,-0.086382,-0.052392,0.034264,0.10668080091562868
87,44.940076,-93.167462,2025-02-28T01:08:35Z,0.163247,0.024319,-0.038682,0.1695207771749528
88,44.940078,-93.167458,2025-02-28T01:08:36Z,0.273647,0.051612,-0.07606,0.2886721371261868
89,44.940078,-93.167457,2025-02-28T01:08:37Z,0.371693,0.077242,-0.110465,0.3953789688868137
90,44.940079,-93.167454,2025-02-28T01:08:38Z,0.298914,0.061244,-0.089782,0.31805850791324547
91,44.940079,-93.16745,2025-02-28T01:08:39Z,0.111735,0.006818,-0.028623,0.11554424034974656
92,44.940078,-93.167442,2025-02-28T01:08:40Z,0.324237,0.063642,-0.097264,0.3444418993516904
93,44.940081,-93.167436,2025-02-28T01:08:41Z,0.966996,0.243563,-0.297863,1.0407336670608864
94,44.940074,-93.167423,2025-02-28T01:08:42Z,1.467524,0.3624,-0.451548,1.577610866747564
95,44.940076,-93.167387,2025-02-28T01:08:43Z,1.114418,0.30448,-0.344363,1.2054963396431362
96,44.940077,-93.167334,2025-02-28T01:08:44Z,0.939344,0.206475,-0.255698,0.9951786488691364
97,44.940077,-93.167268000000007,2025-02-28T01:08:45Z,0.780558,0.135408,-0.210517,0.8197094150471861
98,44.940077,-93.167193,2025-02-28T01:08:46Z,0.395469,0.185481,-0.22206,0.49000977023116593
99,44.940076,-93.16711,2025-02-28T01:08:47Z,-0.054245,-0.231877,0.047899,0.24290693146758904
1,44.94174,-93.167116,2025-02-28T01:35:23Z,-0.159764,-0.10077,0.021471,0.19010558234044575
2,44.94165,-93.167131,2025-02-28T01:35:24Z,-0.042587,-0.101526,0.029207,0.11390447793655875
3,44.941547,-93.167133,2025-02-28T01:35:25Z,-0.383885,-0.1698,0.03194,0.42097493610071374
4,44.941413,-93.167135,2025-02-28T01:35:26Z,-0.477324,-0.050205,-0.022029,0.48046229804428986
5,44.941296,-93.16713,2025-02-28T01:35:27Z,-0.449188,-0.39344,0.120086,0.609085823460044
6,44.941177,-93.167124,2025-02-28T01:35:28Z,-0.591781,0.17556,0.187483,0.645116997799624
7,44.94106,-93.167123,2025-02-28T01:35:29Z,-0.537328,-0.328868,0.17745,0.6544952585832842
8,44.940945,-93.167121,2025-02-28T01:35:30Z,-0.429008,-0.177318,0.133691,0.4830764128675711
9,44.940837,-93.167126,2025-02-28T01:35:31Z,-0.667434,-0.160744,0.221601,0.7213971036072989
10,44.940738,-93.167128,2025-02-28T01:35:32Z,-0.754351,-0.371859,0.21781,0.8687725497401493
11,44.940641,-93.167131,2025-02-28T01:35:33Z,-1.028906,-0.247365,0.272162,1.0926615003307292
12,44.940551,-93.167132,2025-02-28T01:35:34Z,-0.828779,-0.378454,0.241276,0.942505262124833
13,44.940456,-93.167133,2025-02-28T01:35:35Z,-1.198644,-0.201124,0.255022,1.2418673530598991
14,44.94039,-93.167131,2025-02-28T01:35:36Z,-1.500383,-0.512599,0.445572,1.646949085027828
15,44.940301,-93.167125,2025-02-28T01:35:37Z,-1.391649,-0.395368,0.428288,1.5087854073952993
16,44.940252,-93.16712,2025-02-28T01:35:38Z,-0.97198,-0.344688,0.289595,1.0711770170093269
17,44.940243,-93.167121,2025-02-28T01:35:39Z,-0.603326,-0.157519,0.178723,0.6486573890475619
18,44.940257,-93.167123,2025-02-28T01:35:40Z,-0.205549,-0.066321,0.076879,0.22925803602709327
19,44.940245,-93.167126,2025-02-28T01:35:41Z,0.065598,0.014459,-0.039126,0.07773676196626665
20,44.940252,-93.167125,2025-02-28T01:35:42Z,0.642964,0.176007,-0.197916,0.695378970347105
21,44.940262,-93.167124,2025-02-28T01:35:43Z,0.603238,0.169028,-0.186561,0.6536601228077173
22,44.940264,-93.167125,2025-02-28T01:35:44Z,0.591344,0.163311,-0.179294,0.6391436047501375
23,44.940265,-93.167125,2025-02-28T01:35:45Z,0.561748,0.154349,-0.175285,0.60836605800291
24,44.940269,-93.167127,2025-02-28T01:35:46Z,0.53298,0.145354,-0.162027,0.5757153936147618
25,44.940269,-93.167128,2025-02-28T01:35:47Z,0.495663,0.130476,-0.148241,0.5335552363401562
26,44.940268,-93.16713,2025-02-28T01:35:48Z,0.46593,0.119703,-0.141189,0.5013520787131535
27,44.940268,-93.167131,2025-02-28T01:35:49Z,0.437746,0.113083,-0.131678,0.47090171064565056
28,44.940267,-93.167132,2025-02-28T01:35:50Z,0.40622,0.101875,-0.121444,0.43605257614306103
29,44.940267,-93.167133,2025-02-28T01:35:51Z,0.381023,0.094511,-0.114587,0.4089511416037373
30,44.940267,-93.167133,2025-02-28T01:35:52Z,0.35726,0.085706,-0.104933,0.3820878963340765
31,44.940267,-93.167133,2025-02-28T01:35:53Z,0.329921,0.07707,-0.0951,0.3518972309368177
32,44.940267,-93.167133,2025-02-28T01:35:54Z,0.308824,0.069997,-0.088197,0.3287104406525597
33,44.940267,-93.167133,2025-02-28T01:35:55Z,0.281775,0.062749,-0.082536,0.3002445318769353
34,44.940267,-93.167133,2025-02-28T01:35:56Z,0.266705,0.056256,-0.073335,0.2822663932989544
35,44.940267,-93.167133,2025-02-28T01:35:57Z,0.2446,0.05098,-0.070199,0.2595303835796495
36,44.940267,-93.167133,2025-02-28T01:35:58Z,0.229611,0.045296,-0.062058,0.2421242125459575
37,44.940267,-93.167133,2025-02-28T01:35:59Z,0.342837,0.081184,-0.097387,0.3655301330861794
38,44.940254,-93.16713,2025-02-28T01:36:00Z,0.416161,0.093179,-0.118125,0.44252211197520963
39,44.940247,-93.16712,2025-02-28T01:36:01Z,0.358052,0.084082,-0.113826,0.38500308531750754
40,44.940247,-93.16712,2025-02-28T01:36:02Z,0.074063,-0.006367,-0.009566,0.0749491495215256
41,44.94023,-93.167122,2025-02-28T01:36:03Z,0.316662,0.066766,-0.08892,0.3356177697917677
42,44.940227,-93.167124,2025-02-28T01:36:04Z,0.607236,0.155461,-0.178883,0.6518456948588369
43,44.94023,-93.167114,2025-02-28T01:36:05Z,1.606139,0.443312,-0.493616,1.737775811812617
44,44.940211,-93.167124,2025-02-28T01:36:06Z,1.558666,0.380923,-0.457341,1.6684432330067451
45,44.940159,-93.16712,2025-02-28T01:36:07Z,1.224042,0.299013,-0.362183,1.3110545821673483
46,44.940096,-93.167116,2025-02-28T01:36:08Z,0.959054,0.189084,-0.270388,1.0142223644329678
47,44.940033,-93.167115,2025-02-28T01:36:09Z,1.091579,0.247008,-0.41027,1.1920063499012914
48,44.939962,-93.167121,2025-02-28T01:36:10Z,0.705568,0.320074,-0.159869,0.7910952314740621
49,44.93987,-93.167119,2025-02-28T01:36:11Z,0.445067,0.128368,-0.180198,0.49702544916432595
50,44.93977,-93.167118,2025-02-28T01:36:12Z,0.21081,0.064855,-0.064226,0.2297215840991003
51,44.939665,-93.167119,2025-02-28T01:36:13Z,0.10894,0.026161,-0.054238,0.1244752271136711
52,44.939556,-93.167122,2025-02-28T01:36:14Z,0.059699,0.033015,-0.041089,0.07963834972549344
53,44.939436,-93.167122,2025-02-28T01:36:15Z,-0.073468,-0.014891,0.012517,0.07599976443384546
54,44.939311,-93.167121,2025-02-28T01:36:16Z,-0.293075,-0.10979,0.06314,0.31927019799066747
55,44.93918,-93.16712,2025-02-28T01:36:17Z,-0.613644,-0.192662,0.191663,0.6711276410259079
56,44.939054,-93.167118,2025-02-28T01:36:18Z,-0.497239,-0.133288,0.266923,0.5798794719543019
57,44.938932,-93.167121,2025-02-28T01:36:19Z,-0.414801,-0.10524,0.180388,0.46440839542906626
58,44.938813,-93.167111,2025-02-28T01:36:20Z,-0.255836,-0.150562,0.016511,0.29731059157218065
59,44.938675,-93.167124,2025-02-28T01:36:21Z,-0.305791,-0.093537,0.09402,0.33331226567589733
60,44.938548,-93.167123,2025-02-28T01:36:22Z,-0.208868,-0.070483,0.068694,0.230895128465284
61,44.938418,-93.167122,2025-02-28T01:36:23Z,-0.161818,-0.029515,0.060264,0.17517976494161647
62,44.938284,-93.16712,2025-02-28T01:36:24Z,-0.218007,-0.089103,0.043759,0.23954383051750677
63,44.938149,-93.167119,2025-02-28T01:36:25Z,-0.305013,-0.132636,0.054161,0.33698464740400264
64,44.938014,-93.167121,2025-02-28T01:36:26Z,-0.273562,-0.270271,0.131974,0.40657068015414
65,44.937879,-93.167123,2025-02-28T01:36:27Z,-0.134074,-0.372022,0.098796,0.4075988905480485
66,44.937745,-93.167126,2025-02-28T01:36:28Z,-0.159989,-0.107455,0.09732,0.21590331064159252
67,44.937608,-93.16713,2025-02-28T01:36:29Z,-0.137567,0.078287,0.085598,0.17994596817378267
68,44.93747,-93.167132,2025-02-28T01:36:30Z,-0.149206,-0.087442,0.083954,0.19224153535591626
69,44.93733,-93.167133,2025-02-28T01:36:31Z,-0.188228,0.042801,-0.007722,0.19318730514451513
70,44.937189,-93.167136,2025-02-28T01:36:32Z,-0.156024,-0.119772,-0.059359,0.2054563492350626
71,44.937049,-93.167135,2025-02-28T01:36:33Z,-0.183103,-0.097138,-0.003036,0.20729620582393687
72,44.936909,-93.167137,2025-02-28T01:36:34Z,-0.043964,-0.116802,0.073978,0.14508027082963418
73,44.936767,-93.167136,2025-02-28T01:36:35Z,-0.175521,0.077182,0.056064,0.19976950383129052
74,44.936626,-93.167138,2025-02-28T01:36:36Z,-0.159057,-0.07693,0.035015,0.18012052735321424
75,44.936481,-93.167134,2025-02-28T01:36:37Z,-0.390691,-0.146124,0.225574,0.4742101963612761
76,44.936342,-93.167135,2025-02-28T01:36:38Z,-0.448065,-0.17135,0.182083,0.5131055306796058
77,44.936208,-93.167137,2025-02-28T01:36:39Z,-0.336919,-0.127152,0.136883,0.38525186482871177
78,44.936074,-93.167138,2025-02-28T01:36:40Z,-0.245357,-0.246274,0.080798,0.3569023078224628
79,44.935946,-93.167138,2025-02-28T01:36:41Z,-0.030208,0.03844,0.109897,0.12028095224514976
80,44.935816,-93.16714,2025-02-28T01:36:42Z,-0.003656,0.065732,-0.060025,0.08909019466248796
81,44.935685,-93.16714,2025-02-28T01:36:43Z,-0.021768,-0.038453,-0.017325,0.0474619285111762
82,44.935593,-93.167154,2025-02-28T01:36:44Z,-0.159148,-0.067592,0.078331,0.18982231146258863
83,44.935508,-93.167135,2025-02-28T01:36:45Z,-0.128959,-0.091164,0.13746,0.2093717989056788
84,44.935313,-93.167135,2025-02-28T01:36:46Z,-0.459948,-0.134033,0.06854,0.48395737352890905
85,44.935186,-93.167155,2025-02-28T01:36:47Z,-0.285499,-0.110782,0.038983,0.3087102279063653
86,44.935073,-93.167148,2025-02-28T01:36:48Z,-0.107093,-0.088292,0.056113,0.1497099084296026
87,44.93496,-93.167155,2025-02-28T01:36:49Z,-0.407578,-0.097303,0.055541,0.4226967028189361
88,44.934843,-93.167151,2025-02-28T01:36:50Z,-0.871481,-0.334923,0.199009,0.9545978898840076
89,44.934737,-93.167144,2025-02-28T01:36:51Z,-0.821951,-0.203638,0.391497,0.9329211019448537
90,44.934644,-93.167145,2025-02-28T01:36:52Z,-0.654381,-0.237446,0.178134,0.7185588479957643
91,44.93456,-93.167145,2025-02-28T01:36:53Z,-0.644986,-0.16693,0.15305,0.6835911552938642
1,44.941449,-93.16703,2025-02-28T01:11:34Z,0.203091,-0.026197,-0.878747,0.9022907109679229
2,44.941373,-93.167053,2025-02-28T01:11:35Z,0.190732,0.032974,-1.127653,1.1441447762014212
3,44.941307,-93.167074,2025-02-28T01:11:36Z,0.139796,0.038709,-0.494456,0.5152941337071479
4,44.941236,-93.167072,2025-02-28T01:11:37Z,0.071625,0.116283,-0.177813,0.22420825070233255
5,44.941166,-93.167075,2025-02-28T01:11:38Z,0.139275,0.042432,0.263712,0.3012341600698699
6,44.941086,-93.167072,2025-02-28T01:11:40Z,-0.614984,-0.191503,0.53532,0.8375238633406215
7,44.941008,-93.167077,2025-02-28T01:11:41Z,-0.6844,-0.189017,0.503971,0.8706994631501732
8,44.940938,-93.167075,2025-02-28T01:11:42Z,-0.566137,-0.128222,0.455102,0.7376108828216948
9,44.940867,-93.16707,2025-02-28T01:11:43Z,-0.599081,-0.246764,0.426114,0.7754764066385257
10,44.940795,-93.167069,2025-02-28T01:11:44Z,-0.578329,-0.120783,0.456367,0.7465412272734842
11,44.940728,-93.167084,2025-02-28T01:11:45Z,-0.606412,-0.161471,0.396348,0.7422264712936342
12,44.940671,-93.167073,2025-02-28T01:11:46Z,-0.781735,-0.266394,0.483042,0.9567679693765881
13,44.940603,-93.167062,2025-02-28T01:11:47Z,-0.738469,-0.219405,0.426039,0.880331896222669
14,44.940567,-93.167078,2025-02-28T01:11:48Z,-0.582103,-0.226532,0.444393,0.7665805815972644
15,44.940501,-93.167084,2025-02-28T01:11:49Z,-0.578351,-0.168691,0.341006,0.6922655738356487
16,44.940473,-93.167074,2025-02-28T01:11:50Z,-0.585467,-0.187264,0.274445,0.6731712054225136
17,44.940436,-93.167059,2025-02-28T01:11:51Z,-0.572884,-0.156739,0.296833,0.6639826966615922
18,44.940402,-93.167076,2025-02-28T01:11:52Z,-0.504841,-0.176752,0.29359,0.6101645621346753
19,44.940401,-93.167071000000007,2025-02-28T01:11:53Z,-0.369303,-0.123975,0.249119,0.4624011057458665
20,44.94038,-93.167066,2025-02-28T01:11:54Z,-0.106465,-0.047884,0.144362,0.18565575866371611
21,44.940368,-93.167058,2025-02-28T01:11:55Z,0.083862,0.006304,0.09314,0.12548958147989817
22,44.94036,-93.167056,2025-02-28T01:11:56Z,0.169096,0.02406,0.045764,0.17682387992576115
23,44.940349,-93.167057,2025-02-28T01:11:57Z,0.103895,0.009673,0.066699,0.12384060139954102
24,44.940335,-93.167057,2025-02-28T01:11:58Z,0.106659,0.010554,0.044463,0.11603657856900125
25,44.94032,-93.167052,2025-02-28T01:11:58Z,0.088111,0.00553,0.049397,0.10116418748747008
26,44.940312,-93.167052,2025-02-28T01:11:59Z,0.004252,-0.0201,0.069151,0.0721384107462869
27,44.940305,-93.167052,2025-02-28T01:12:00Z,0.090321,0.005799,0.046602,0.1018000876522216
28,44.940299,-93.167051,2025-02-28T01:12:01Z,0.047692,-0.005552,0.048434,0.06819973551268362
29,44.940299,-93.167051,2025-02-28T01:12:02Z,0.116497,0.011474,0.021172,0.11895989773448867
30,44.9403,-93.16705,2025-02-28T01:12:03Z,0.241601,0.049788,-0.022299,0.24768353507247914
31,44.940299,-93.16705,2025-02-28T01:12:04Z,0.202306,0.036673,-0.021688,0.20674379291528924
32,44.940299,-93.16705,2025-02-28T01:12:05Z,0.167304,0.025832,-0.018823,0.17032975655768431
33,44.940299,-93.16705,2025-02-28T01:12:06Z,0.161598,0.02042,-0.015178,0.16358869669998596
34,44.940299,-93.16705,2025-02-28T01:12:07Z,0.153276,0.021828,-0.019122,0.15599886103430372
35,44.940299,-93.16705,2025-02-28T01:12:08Z,0.140507,0.018018,-0.019086,0.1429375414962773
36,44.940299,-93.16705,2025-02-28T01:12:09Z,0.132531,0.013332,-0.018916,0.13453632684520567
37,44.940299,-93.16705,2025-02-28T01:12:10Z,0.120194,0.01123,-0.016657,0.12186125793294603
38,44.940299,-93.16705,2025-02-28T01:12:11Z,0.121787,0.012665,-0.016344,0.12352976131281078
39,44.940299,-93.16705,2025-02-28T01:12:12Z,0.355506,0.07887,-0.094513,0.37621496528580567
40,44.940268,-93.167042,2025-02-28T01:12:13Z,0.918496,0.22596,-0.276093,0.9853528141051813
41,44.940266,-93.16704,2025-02-28T01:12:14Z,1.572463,0.424347,-0.445155,1.6884529122255674
42,44.940248,-93.167038,2025-02-28T01:12:15Z,1.334936,0.336194,-0.405189,1.435011726590762
43,44.940199,-93.167039,2025-02-28T01:12:16Z,1.263486,0.361836,-0.30314,1.3487831637042331
44,44.940141,-93.167036,2025-02-28T01:12:17Z,0.874822,0.191435,-0.225231,0.923412093417668
45,44.940079,-93.16704,2025-02-28T01:12:18Z,0.77766,0.163629,-0.184788,0.8158897782084293
46,44.940017,-93.167043,2025-02-28T01:12:19Z,0.652895,0.150986,-0.207203,0.7014283544525414
47,44.939939,-93.167036,2025-02-28T01:12:20Z,0.410929,0.132468,-0.137471,0.45311001964865
48,44.939853,-93.167047,2025-02-28T01:12:21Z,-0.022619,0.045378,-0.001677,0.050730605890330155
49,44.939755,-93.167049,2025-02-28T01:12:22Z,0.048811,-0.019742,-0.03706,0.06438714068041848
50,44.939663,-93.167048,2025-02-28T01:12:23Z,-0.109725,0.076882,0.00531,0.13408435273737201
51,44.93956,-93.167046,2025-02-28T01:12:24Z,-0.199793,-0.124654,0.038664,0.23864359924582096
52,44.939451,-93.167048,2025-02-28T01:12:25Z,-0.443241,-0.127234,0.073446,0.466953305752299
53,44.939344,-93.167049,2025-02-28T01:12:26Z,-0.535518,-0.157254,0.1863,0.5884012566607927
54,44.939239,-93.167047,2025-02-28T01:12:27Z,-0.480608,-0.133897,0.182519,0.5312491333018813
55,44.939136,-93.167047,2025-02-28T01:12:28Z,-0.376483,-0.168223,0.151807,0.439413008759413
56,44.939033,-93.167045,2025-02-28T01:12:29Z,-0.449844,-0.097894,0.110062,0.47334607151216546
57,44.938928,-93.167052,2025-02-28T01:12:30Z,-0.037399,-0.06855,0.031025,0.08402581940094365
58,44.938823,-93.167052,2025-02-28T01:12:31Z,0.092799,-0.028377,0.020099,0.0991003447572207
59,44.938712,-93.16705,2025-02-28T01:12:32Z,0.129692,0.03108,-0.06367,0.14778311867057076
60,44.938595,-93.167056,2025-02-28T01:12:33Z,0.008067,-9.22e-4,-0.101042,0.10136770855158954
61,44.938473,-93.167059,2025-02-28T01:12:34Z,-0.054501,0.002759,0.01596,0.05685677340475803
62,44.93835,-93.167056,2025-02-28T01:12:35Z,-0.097934,-0.091455,0.091315,0.16215275084314787
63,44.938227,-93.167047,2025-02-28T01:12:36Z,-0.186513,-0.056308,0.082616,0.2116201632382888
64,44.938109,-93.167054,2025-02-28T01:12:37Z,-0.143574,-0.08988,0.102794,0.1981376145813813
65,44.937985,-93.167055,2025-02-28T01:12:38Z,-0.072579,-0.133309,0.097964,0.18065421671801632
66,44.93786,-93.167057,2025-02-28T01:12:39Z,-0.018779,-0.256803,-0.054562,0.2632060855945394
67,44.937732,-93.167059,2025-02-28T01:12:40Z,-0.293641,-0.156685,0.1659,0.371884439182389
68,44.937604,-93.167055,2025-02-28T01:12:41Z,-0.293565,-0.063797,0.086017,0.31248902496407777
69,44.937476,-93.167065,2025-02-28T01:12:42Z,-0.26575,-0.146951,0.13996,0.3343747306555924
70,44.937355,-93.167065,2025-02-28T01:12:43Z,-0.195325,-0.097942,0.074602,0.23088947440929394
71,44.937233,-93.167067,2025-02-28T01:12:44Z,-0.157608,-0.066771,0.010134,0.17146820714348185
72,44.937106,-93.16707,2025-02-28T01:12:45Z,-0.141832,-0.119348,0.010535,0.18566434109165927
73,44.936977,-93.167072,2025-02-28T01:12:46Z,-0.082869,-9.67e-4,0.021588,0.085640224158978
74,44.93685,-93.167074,2025-02-28T01:12:47Z,-0.091285,-0.025639,-0.054743,0.10948564104484206
75,44.936725,-93.167076,2025-02-28T01:12:48Z,-0.230221,-0.054776,0.057905,0.24362903776438474
76,44.936597,-93.167074,2025-02-28T01:12:49Z,-0.244546,-0.106239,0.05418,0.27207525362847684
77,44.936476999999996,-93.167075,2025-02-28T01:12:50Z,-0.022748,-0.034194,0.068832,0.08015326171778664
78,44.936356,-93.167069,2025-02-28T01:12:51Z,0.265891,0.02516,-0.047751,0.27131385420210297
79,44.936227,-93.167073,2025-02-28T01:12:52Z,0.274115,-0.008124,-0.04018,0.2771632461222086
80,44.936093,-93.167075,2025-02-28T01:12:53Z,0.155823,0.09813,0.015096,0.18476523873553702
81,44.935958,-93.16708,2025-02-28T01:12:54Z,4.99e-4,-0.029239,0.013469,0.032195994828549714
82,44.935823,-93.167079,2025-02-28T01:12:55Z,-0.039459,-0.04876,-0.002242,0.06276604850554159
83,44.935693,-93.167077,2025-02-28T01:12:56Z,-0.02316,-0.065427,-0.036154,0.07825720187305447
84,44.935561,-93.167076,2025-02-28T01:12:57Z,-0.219833,-0.125907,0.086508,0.26769900000186775
85,44.935427,-93.167077,2025-02-28T01:12:58Z,-0.332844,-0.074285,0.15552,0.37481976997084876
86,44.935296,-93.167078,2025-02-28T01:12:59Z,-0.293375,-0.055897,0.110282,0.3183637616909311
87,44.935172,-93.167068,2025-02-28T01:13:00Z,-0.514461,-0.195453,0.144497,0.5689915454020383
88,44.935054,-93.167074,2025-02-28T01:13:01Z,-0.955844,-0.317141,0.208234,1.0283859027490605
89,44.934936,-93.167086,2025-02-28T01:13:02Z,-0.975763,-0.327049,0.231035,1.0547282359902004
90,44.934832,-93.167075,2025-02-28T01:13:03Z,-0.757427,-0.208923,-0.078915,0.7896657884719332
91,44.934747,-93.16707,2025-02-28T01:13:04Z,-0.65916,-0.206945,-0.521394,0.8655459790565722
92,44.934666,-93.167059,2025-02-28T01:13:05Z,-0.784658,-0.305872,0.165902,0.8583526844788218
93,44.934577,-93.16704,2025-02-28T01:13:06Z,-0.787685,-0.1993,0.76882,1.1185939127426896
94,44.934504,-93.167063,2025-02-28T01:13:07Z,-0.159961,-0.034269,0.460776,0.4889544028414102
1,44.934531,-93.16693,2025-02-28T01:14:58Z,0.934345,0.244138,-0.422711,1.0541767079527036
2,44.934559,-93.166942,2025-02-28T01:14:59Z,0.693361,0.234956,-0.694625,1.0091866471976332
3,44.934615,-93.166953,2025-02-28T01:15:00Z,0.748363,0.173403,-0.545544,0.942196389355213
4,44.934698,-93.166948,2025-02-28T01:15:01Z,0.330622,0.058346,-0.44135,0.5545313202155493
5,44.934791,-93.166943,2025-02-28T01:15:02Z,-0.120585,0.003583,-0.253408,0.2806585017026921
6,44.934897,-93.166938,2025-02-28T01:15:04Z,-0.029437,-0.070549,-0.211592,0.2249774940610727
7,44.934999,-93.166925,2025-02-28T01:15:05Z,-0.198451,0.037114,-0.25639,0.32633737220398157
8,44.935116,-93.166939,2025-02-28T01:15:06Z,-0.143623,-0.18133,-0.166161,0.28481153935541303
9,44.935236,-93.16694,2025-02-28T01:15:07Z,-0.301655,0.10966,-0.240724,0.4012095447531128
10,44.93536,-93.166941,2025-02-28T01:15:08Z,-0.455087,-0.159969,-0.127036,0.49883103735232837
11,44.935486,-93.166942,2025-02-28T01:15:09Z,-0.427789,-0.177423,-0.133413,0.4819557842987259
12,44.935617,-93.166943,2025-02-28T01:15:10Z,-0.275188,-0.124014,-0.099186,0.3177196407778405
13,44.935745,-93.166944,2025-02-28T01:15:11Z,-0.588541,0.032611,0.16567,0.612283051294089
14,44.93588,-93.166948,2025-02-28T01:15:12Z,-0.57805,-0.371366,-0.009039,0.6871216864406187
15,44.936019,-93.166948,2025-02-28T01:15:13Z,-0.619483,-0.102222,0.045928,0.6295378509327298
16,44.936149,-93.166947,2025-02-28T01:15:14Z,-0.560311,-0.112897,0.050254,0.5737766236489598
17,44.936279999999996,-93.16695,2025-02-28T01:15:15Z,-0.467959,-0.243747,0.084528,0.5343624317576976
18,44.93641,-93.166952,2025-02-28T01:15:16Z,-0.493372,-0.12885,0.24617,0.5662313323933955
19,44.936539,-93.166951,2025-02-28T01:15:17Z,-0.467746,-0.226044,0.041902,0.5211890137522087
20,44.936661,-93.166951,2025-02-28T01:15:18Z,-0.419115,-0.098627,-0.009802,0.4306747584407519
21,44.936786,-93.166948,2025-02-28T01:15:19Z,-0.341065,-0.039838,0.08501,0.3537500538077698
22,44.936906,-93.166951,2025-02-28T01:15:20Z,-0.226177,-0.214312,0.059387,0.3171947106147894
23,44.937027,-93.166953,2025-02-28T01:15:21Z,-0.157687,-0.131249,0.050004,0.21116791893183018
24,44.937153,-93.166962,2025-02-28T01:15:22Z,-0.192071,0.066908,-0.082718,0.21956825141399655
25,44.937255,-93.166946,2025-02-28T01:15:23Z,-0.206951,-0.126619,-0.028571,0.24428956097836027
26,44.937385,-93.166944,2025-02-28T01:15:24Z,-0.129318,-0.005984,-0.044364,0.1368470601657193
27,44.937501,-93.166947,2025-02-28T01:15:25Z,-0.202784,-0.077905,0.073756,0.2294133544870481
28,44.937621,-93.166948,2025-02-28T01:15:26Z,-0.417725,-0.227694,0.056769,0.47912571692824
29,44.937743,-93.166954,2025-02-28T01:15:27Z,-0.372414,-0.140836,-0.003235,0.3981675922485405
30,44.937861,-93.166944,2025-02-28T01:15:28Z,-0.201249,-0.158248,0.172772,0.3088587921510411
31,44.93799,-93.166938,2025-02-28T01:15:29Z,-0.179504,-0.272449,0.021177,0.3269535271961445
32,44.938101,-93.166932,2025-02-28T01:15:30Z,-0.029689,-0.081219,0.019549,0.08865735210911727
33,44.938203,-93.166938,2025-02-28T01:15:31Z,-0.077197,-0.017124,0.030744,0.08483985927027461
34,44.938306,-93.166944,2025-02-28T01:15:32Z,-0.076796,-0.068979,0.020087,0.10516280533534658
35,44.938413,-93.166944,2025-02-28T01:15:33Z,-0.439497,-0.125804,0.049244,0.4597925955917516
36,44.938516,-93.166945,2025-02-28T01:15:34Z,-1.429793,-0.444005,0.422276,1.5555595401816031
37,44.938613,-93.166951,2025-02-28T01:15:35Z,-0.480695,-0.139428,0.068963,0.5052363264631711
38,44.938691,-93.166952,2025-02-28T01:15:36Z,0.223931,0.014561,0.009554,0.22460720023632366
39,44.938769,-93.166949,2025-02-28T01:15:37Z,0.884957,0.23225,-0.266777,0.9530261917061881
40,44.938853,-93.166953,2025-02-28T01:15:38Z,0.830219,0.367377,-0.293485,0.9541293902375086
41,44.938945,-93.166953,2025-02-28T01:15:38Z,0.632677,0.027382,-0.101778,0.6413959163706923
42,44.939044,-93.166956,2025-02-28T01:15:39Z,0.367804,-0.033378,-0.001944,0.3693205280457614
43,44.939148,-93.166955,2025-02-28T01:15:40Z,-0.070418,-0.026758,0.070389,0.10309848014883634
44,44.939248,-93.166951,2025-02-28T01:15:41Z,-0.091406,-0.01913,0.05397,0.10785997698868659
45,44.939346,-93.166949,2025-02-28T01:15:42Z,-0.234921,-0.117562,0.029961,0.26439811195619384
46,44.939441,-93.166949,2025-02-28T01:15:43Z,-0.464956,-0.112208,0.126043,0.49463274765122456
47,44.93953,-93.166946,2025-02-28T01:15:44Z,-0.519644,-0.289226,0.078728,0.5998997114485054
48,44.939614,-93.166947,2025-02-28T01:15:45Z,-0.730593,-0.129516,0.245529,0.7815529513385514
49,44.939688,-93.166948,2025-02-28T01:15:46Z,-0.742553,-0.267486,0.266108,0.8329148730026377
50,44.939755,-93.166947,2025-02-28T01:15:47Z,-0.690901,-0.244088,0.244978,0.7726172170156448
51,44.93981,-93.166947,2025-02-28T01:15:48Z,-0.624609,-0.17304,0.207986,0.6806889309199908
52,44.939858,-93.166947,2025-02-28T01:15:49Z,-0.552038,-0.166015,0.177949,0.6033015666066184
53,44.939913,-93.166945,2025-02-28T01:15:50Z,-0.876536,-0.259987,0.275453,0.9548732662893018
54,44.93993,-93.166946,2025-02-28T01:15:51Z,-0.626839,-0.174321,0.212749,0.6845269022931093
55,44.939942,-93.166946,2025-02-28T01:15:52Z,-0.141571,-0.040817,0.057742,0.15824826727013475
56,44.939945,-93.166946,2025-02-28T01:15:53Z,0.289646,0.095177,-0.080553,0.31534465661241196
57,44.939945,-93.166947,2025-02-28T01:15:54Z,0.530633,0.148224,-0.151544,0.5714081893016585
58,44.939943,-93.166948,2025-02-28T01:15:55Z,0.517252,0.151036,-0.152864,0.5601150839747132
59,44.939943,-93.166948,2025-02-28T01:15:56Z,0.527011,0.154124,-0.150882,0.5694384772923234
60,44.939942,-93.166949,2025-02-28T01:15:57Z,0.513399,0.146993,-0.146328,0.5537123430392356
61,44.939941,-93.16695,2025-02-28T01:15:58Z,0.4945,0.139302,-0.137451,0.5318158277120003
62,44.939942,-93.166949,2025-02-28T01:15:59Z,0.468705,0.130437,-0.129413,0.5034341193870355
63,44.939943,-93.166949,2025-02-28T01:16:00Z,0.45062,0.125967,-0.126159,0.48460516172447027
64,44.939944,-93.166948,2025-02-28T01:16:01Z,0.427779,0.114831,-0.114355,0.4574473712100661
65,44.939944,-93.166949,2025-02-28T01:16:02Z,0.401535,0.106862,-0.107713,0.4292457729995719
66,44.939945,-93.166949,2025-02-28T01:16:03Z,0.355752,0.090905,-0.096291,0.3795986844155285
67,44.939945,-93.166949,2025-02-28T01:16:04Z,0.313655,0.075452,-0.082215,0.3329140573090899
68,44.939945,-93.166949,2025-02-28T01:16:05Z,0.286195,0.067657,-0.075168,0.30353793156375036
69,44.939945,-93.166949,2025-02-28T01:16:06Z,0.273156,0.063196,-0.073334,0.2898030543455331
70,44.939945,-93.166949,2025-02-28T01:16:07Z,0.263771,0.060132,-0.064707,0.2781690020724811
71,44.939945,-93.166949,2025-02-28T01:16:08Z,0.251936,0.054844,-0.061111,0.2649795591229633
72,44.939945,-93.166949,2025-02-28T01:16:09Z,0.238446,0.052911,-0.055183,0.25040214121688337
73,44.939945,-93.166949,2025-02-28T01:16:10Z,0.222288,0.046375,-0.056134,0.23390943017544205
74,44.939945,-93.166949,2025-02-28T01:16:11Z,0.211533,0.042979,-0.047333,0.2209837492192582
75,44.939945,-93.166949,2025-02-28T01:16:12Z,0.237608,0.049663,-0.058681,0.24973472925085932
76,44.939945,-93.166949,2025-02-28T01:16:13Z,0.582495,0.144918,-0.16387,0.622217830545702
77,44.939942,-93.166952,2025-02-28T01:16:14Z,1.379094,0.363576,-0.415615,1.4855381505828116
78,44.93995,-93.166952,2025-02-28T01:16:15Z,1.70835,0.476325,-0.526025,1.8498777064308873
79,44.939976,-93.166952,2025-02-28T01:16:16Z,1.238403,0.331097,-0.369906,1.3342030065376107
80,44.94004,-93.166954,2025-02-28T01:16:17Z,0.751389,0.260169,-0.244443,0.8318808316886499
81,44.940076,-93.166952,2025-02-28T01:16:18Z,0.69122,0.059771,-0.141688,0.7081194462694835
82,44.940135,-93.166953,2025-02-28T01:16:19Z,0.607936,0.042989,-0.155288,0.6289265435335036
83,44.9402,-93.166937,2025-02-28T01:16:20Z,0.341345,0.130685,-0.08112,0.37440009702188914
84,44.940279,-93.166944,2025-02-28T01:16:21Z,0.12128,0.041178,0.033682,0.1324346752478368
85,44.940362,-93.166947,2025-02-28T01:16:22Z,-0.276696,-0.053806,0.132809,0.311599089429029
86,44.940445,-93.166944,2025-02-28T01:16:23Z,-0.524625,-0.214725,0.153398,0.5872556195167484
87,44.940527,-93.166943,2025-02-28T01:16:24Z,-0.552699,-0.160272,0.155378,0.5960751810543701
88,44.940608,-93.166943,2025-02-28T01:16:25Z,-0.252303,-0.245637,0.051964,0.35594184479209523
89,44.940686,-93.166942,2025-02-28T01:16:26Z,-0.412056,-0.053954,0.058228,0.41963279332769027
90,44.940766000000004,-93.166945,2025-02-28T01:16:27Z,-0.396044,-0.100003,0.119639,0.42563474983370425
91,44.940845,-93.166943,2025-02-28T01:16:28Z,-0.415689,-0.201178,0.187411,0.49839022394705934
92,44.940923,-93.166944,2025-02-28T01:16:29Z,-0.231455,-0.058004,0.082,0.2523090982128865
93,44.940999,-93.166946,2025-02-28T01:16:30Z,-0.072156,-0.04664,0.04026,0.09488227197954316
94,44.941073,-93.166951,2025-02-28T01:16:31Z,0.074689,0.083279,0.008824,0.11221275122730037
95,44.941152,-93.16695,2025-02-28T01:16:32Z,0.198119,0.068501,0.02004,0.21058282637005327
96,44.941236,-93.16695,2025-02-28T01:16:33Z,0.102027,-0.067884,-0.101065,0.15884546077870781
97,44.941322,-93.16695,2025-02-28T01:16:34Z,0.209259,0.173459,-0.034262,0.27395481088310897
98,44.941412,-93.166949,2025-02-28T01:16:35Z,0.120142,-0.146552,-0.070157,0.20207323800295773
99,44.941505,-93.166953,2025-02-28T01:16:36Z,0.280476,-0.152263,0.042825,0.3220012241746916
1,44.934182,-93.167134,2025-02-28T01:00:21Z,1.078769,0.290037,-0.59966,1.2678549334722802
2,44.934201,-93.167117,2025-02-28T01:00:22Z,0.797918,0.238021,-1.433396,1.6576945508690677
3,44.934227,-93.167079,2025-02-28T01:00:23Z,0.40573,0.048611,-2.028705,2.0694501296832453
4,44.934318,-93.167015,2025-02-28T01:00:24Z,-0.209155,-0.134616,-2.559445,2.5715026714950153
5,44.934366,-93.166992,2025-02-28T01:00:25Z,0.090647,0.039737,-1.731469,1.7342954782098117
6,44.934429,-93.166994,2025-02-28T01:00:27Z,0.626983,0.161776,-0.339308,0.7310328825223937
7,44.934502,-93.166996,2025-02-28T01:00:28Z,0.594758,0.18509,0.058433,0.6256275266906021
8,44.934569,-93.167002,2025-02-28T01:00:29Z,0.478452,0.162432,0.039948,0.5068493993604017
9,44.934668,-93.167,2025-02-28T01:00:30Z,0.357546,0.06595,0.037362,0.36549208426448854
10,44.934764,-93.167004,2025-02-28T01:00:31Z,0.055215,0.045303,0.138707,0.15601503095214897
11,44.934874,-93.167006,2025-02-28T01:00:32Z,0.060939,0.055718,0.140906,0.16331735388806665
12,44.934985,-93.166999,2025-02-28T01:00:33Z,-0.025399,0.028097,0.102096,0.10889510469254347
13,44.935096,-93.166997,2025-02-28T01:00:34Z,-0.136196,-0.130634,0.089055,0.20867531094262207
14,44.935212,-93.167001,2025-02-28T01:00:35Z,-0.16407,-0.014223,0.182487,0.2458104224763466
15,44.935331,-93.166998,2025-02-28T01:00:36Z,-0.30177,-0.025331,0.195403,0.36040133860739193
16,44.935437,-93.166991,2025-02-28T01:00:37Z,-0.341073,-0.142713,0.238819,0.44015032257059633
17,44.935585,-93.167005,2025-02-28T01:00:38Z,-0.257235,-0.038488,0.242636,0.35570127897577203
18,44.935729,-93.167002,2025-02-28T01:00:39Z,-0.332946,-0.157106,0.137895,0.3931289421767367
19,44.935863,-93.167001,2025-02-28T01:00:40Z,-0.330763,-0.132704,0.119791,0.37598457078183406
20,44.936001,-93.167,2025-02-28T01:00:41Z,-0.329463,-0.045878,0.114361,0.351751471317463
21,44.936141,-93.166997,2025-02-28T01:00:42Z,-0.286932,-0.11955,0.140648,0.34118035557165366
22,44.936285,-93.167,2025-02-28T01:00:43Z,-0.288503,-0.054933,0.218014,0.3657618346602062
23,44.936422,-93.167001,2025-02-28T01:00:44Z,-0.315454,-0.029011,0.28613,0.42687614261867574
24,44.936563,-93.167003,2025-02-28T01:00:45Z,-0.329905,-0.147521,0.175328,0.40167108689822323
25,44.936704,-93.166998,2025-02-28T01:00:46Z,-0.381929,-0.146544,0.1627,0.4402456075612794
26,44.936847,-93.166994,2025-02-28T01:00:47Z,-0.305775,-0.023783,0.151395,0.34202986381162687
27,44.936984,-93.166995,2025-02-28T01:00:48Z,-0.221817,-0.139493,0.086298,0.2758775513556694
28,44.937123,-93.166994,2025-02-28T01:00:49Z,-0.234876,-0.06468,0.145523,0.283773115895428
29,44.937261,-93.166992,2025-02-28T01:00:50Z,-0.197297,-0.085542000000000007,0.0488,0.22051072530151453
30,44.937399,-93.16699,2025-02-28T01:00:51Z,-0.263745,-0.062315,0.053507,0.2762382726904438
31,44.93754,-93.167002,2025-02-28T01:00:52Z,-0.626029,-0.201489,0.191384,0.6849364652418499
32,44.937674,-93.167001,2025-02-28T01:00:53Z,-0.646966,-0.237606,0.260125,0.7366726763067842
33,44.937803,-93.167002,2025-02-28T01:00:54Z,-0.600584,-0.274828,0.242189,0.7034821123248266
34,44.937931,-93.167004,2025-02-28T01:00:55Z,-0.878919,-0.473509,0.290094,1.0396460505758678
35,44.938054,-93.166998,2025-02-28T01:00:56Z,-1.420221,-0.519846,0.406315,1.566001095715453
36,44.938168,-93.166998,2025-02-28T01:00:57Z,-1.180882,-0.355547,0.366299,1.2864955983344832
37,44.938251,-93.166995,2025-02-28T01:00:58Z,-0.145298,-0.089427,0.115808,0.2062042434020212
38,44.93832,-93.166995,2025-02-28T01:00:59Z,0.116989,0.047729,0.055932,0.1381769596785224
39,44.938413,-93.166994,2025-02-28T01:01:00Z,0.352411,0.067741,-0.03376,0.36044707461983927
40,44.938511,-93.166998,2025-02-28T01:01:01Z,0.462357,0.093962,-0.142612,0.49289049030895293
41,44.938621,-93.166994,2025-02-28T01:01:02Z,0.628585,0.154536,-0.123149,0.6589128574568871
42,44.938723,-93.166996,2025-02-28T01:01:03Z,0.536592,0.141085,-0.164649,0.5787445419958619
43,44.938843,-93.166984,2025-02-28T01:01:04Z,0.187964,0.06972,-0.045115,0.20549137918900637
44,44.938951,-93.16699,2025-02-28T01:01:05Z,-0.025032,-0.007181,-0.025372,0.03635802757301336
45,44.939058,-93.166995,2025-02-28T01:01:05Z,0.2016,-0.091453,-0.030053,0.2234041047474285
46,44.939158,-93.166995,2025-02-28T01:01:06Z,0.338459,0.082702,-0.020622,0.3490263347786239
47,44.939262,-93.166995,2025-02-28T01:01:07Z,0.236449,0.101303,0.025619,0.2585087243614807
48,44.939374,-93.166995,2025-02-28T01:01:08Z,0.06644,-0.097433,5.37e-4,0.11793113014806567
49,44.939496,-93.166996,2025-02-28T01:01:09Z,-0.013097,0.036427,0.007792,0.03948636476050942
50,44.939603,-93.166997,2025-02-28T01:01:10Z,-0.010844,0.042157,0.041667,0.060257313863132
51,44.93971,-93.166995,2025-02-28T01:01:11Z,-0.014553,-0.058363,0.026782,0.0658430338152792
52,44.939819,-93.166996,2025-02-28T01:01:12Z,0.028059,1.15e-4,0.071182,0.07651272985588738
53,44.939925,-93.166996,2025-02-28T01:01:13Z,-0.048118,0.028741,0.071998,0.09124198051883793
54,44.940031,-93.166991,2025-02-28T01:01:14Z,-0.067985,-0.015876,0.022717,0.0734170939904325
55,44.940137,-93.166991,2025-02-28T01:01:15Z,-0.005336,-0.20356,0.017263,0.20436036226479928
56,44.940239,-93.166991,2025-02-28T01:01:16Z,-0.104631,0.028546,-0.027492,0.11188534462117905
57,44.940336,-93.166988,2025-02-28T01:01:17Z,-0.469653,-0.133912,0.136451,0.5070751813626851
58,44.940435,-93.166968,2025-02-28T01:01:18Z,-0.914958,-0.317427,0.346837,1.0286904036988
59,44.94053,-93.166978,2025-02-28T01:01:19Z,-1.61893,-0.453765,0.485523,1.7500198866452916
60,44.940602,-93.166967,2025-02-28T01:01:20Z,-0.673376,-0.253076,0.237694,0.757615428029287
61,44.940639,-93.166968,2025-02-28T01:01:21Z,-0.469986,-0.120355,0.164197,0.5121843623442637
62,44.940682,-93.166964,2025-02-28T01:01:22Z,-0.249473,-0.147835,0.04674,0.2937287737931032
63,44.940725,-93.166966,2025-02-28T01:01:23Z,-0.63144,-0.158992,0.208944,0.6838512446431606
64,44.940754,-93.166977,2025-02-28T01:01:24Z,-0.491767,-0.133329,0.158579,0.5336278701220543
65,44.940776,-93.166982,2025-02-28T01:01:25Z,-0.192907,-0.055607,0.08319,0.21731503675079641
66,44.940791,-93.166978,2025-02-28T01:01:26Z,0.139944,0.051312,-0.013944,0.14970530924452882
67,44.940803,-93.166982,2025-02-28T01:01:27Z,0.137208,0.058206,-0.01072,0.14942855182327106
68,44.940814,-93.166988,2025-02-28T01:01:28Z,0.12513,0.036674,-0.015536,0.13131590334761437
69,44.940821,-93.166988,2025-02-28T01:01:29Z,0.350789,0.108669,-0.079793,0.37580420025726163
70,44.940825,-93.166991,2025-02-28T01:01:30Z,0.525281,0.154381,-0.131315,0.5630250894471754
71,44.940826,-93.166991,2025-02-28T01:01:31Z,0.496282,0.143219,-0.125042,0.5314536736621547
72,44.940829,-93.167003,2025-02-28T01:01:32Z,0.48615,0.140352,-0.123342,0.5208202716561635
73,44.940809,-93.167009,2025-02-28T01:01:33Z,0.474045,0.138057,-0.11289,0.5064805518220813
74,44.940831,-93.166994,2025-02-28T01:01:34Z,0.457935,0.129478,-0.108157,0.48802351721817666
75,44.940836,-93.166996,2025-02-28T01:01:35Z,0.439918,0.124628,-0.10494,0.4691187362576771
76,44.940841,-93.166998,2025-02-28T01:01:36Z,0.422327,0.119012,-0.099704,0.44996093018061023
77,44.940841,-93.166998,2025-02-28T01:01:37Z,0.406147,0.111066,-0.095056,0.43165574837015663
78,44.940841,-93.166998,2025-02-28T01:01:38Z,0.387932,0.105016,-0.087737,0.41136039922311435
79,44.940841,-93.166998,2025-02-28T01:01:39Z,0.362508,0.097538,-0.084294,0.38474821629735984
80,44.940841,-93.166998,2025-02-28T01:01:40Z,0.348157,0.090129,-0.077487,0.36788689628607324
81,44.940841,-93.166998,2025-02-28T01:01:41Z,0.419484,0.111369,-0.099051,0.4451752250721058
82,44.940841,-93.166998,2025-02-28T01:01:42Z,0.351545,0.089397,-0.077405,0.3709005859512762
83,44.940851,-93.167009,2025-02-28T01:01:43Z,0.331943,0.085401,-0.074423,0.3507396028095487
84,44.940851,-93.167009,2025-02-28T01:01:44Z,0.28807,0.070645,-0.059102,0.3024369146268358
85,44.940858,-93.16701,2025-02-28T01:01:45Z,0.600962,0.149947,-0.143617,0.6358185833569195
86,44.940858,-93.167008,2025-02-28T01:01:46Z,0.466472,0.133618,-0.128012,0.5018336067383292
87,44.940863,-93.167011,2025-02-28T01:01:47Z,0.591824,0.148822,-0.156469,0.6299890337307468
88,44.940879,-93.16699,2025-02-28T01:01:48Z,1.392572,0.37655,-0.390158,1.4944129090207965
89,44.940896,-93.167013,2025-02-28T01:01:49Z,1.37417,0.344592,-0.362658,1.4623979144979657
90,44.940932,-93.166991,2025-02-28T01:01:50Z,1.17244,0.299757,-0.338069,1.2564873502785452
91,44.940984,-93.166993,2025-02-28T01:01:51Z,1.149928,0.327152,-0.310609,1.2352492813877691
92,44.94105,-93.167011,2025-02-28T01:01:52Z,0.991715,0.270753,-0.200198,1.0473228095663725
93,44.941125,-93.167008,2025-02-28T01:01:53Z,0.770074,0.235219,-0.164723,0.8218732324184795
94,44.941207,-93.167007,2025-02-28T01:01:54Z,0.481848,0.132214,-0.104022,0.5103710546102708
95,44.941298,-93.167007,2025-02-28T01:01:55Z,-0.03768,-0.023592,0.038785,0.05899695830294982
96,44.941392,-93.167009,2025-02-28T01:01:56Z,-0.527395,-0.160595,0.091855,0.5589039104130512
97,44.941485,-93.16701,2025-02-28T01:01:57Z,-0.302246,-0.203179,0.195008,0.4131131450595587
98,44.941577,-93.167009,2025-02-28T01:01:58Z,-0.188357,0.003216,0.21253,0.28400299823241304
99,44.941672,-93.167009,2025-02-28T01:01:59Z,-0.182024,-0.170961,0.115602,0.27518034541187714
100,44.941769,-93.167008,2025-02-28T01:02:00Z,-0.136136,-0.10046,0.084038,0.18891163950376377
1,44.934469,-93.17719,2025-02-28T01:38:10Z,1.105468,0.25046,1.180219,1.636369945515072
2,44.93453,-93.177202,2025-02-28T01:38:11Z,0.723468,0.208088,-0.720825,1.042254884082104
3,44.934589,-93.177197,2025-02-28T01:38:12Z,0.553052,0.177265,-0.758619,0.9554015815823209
4,44.934659,-93.177207,2025-02-28T01:38:13Z,0.07651,-0.008739,-0.510879,0.5166502713267457
5,44.934745,-93.177206,2025-02-28T01:38:14Z,-0.370516,-0.070657,-0.284263,0.4723134246175944
6,44.934822,-93.177202,2025-02-28T01:38:15Z,-0.63071,-0.164919,-0.287017,0.7123005959214129
7,44.934905,-93.17721,2025-02-28T01:38:16Z,-0.606753,-0.201481,-0.134122,0.6532476614990673
8,44.934993,-93.177209,2025-02-28T01:38:17Z,-0.233399,-0.156528,-0.17998,0.3337198052034071
9,44.935086,-93.177211,2025-02-28T01:38:18Z,-0.18346,-0.044795,-0.203386,0.27754284105521443
10,44.935175,-93.177177,2025-02-28T01:38:19Z,-0.088777,0.134788,-0.234936,0.2850334800843578
11,44.935264,-93.177188,2025-02-28T01:38:20Z,0.075658,-0.264136,-0.22369,0.35430096748386114
12,44.935378,-93.177187,2025-02-28T01:38:21Z,-0.023719,0.088316,-0.34544,0.3573389153408848
13,44.93549,-93.177183,2025-02-28T01:38:22Z,0.003402,-0.003083,-0.183538,0.18359541371450433
14,44.935591,-93.177191,2025-02-28T01:38:23Z,-0.131516,-0.133751,-0.210204,0.28172949769770295
15,44.935708,-93.177192,2025-02-28T01:38:24Z,-0.134387,-0.037026,-0.201265,0.24482318246032178
16,44.935827,-93.177196,2025-02-28T01:38:25Z,-0.150104,-0.077828,-0.156577,0.23044471208730305
17,44.935948,-93.177185,2025-02-28T01:38:26Z,-0.167217,0.062859,-0.019989,0.17975633254770193
18,44.936055,-93.177172,2025-02-28T01:38:27Z,-0.18436,-0.15226,-0.077675,0.2514062903449315
19,44.936207,-93.177192,2025-02-28T01:38:28Z,-0.077191,-0.113638,-0.02757,0.14011477589819
20,44.936333,-93.177192,2025-02-28T01:38:29Z,-0.509157,-0.137399,0.026374,0.5280292830194174
21,44.936472,-93.177184,2025-02-28T01:38:30Z,-0.543213,-0.19461,0.115147,0.5883980345633387
22,44.936598,-93.177198,2025-02-28T01:38:31Z,-0.66125,-0.198764,0.154584,0.7075697161778477
23,44.93672,-93.1772,2025-02-28T01:38:32Z,-0.647336,-0.191222,0.071509,0.6787660033185222
24,44.936846,-93.177204,2025-02-28T01:38:33Z,-0.66273,-0.233468,0.21346,0.7343592659754489
25,44.936956,-93.177191,2025-02-28T01:38:34Z,-0.584935,-0.134625,0.100503,0.6085833532549177
26,44.937051,-93.177187,2025-02-28T01:38:35Z,-0.433328,-0.1576,0.069858,0.4663593633111701
27,44.937164,-93.177183,2025-02-28T01:38:36Z,-0.353087,-0.205083,0.012726,0.40852346020026803
28,44.937266,-93.177184,2025-02-28T01:38:37Z,-0.358668,-0.1127,0.120079,0.3946682030072856
29,44.937364,-93.177196,2025-02-28T01:38:38Z,-0.287795,-0.167775,0.004137,0.33315390950580187
30,44.937468,-93.177185,2025-02-28T01:38:39Z,-0.262567,-0.083465,0.101886,0.29374920035635843
31,44.937559,-93.177191,2025-02-28T01:38:40Z,-0.099953,-0.038242,0.049257,0.11781046142851662
32,44.937656,-93.177187,2025-02-28T01:38:41Z,-0.02722,-0.051608,0.073962,0.094205581087322
33,44.937767,-93.177201,2025-02-28T01:38:42Z,-0.220793,0.041172,-0.132931,0.26098914382402955
34,44.937862,-93.177203,2025-02-28T01:38:43Z,0.108601,-0.120172,0.067167,0.17534791893261809
35,44.937948,-93.177183,2025-02-28T01:38:44Z,0.412461,0.04531,-0.159698,0.44461277964651447
36,44.938043,-93.177199,2025-02-28T01:38:45Z,0.441932,0.108488,-0.160985,0.4826900755070483
37,44.938137,-93.177197,2025-02-28T01:38:46Z,0.05142,0.03991,0.004964,0.06527990346193842
38,44.938235,-93.177206,2025-02-28T01:38:47Z,-0.184719,-0.051051,0.135571,0.2347483963800392
39,44.938333,-93.177198,2025-02-28T01:38:48Z,0.146694,-0.03359,-0.085639,0.17315154072950087
40,44.938413,-93.177192,2025-02-28T01:38:49Z,0.371162,0.097818,-0.164924,0.41776730023303643
41,44.938516,-93.177183,2025-02-28T01:38:50Z,0.291313,0.091046,-0.05582,0.3102716720633709
42,44.938611,-93.17719,2025-02-28T01:38:51Z,-0.104663,-0.077769,0.052669,0.1406285337013794
43,44.938723,-93.17719,2025-02-28T01:38:52Z,-0.077015,-0.048172,-0.045371,0.10154003865471
44,44.938814,-93.177194,2025-02-28T01:38:53Z,0.468942,0.147559,-0.101819,0.5020431919725633
45,44.938909,-93.177191,2025-02-28T01:38:54Z,0.087059,0.061919,0.043511,0.11535353988066427
46,44.939014,-93.177191,2025-02-28T01:38:55Z,0.127181,-0.004443,-0.023909,0.12948508520675267
47,44.939113999999996,-93.17719,2025-02-28T01:38:56Z,0.40059,-0.056056,-0.072036,0.41085740656826425
48,44.939217,-93.177185,2025-02-28T01:38:57Z,0.20837,0.116144,-0.139747,0.276471896664019
49,44.939325,-93.177184,2025-02-28T01:38:58Z,0.230565,0.052372,-0.085417,0.2513943306799101
50,44.939431,-93.177187,2025-02-28T01:38:59Z,0.03794,-0.036811,-0.022582,0.057484259106297966
51,44.939542,-93.177187,2025-02-28T01:39:00Z,-0.068632,-0.027273,0.026572,0.07848719091036448
52,44.93965,-93.177185,2025-02-28T01:39:01Z,-0.087314,-0.043596,-6.18e-4,0.09759471161902165
53,44.939754,-93.177187,2025-02-28T01:39:02Z,-0.02752,-0.028151,-0.004589,0.03963443101647859
54,44.939862,-93.177186,2025-02-28T01:39:03Z,0.123503,0.011582,-0.02757,0.12707178535379127
55,44.939969,-93.177187,2025-02-28T01:39:04Z,0.179334,0.036853,0.017813,0.18394599787437615
56,44.940074,-93.177186,2025-02-28T01:39:05Z,-0.185107,0.172263,0.088933,0.2680451848233801
57,44.940188,-93.177192,2025-02-28T01:39:06Z,0.252192,-0.223752,0.080567,0.34663641449940025
58,44.940293,-93.177185,2025-02-28T01:39:07Z,0.044288,-0.031516,-0.25334,0.2591058486410525
59,44.940403,-93.177182,2025-02-28T01:39:08Z,0.017912,-0.08381,0.018897,0.08776133803104873
60,44.940513,-93.177196,2025-02-28T01:39:09Z,-0.151326,0.00146,0.064484,0.16449886361917518
61,44.940618,-93.177194,2025-02-28T01:39:10Z,-0.401117,-0.079631,0.257558,0.48329294140717594
62,44.94073,-93.177192,2025-02-28T01:39:11Z,-0.373393,-0.167117,0.21208,0.46079100527028516
63,44.940821,-93.177189,2025-02-28T01:39:12Z,-0.183135,-0.013133,0.154474,0.23994399469459535
64,44.940912,-93.177189,2025-02-28T01:39:13Z,-0.047901,-0.132043,0.002786,0.14049064540388445
65,44.94101,-93.177189,2025-02-28T01:39:14Z,-0.295555,-0.122339,0.084632,0.3308808915153609
66,44.941107,-93.177191,2025-02-28T01:39:15Z,-0.85061,-0.334751,0.343742,0.976603382476735
67,44.941188,-93.177191,2025-02-28T01:39:16Z,-0.993958,-0.254471,0.460305,1.1245393228473604
2,44.941467,-93.177394,2025-02-28T00:56:50Z,1.054887,0.310387,0.171562,1.1129061920853887
3,44.941439,-93.17731,2025-02-28T00:56:51Z,1.695212,0.492558,-0.094305,1.7678378153362937
4,44.941408,-93.177282,2025-02-28T00:56:52Z,1.385345,0.366761,0.014052,1.4331405579530572
5,44.941367,-93.17727,2025-02-28T00:56:53Z,1.120675,0.2802,0.155423,1.1655817451187198
6,44.941315,-93.177256,2025-02-28T00:56:54Z,0.903581,0.238661,0.310497,0.984797483491403
7,44.941251,-93.177243,2025-02-28T00:56:55Z,0.478535,0.239868,0.294767,0.6110809994902476
8,44.94118,-93.177245,2025-02-28T00:56:56Z,0.414784,0.082721,0.204632,0.4698540049004584
9,44.941102,-93.177243,2025-02-28T00:56:57Z,0.213014,0.079457,0.386887,0.4487426097597597
10,44.941015,-93.177244,2025-02-28T00:56:58Z,0.088116,0.005409,0.334806,0.3462495406105256
11,44.940925,-93.177245,2025-02-28T00:56:59Z,0.107865,0.002378,0.233096,0.25685454702029314
12,44.940839,-93.177246,2025-02-28T00:57:00Z,-0.250069,-0.06222,0.304108,0.39860696033185367
13,44.940746,-93.177242,2025-02-28T00:57:01Z,-0.439693,-0.118553,0.307519,0.5495022142075499
14,44.940649,-93.17724,2025-02-28T00:57:02Z,-0.292736,-0.100263,0.268463,0.4096576829915436
15,44.940557,-93.177243,2025-02-28T00:57:03Z,-0.140826,0.003735,0.274228,0.30829678636826563
16,44.940464,-93.177249,2025-02-28T00:57:04Z,-0.13267,-0.034161,0.170073,0.21838756409191434
17,44.940365,-93.17725,2025-02-28T00:57:05Z,-0.408031,-0.159658,0.273637,0.5165822119411391
18,44.94026,-93.177258,2025-02-28T00:57:06Z,-0.287595,0.028654,0.18809,0.34483297963071924
19,44.940156,-93.177254,2025-02-28T00:57:07Z,0.167928,-0.491146,0.099231,0.528460970991236
20,44.940055,-93.177257,2025-02-28T00:57:08Z,-0.140448,0.491413,0.111983,0.5232136939740779
21,44.939951,-93.17726,2025-02-28T00:57:09Z,0.027211,-0.298354,0.233702,0.3799633832897586
22,44.939839,-93.177261,2025-02-28T00:57:10Z,-0.061555,0.013928,0.142201,0.15557677079178625
23,44.939733,-93.177257,2025-02-28T00:57:11Z,-0.206072,-0.002219,0.092309,0.22581307452404079
24,44.939619,-93.177251,2025-02-28T00:57:12Z,-0.235401,-0.029804,0.26772,0.3577372046866247
25,44.939503,-93.17725,2025-02-28T00:57:13Z,-0.224525,-0.120321,0.244298,0.35294494113104946
26,44.939392,-93.177246,2025-02-28T00:57:14Z,-0.213495,-0.103561,0.12114,0.2664205235074805
27,44.939284,-93.177249,2025-02-28T00:57:15Z,-0.41463,-0.144199,0.112551,0.45318772721908523
28,44.939171,-93.177251,2025-02-28T00:57:16Z,-0.456663,-0.141491,0.073295,0.4836661613913051
29,44.939061,-93.17725,2025-02-28T00:57:17Z,-0.105305,-0.189531,0.004905,0.21687600607489987
30,44.938957,-93.177248,2025-02-28T00:57:18Z,-0.188312,0.091974,-0.041533,0.21364834684359252
31,44.938854,-93.177243,2025-02-28T00:57:19Z,0.044632,-0.017054,-0.066189,0.08163233465361627
32,44.938746,-93.177232,2025-02-28T00:57:20Z,-0.252431,-0.111777,-0.018386,0.27668312649310584
33,44.938626,-93.177229,2025-02-28T00:57:21Z,-0.273031,-0.115564,0.286291,0.41214500086498684
34,44.938504,-93.177207,2025-02-28T00:57:22Z,-0.021344,0.003344,0.547715,0.5481409215676202
35,44.938397,-93.177231,2025-02-28T00:57:23Z,0.169976,-0.034141,0.719311,0.7399092938854059
36,44.938291,-93.17723,2025-02-28T00:57:24Z,0.167358,0.01064,0.232137,0.2863730024513484
37,44.938186,-93.177208,2025-02-28T00:57:25Z,0.021949,-0.009807,-0.283467,0.28448457943972993
38,44.938079,-93.177228,2025-02-28T00:57:26Z,-0.075838,0.068155,-0.334135,0.34934610988817383
39,44.937971,-93.177237,2025-02-28T00:57:27Z,0.017605,-0.095242,-0.05413,0.11095508771119962
40,44.937863,-93.177237,2025-02-28T00:57:28Z,0.125016,-0.181455,-0.155023,0.26941983559121996
41,44.937746,-93.177234,2025-02-28T00:57:29Z,-0.013463,0.244104,-0.07207,0.2548766369932717
42,44.937636,-93.177233,2025-02-28T00:57:30Z,-0.004117,-0.108468,-0.00122,0.10855295994582552
43,44.937526,-93.177231,2025-02-28T00:57:31Z,0.107231,0.031402,0.01563,0.11282229329791166
44,44.937412,-93.177235,2025-02-28T00:57:32Z,0.273408,-0.030887,-0.145472,0.31123631538912677
45,44.937299,-93.177227,2025-02-28T00:57:33Z,0.327495,0.082194,-0.072563,0.34536099610407656
46,44.937187,-93.177221,2025-02-28T00:57:34Z,0.051946,0.082786,-0.010353,0.0982806864088769
47,44.937061,-93.177234,2025-02-28T00:57:35Z,0.214489,-0.246255,0.026911,0.3276755377915782
48,44.936941,-93.177233,2025-02-28T00:57:36Z,0.047636,0.164181,-0.087591,0.19208532619125282
49,44.936816,-93.177227,2025-02-28T00:57:37Z,0.056574,0.006917,0.034992,0.06687976098192935
50,44.936691,-93.177228,2025-02-28T00:57:38Z,0.09222,0.055702,0.065533,0.12610240002870682
51,44.936571,-93.177225,2025-02-28T00:57:39Z,-0.021,-0.010075,-0.00514,0.023852153466720778
52,44.936452,-93.177231,2025-02-28T00:57:40Z,-0.161287,-0.218636,0.131292,0.3017495420526765
53,44.936324,-93.177227,2025-02-28T00:57:41Z,-0.268161,0.012239,-0.054696,0.27395577646401253
54,44.936203,-93.177227,2025-02-28T00:57:42Z,-0.046548,-0.074379,0.127016,0.15437621643569321
55,44.936085,-93.177225,2025-02-28T00:57:43Z,0.068275,-0.025691,0.060789,0.09495686192687709
56,44.935959,-93.17723,2025-02-28T00:57:44Z,-0.056816,0.032018,-0.046492,0.08009192371269402
57,44.935837,-93.177234,2025-02-28T00:57:45Z,-0.014812,-0.057116,0.001877,0.059035209231440865
58,44.935718,-93.177234,2025-02-28T00:57:46Z,0.022088,-0.008505,0.03051,0.03861443860785756
59,44.935595,-93.177235,2025-02-28T00:57:47Z,-0.249962,-0.134689,0.106072,0.30310624762449223
60,44.935472,-93.177238,2025-02-28T00:57:48Z,-0.296733,-0.085006,0.098547,0.3240185249858409
61,44.935352,-93.177241,2025-02-28T00:57:49Z,-0.329689,-0.032987,0.08664,0.3424755005690188
62,44.93526,-93.177249,2025-02-28T00:57:50Z,-0.157982,-0.272058,0.070203,0.3223388417442118
63,44.935133,-93.177236,2025-02-28T00:57:51Z,-0.208973,-0.002121,-0.098882,0.23119659014353994
64,44.935018,-93.177234,2025-02-28T00:57:52Z,-0.486613,-0.15482,-0.111181,0.5226113842330647
65,44.934912,-93.177233,2025-02-28T00:57:53Z,-0.843486,-0.224634,0.069639,0.8756589841216728
66,44.934809,-93.177228,2025-02-28T00:57:54Z,-0.803433,-0.27082,0.311368,0.9032154168928915
67,44.934717,-93.177217,2025-02-28T00:57:55Z,-0.970153,-0.344577,0.398949,1.1041242941530633
68,44.934638,-93.177208,2025-02-28T00:57:56Z,-1.063919,-0.291297,0.445873,1.1897816240382098
69,44.93457,-93.177196,2025-02-28T00:57:57Z,-0.943545,-0.286198,0.366437,1.051885230050313
70,44.934507,-93.177208,2025-02-28T00:57:58Z,-0.569122,-0.154469,0.235128,0.6348588025923559
71,44.934467,-93.177203,2025-02-28T00:57:59Z,-0.519409,-0.169928,0.155338,0.5681471012941982
1,44.934275,-93.167286,2025-02-28T01:36:59Z,0.640042,0.19736,0.527078,0.8523003868636926
2,44.93428,-93.167363,2025-02-28T01:37:00Z,0.978956,0.318835,-0.63936,1.2119372165095847
3,44.934282,-93.167462,2025-02-28T01:37:01Z,0.702892,0.261591,-0.929392,1.194259814533253
4,44.934284,-93.167576,2025-02-28T01:37:02Z,0.515829,0.160267,-0.85892,1.0146470494364037
5,44.934286,-93.167706,2025-02-28T01:37:03Z,0.330827,0.116882,-0.973716,1.0350027799523054
6,44.934287,-93.167846,2025-02-28T01:37:04Z,0.098179,0.044583,-0.6877,0.6961020398835216
7,44.934291,-93.167995,2025-02-28T01:37:05Z,0.0223,0.067845,-0.776838,0.7801137816171434
8,44.934291,-93.168161,2025-02-28T01:37:06Z,-0.173304,-0.157826,-0.604168,0.6480449790840139
9,44.934294,-93.168333,2025-02-28T01:37:07Z,-0.3255,0.020602,-0.49111900000000003,0.5895528513755149
10,44.934296,-93.168507,2025-02-28T01:37:08Z,-0.404241,-0.159078,-0.392594,0.5855310794492466
11,44.9343,-93.168687,2025-02-28T01:37:09Z,-0.84865,-0.158119,-0.195717,0.8851630272158909
12,44.9343,-93.168868,2025-02-28T01:37:10Z,-0.861365,-0.25221,-0.102755,0.9033925710066473
13,44.934305,-93.169044,2025-02-28T01:37:11Z,-0.802356,-0.231255,-0.194837,0.8574470726114819
14,44.934305,-93.169215,2025-02-28T01:37:12Z,-0.592489,-0.190888,-0.228914,0.6632368076795799
15,44.934304,-93.169389,2025-02-28T01:37:13Z,-0.391805,-0.206945,-0.086741,0.45151012406257296
16,44.934304,-93.169562,2025-02-28T01:37:14Z,-0.438861,-5.08e-4,-0.16248,0.4679732746482432
17,44.934307,-93.169736,2025-02-28T01:37:15Z,-0.26056,-0.281232,-0.237323,0.45089373221747053
18,44.934307,-93.169913,2025-02-28T01:37:16Z,-0.240483,-0.085561,-0.236216,0.3477797530995731
19,44.934307,-93.170091,2025-02-28T01:37:17Z,-0.337199,-0.171275,-0.086743,0.38802401894083827
20,44.93431,-93.170271,2025-02-28T01:37:18Z,-0.509345,-0.128625,-0.021087,0.5257579112281622
21,44.934308,-93.170449,2025-02-28T01:37:19Z,-0.227368,-0.120063,-0.114112,0.28130566993397055
22,44.934311,-93.170622,2025-02-28T01:37:20Z,-0.281203,-0.086483,-0.086562,0.30667151211353166
23,44.93431,-93.170802,2025-02-28T01:37:21Z,-0.143328,-0.082033,-0.12646,0.20800110642253805
24,44.934305,-93.170982,2025-02-28T01:37:22Z,-0.373197,-0.067573,-0.103634,0.39316932369400337
25,44.93431,-93.17116,2025-02-28T01:37:23Z,-0.189894,-0.317025,0.110837,0.38581008596199245
26,44.93431,-93.171336,2025-02-28T01:37:24Z,-0.22877,-0.016958,-0.222504,0.31957990656485274
27,44.934308,-93.171515,2025-02-28T01:37:25Z,-0.143347,-0.06525,-0.060574,0.16874576849509443
28,44.934306,-93.171697,2025-02-28T01:37:26Z,-0.169427,-0.058022,0.061179,0.18924833117890366
29,44.934306,-93.171869,2025-02-28T01:37:27Z,-0.187046,0.087807,-0.061002,0.21544725426191905
30,44.934308,-93.172045,2025-02-28T01:37:28Z,-0.066236,-0.1872,0.068606,0.21009005433860975
31,44.934306,-93.172223,2025-02-28T01:37:29Z,-0.111576,0.029353,-0.061544,0.13076110400650492
32,44.934311,-93.172398,2025-02-28T01:37:30Z,-0.02197,-0.13146,0.038842,0.138827639409449
33,44.934309,-93.172567,2025-02-28T01:37:31Z,-0.176523,-0.093137,0.029901,0.2018141226450716
34,44.934312,-93.172747,2025-02-28T01:37:32Z,-0.04743,0.065124,0.07284,0.10861126035545302
35,44.934307,-93.172922,2025-02-28T01:37:33Z,-0.05799,-0.058211,-0.104793,0.13316506099574318
36,44.934314,-93.173096,2025-02-28T01:37:34Z,-0.00451,0.025451,-0.117065,0.11988455999835843
37,44.934314,-93.173268,2025-02-28T01:37:35Z,-0.186002,0.090931,-0.169051,0.2672890408640055
38,44.934312,-93.173446,2025-02-28T01:37:36Z,-0.053605,-0.212437,0.090576,0.2370801273198578
39,44.934308,-93.173617,2025-02-28T01:37:37Z,-0.118224,-0.028329,0.001971,0.12158672319788867
40,44.934324,-93.173764,2025-02-28T01:37:38Z,-0.090266,-0.054201,-0.044065,0.11413773864064418
41,44.934312,-93.173958,2025-02-28T01:37:39Z,-0.138177,-0.043569,0.021836,0.14651945941068714
42,44.93431,-93.174119,2025-02-28T01:37:40Z,-0.083228,-0.025629,0.131348,0.15759455171102837
43,44.934311,-93.174283,2025-02-28T01:37:41Z,0.035683,0.043017,-0.022255,0.06015832280740546
44,44.93431,-93.174448,2025-02-28T01:37:42Z,-0.023513,-0.007747,-0.048757,0.05468201008558482
45,44.934312,-93.174609,2025-02-28T01:37:43Z,0.056992,-0.056664,0.002184,0.08039693287682062
46,44.934312,-93.174775,2025-02-28T01:37:44Z,0.129913,-0.123674,0.086736,0.19923799723195373
47,44.934311,-93.174939,2025-02-28T01:37:45Z,-0.041539,0.110367,-0.082026,0.1436475822490584
48,44.93431,-93.175101,2025-02-28T01:37:46Z,0.062698,0.090815,0.094467,0.14526671166512994
49,44.934314,-93.175262,2025-02-28T01:37:47Z,-0.057201,-0.195673,-0.012414,0.2042400174451618
50,44.934314,-93.175424,2025-02-28T01:37:48Z,-0.034027,-0.008761,0.047457,0.05904878236678551
51,44.93431,-93.175581,2025-02-28T01:37:49Z,-0.091305,-0.009474,0.036815,0.0989024970665554
52,44.934308,-93.175732,2025-02-28T01:37:50Z,-0.067517,-0.079395,-0.021587,0.10643359377095184
53,44.934312,-93.175887,2025-02-28T01:37:51Z,-0.097322,-0.041543,-0.083607,0.13486112479880924
54,44.934308,-93.176043,2025-02-28T01:37:52Z,-0.022862,0.037863,0.042303,0.061203117747382775
55,44.934311,-93.176193,2025-02-28T01:37:53Z,-0.284435,-0.169704,0.145366,0.3617098157321694
56,44.934312,-93.176338,2025-02-28T01:37:54Z,-0.50132,-0.142638,0.180205,0.5514899667890614
57,44.934311,-93.176473,2025-02-28T01:37:55Z,-0.52964,-0.178724,0.220136,0.6007667236723419
58,44.934309,-93.176597,2025-02-28T01:37:56Z,-0.077454,-0.049997,0.078045,0.12078842721883583
59,44.934314,-93.176714,2025-02-28T01:37:57Z,-0.420151,-0.163235,0.368486,0.58219795621592485
60,44.934321,-93.176826,2025-02-28T01:37:58Z,-0.840222,-0.250771,0.336886,0.939335552782391
61,44.934326,-93.176923,2025-02-28T01:37:59Z,-0.975536,-0.313925,0.311691,1.071153897627227
1,44.93428,-93.177144,2025-02-28T00:58:10Z,0.4201,0.104031,-1.670309,1.7254676509404632
2,44.934277,-93.176979,2025-02-28T00:58:11Z,0.977403,0.271028,0.30913,1.0603462444376366
3,44.934277,-93.17688,2025-02-28T00:58:12Z,0.923332,0.285294,0.144487,0.9771443812605178
4,44.934276,-93.176765,2025-02-28T00:58:13Z,0.344499,0.127333,0.372744,0.5232889674223985
5,44.934276,-93.17665,2025-02-28T00:58:14Z,0.19052,-0.002707,0.393755,0.4374336501390811
6,44.934275,-93.176532,2025-02-28T00:58:15Z,0.13307,0.099775,0.460696,0.4897994282775348
7,44.934275,-93.176396,2025-02-28T00:58:16Z,0.002157,0.004619,0.378229,0.37826335303727215
8,44.934274,-93.176257,2025-02-28T00:58:17Z,0.019522,-0.009274,0.412272,0.4128381251095882
9,44.934273,-93.17611,2025-02-28T00:58:18Z,-0.016477,-0.056,0.324511,0.32971939683615825
10,44.934273,-93.175965,2025-02-28T00:58:19Z,-0.323676,-0.058179,0.296711,0.4429315596545363
11,44.934273,-93.175824,2025-02-28T00:58:20Z,-0.421852,-0.119631,0.311796,0.5380403625017365
12,44.934272,-93.175665,2025-02-28T00:58:21Z,-0.341565,-0.107859,0.416212,0.5491198794889873
13,44.934272,-93.175509,2025-02-28T00:58:22Z,-0.240719,-0.102326,0.50262,0.5666066639539284
14,44.934271,-93.175356,2025-02-28T00:58:23Z,-0.27919,-0.082124,0.252307,0.38516260166973637
15,44.934271,-93.175203,2025-02-28T00:58:24Z,-0.229625,-0.120648,0.138236,0.29392647418189466
16,44.934271,-93.175046,2025-02-28T00:58:25Z,-0.277968,0.008113,0.203914,0.34483756928298864
17,44.93427,-93.174886,2025-02-28T00:58:26Z,-0.086886,-0.173988,0.262598,0.32677011911127984
18,44.93427,-93.174713,2025-02-28T00:58:27Z,-0.13438,-0.124116,0.335798,0.3823912429175124
19,44.934269,-93.174552,2025-02-28T00:58:28Z,-0.161889,0.055474,0.243137,0.2973230797735016
20,44.934269,-93.174386,2025-02-28T00:58:29Z,-0.154573,-0.005559,0.274412,0.3150010484966677
21,44.934268,-93.17422,2025-02-28T00:58:30Z,-0.213762,-0.087261,0.174595,0.28946863178935295
22,44.934268,-93.174048,2025-02-28T00:58:31Z,-0.352154,-0.086293,0.194807,0.4115928677880607
23,44.934267,-93.173883,2025-02-28T00:58:32Z,-0.350916,-0.160348,0.220246,0.4442542297784006
24,44.934278,-93.1737,2025-02-28T00:58:33Z,-0.336016,-0.003509,0.215773,0.399345781079505
25,44.934266,-93.173561,2025-02-28T00:58:34Z,-0.289386,-0.226579,0.218565,0.4276130955221086
26,44.934266,-93.173399,2025-02-28T00:58:35Z,-0.16793,-0.296168,0.081739,0.3501388770830797
27,44.934279,-93.173246,2025-02-28T00:58:36Z,-0.293278,0.162418,-0.015517,0.33560746311278594
28,44.934265,-93.173091,2025-02-28T00:58:37Z,-0.09329,-0.015749,0.129031,0.16000016894366081
29,44.934264,-93.172933,2025-02-28T00:58:38Z,-0.115039,-0.020818,0.207078,0.23779961885797882
30,44.934263,-93.172789,2025-02-28T00:58:39Z,-0.047501,-0.098418,0.167456,0.1999598951314988
31,44.934263,-93.17263,2025-02-28T00:58:40Z,-0.092045,0.015956,0.084497,0.12596276818965196
32,44.934262,-93.172477,2025-02-28T00:58:41Z,-0.130964,-0.006963,0.008073,0.13139720694900636
33,44.934272,-93.172326,2025-02-28T00:58:42Z,-0.005847,-0.029568,0.011878,0.0323966189130903
34,44.934273,-93.172176,2025-02-28T00:58:43Z,0.222154,-0.031315,0.066211,0.23391649249678825
35,44.934262,-93.172021,2025-02-28T00:58:44Z,0.111519,0.056871,-0.031269,0.12902925390391126
36,44.934267,-93.171863,2025-02-28T00:58:45Z,0.220418,0.032392,0.023624,0.224034438790111
37,44.93427,-93.171706,2025-02-28T00:58:46Z,0.150066,0.073699,0.064146,0.17906997591165305
38,44.934271,-93.171541,2025-02-28T00:58:47Z,0.151981,-0.075197,0.021463,0.17091949432115694
39,44.934261,-93.171381,2025-02-28T00:58:48Z,-0.154842,-0.032218,0.140961,0.21185855661030073
40,44.934262,-93.171227,2025-02-28T00:58:49Z,-0.016136,-0.083007,0.011216,0.08530141382767345
41,44.934264,-93.171064,2025-02-28T00:58:50Z,-0.037979,0.064749,0.004797,0.07521867222305909
42,44.934264,-93.170909,2025-02-28T00:58:51Z,0.056638,-0.076349,0.096563,0.13550441252593953
43,44.93426,-93.170753,2025-02-28T00:58:52Z,-0.011801,-0.078376,-6.43e-4,0.0792620617067207
44,44.934265,-93.170594,2025-02-28T00:58:53Z,0.024002,0.01671,-0.00716,0.03010956167067199
45,44.934262,-93.170435,2025-02-28T00:58:54Z,0.002749,0.003541,-0.012699,0.013467007202790083
46,44.934262,-93.170272,2025-02-28T00:58:55Z,0.057282,-0.027659,-0.017344,0.06593225417805765
47,44.934262,-93.17011,2025-02-28T00:58:56Z,0.070176,-0.014988,-0.009837,0.07242981215632138
48,44.934264,-93.169956,2025-02-28T00:58:57Z,0.179435,0.049131,-0.021488,0.18727655627440398
49,44.934262,-93.1698,2025-02-28T00:58:58Z,0.229528,-0.026068,-0.053077,0.23702280763040506
50,44.934255,-93.16964,2025-02-28T00:58:59Z,0.298798,-0.010534,-0.071731,0.30746795982833725
51,44.93426,-93.169472,2025-02-28T00:59:00Z,0.218774,0.089785,-0.077537,0.24886822953121196
52,44.934263,-93.169304,2025-02-28T00:59:01Z,0.134564,-0.009355,-0.029608,0.1381000354272221
53,44.934265,-93.169135,2025-02-28T00:59:02Z,-0.205926,-0.098608,0.05559,0.23498787892144565
54,44.934262,-93.169008,2025-02-28T00:59:03Z,-0.23966,-0.081561,0.103182,0.2733781948967401
55,44.934249,-93.168811,2025-02-28T00:59:04Z,-0.241107,-0.121777,-2.42e-4,0.2701153119354769
56,44.934248,-93.168653,2025-02-28T00:59:05Z,-0.217751,-0.118455,-0.025571,0.24920064419459273
57,44.934248,-93.168503,2025-02-28T00:59:06Z,-0.00946,0.023683,0.077862,0.0819320885428902
58,44.93426,-93.168349,2025-02-28T00:59:07Z,0.030074,-0.021038,0.220785,0.22381478759233045
59,44.934251,-93.168199,2025-02-28T00:59:08Z,-0.155443,-0.126755,0.063937,0.21051673625391404
60,44.934256,-93.16805,2025-02-28T00:59:09Z,-0.286532,-0.028318,0.043196,0.2911501168881785
61,44.934257,-93.167906,2025-02-28T00:59:10Z,-0.276056,-0.065705,0.181085,0.3366241812258888
62,44.934255,-93.167767,2025-02-28T00:59:11Z,-0.413554,-0.152075,0.107938,0.4536566194656482
63,44.934256,-93.167638,2025-02-28T00:59:12Z,-1.283466,-0.437343,0.413176,1.4174866065614165
64,44.934257,-93.167526,2025-02-28T00:59:13Z,-1.372208,-0.440456,0.43369,1.505006079489382
65,44.934252,-93.16744,2025-02-28T00:59:14Z,-1.303323,-0.391112,0.429374,1.4268782256201824
66,44.934253,-93.167375,2025-02-28T00:59:15Z,-1.06935,-0.338758,0.324849,1.1678156009683207
67,44.934254,-93.167331,2025-02-28T00:59:16Z,-0.472018,-0.082331,0.135544,0.4979473484425838
68,44.934253,-93.1673,2025-02-28T00:59:17Z,-0.464702,-0.170418,0.145131,0.5158035000743985
1,44.941552,-93.166924,2025-02-28T01:05:49Z,0.380732,0.202976,-0.115008,0.4465231824485712
2,44.941511,-93.167138,2025-02-28T01:05:50Z,-0.036508,-0.181035,0.010084,0.18495456832692725
3,44.941514,-93.167239,2025-02-28T01:05:51Z,-0.04043,-0.23684,-0.02715,0.24179514676684477
4,44.941515,-93.167369,2025-02-28T01:05:52Z,-0.172298,0.017848,0.05303,0.18115554865363634
5,44.941521,-93.167492,2025-02-28T01:05:53Z,-0.164708,-0.128951,-0.106403,0.2346884830450783
6,44.941519,-93.167624,2025-02-28T01:05:54Z,0.007518,-0.023316,-0.055402,0.06057670991395951
7,44.94152,-93.167763,2025-02-28T01:05:55Z,0.101242,0.039365,0.087613,0.13955494816737957
8,44.941516,-93.167913,2025-02-28T01:05:56Z,0.089873,-0.044898,0.093643,0.13733898930019836
9,44.941514,-93.168063,2025-02-28T01:05:57Z,0.010905,0.040949,0.032861,0.05362448085529593
10,44.941517,-93.168225,2025-02-28T01:05:58Z,-0.123713,-0.111121,0.045034,0.17228129372047332
11,44.941519,-93.168387,2025-02-28T01:05:59Z,-0.283952,-0.125182,-1.27e-4,0.3103212650737941
12,44.941519,-93.168551,2025-02-28T01:06:00Z,-0.193354,-0.066411,0.207157,0.29105018963402174
13,44.94151,-93.16872,2025-02-28T01:06:01Z,-0.152315,-0.066484,0.117947,0.2037927287466361
14,44.941525,-93.168882,2025-02-28T01:06:02Z,-0.154805,-0.017457,0.123177,0.19859986959461984
15,44.941517,-93.169061,2025-02-28T01:06:03Z,-0.326619,0.096468,0.091934,0.35275757474645386
16,44.941519,-93.169248,2025-02-28T01:06:04Z,-0.214323,-0.073723,0.128572,0.26057664561890426
17,44.941519,-93.169431,2025-02-28T01:06:05Z,-0.298126,-0.107881,0.074105,0.32559019190080035
18,44.941523,-93.16962,2025-02-28T01:06:06Z,-0.22112,-0.055057,0.066219,0.23729787948905065
19,44.941525,-93.169798,2025-02-28T01:06:07Z,-0.26882,-0.114994,0.083861,0.30417179316465226
20,44.941519,-93.169979,2025-02-28T01:06:08Z,-0.206144,-0.035776,0.00202,0.2092351579252397
21,44.941527,-93.170163,2025-02-28T01:06:09Z,-0.25505,-0.112376,0.014988,0.27911199906130874
22,44.941523,-93.170352,2025-02-28T01:06:10Z,-0.234094,-0.08308,0.050816,0.25354398650332843
23,44.941524,-93.17053,2025-02-28T01:06:11Z,-0.172117,-0.11855,0.087188,0.22645112393847816
24,44.941521,-93.170716,2025-02-28T01:06:12Z,-0.155563,-0.031944,0.04836,0.16600890248718592
25,44.941517,-93.170897,2025-02-28T01:06:13Z,0.10053,-0.066734,-0.008078,0.12093370803874327
26,44.941515,-93.171091,2025-02-28T01:06:14Z,0.26508,0.035112,-0.035988,0.26980621766000873
27,44.941514,-93.171286,2025-02-28T01:06:15Z,0.123631,0.082511,0.038123,0.15344723005320104
28,44.941506,-93.17149,2025-02-28T01:06:16Z,-0.152105,-0.092429,0.071394,0.1917710987140659
29,44.941511,-93.171697,2025-02-28T01:06:17Z,-0.141054,-0.06383,0.05857,0.16553230716690928
30,44.94151,-93.171892,2025-02-28T01:06:18Z,-0.051062,-0.008356,0.030717,0.060172125348868975
31,44.941512,-93.172093,2025-02-28T01:06:19Z,-0.034167,-0.147793,0.037066,0.15615390835326537
32,44.941505,-93.172286,2025-02-28T01:06:20Z,-0.157393,0.06982,0.018009,0.1731234037615943
33,44.941504,-93.172489,2025-02-28T01:06:21Z,-0.050428,-0.067094,0.012366,0.08483811629214784
34,44.941504,-93.17269,2025-02-28T01:06:22Z,-0.055802,-0.116438,0.020616,0.1307543135196694
35,44.941506,-93.172893,2025-02-28T01:06:23Z,-0.189087,0.010321,0.112853,0.2204454948938626
36,44.941515,-93.173094,2025-02-28T01:06:24Z,-0.438106,-0.100215,0.168151,0.4798485930603527
37,44.941518,-93.173286,2025-02-28T01:06:25Z,-0.398227,-0.201126,0.15749,0.47311680535043354
38,44.941519,-93.173475,2025-02-28T01:06:26Z,-0.156243,-0.269523,0.053774,0.3161426349830089
39,44.941518,-93.173664,2025-02-28T01:06:27Z,-0.058349,0.063653,0.110315,0.1400917893204309
40,44.941523,-93.17385,2025-02-28T01:06:28Z,0.141867,0.02787,0.609286,0.6262047687338383
41,44.941531,-93.174034,2025-02-28T01:06:29Z,0.361531,0.08502,1.353667,1.4036906394394744
42,44.941558,-93.174218,2025-02-28T01:06:30Z,0.056027,-0.017449,1.098166,1.0997327202034137
43,44.94159,-93.174398,2025-02-28T01:06:31Z,-0.35275,-0.259443,-0.034,0.43920295166244044
44,44.941621,-93.17457,2025-02-28T01:06:32Z,-0.499301,-0.013568,-0.797052,0.9406261052772243
45,44.941638,-93.174745,2025-02-28T01:06:33Z,-0.341004,-0.033674,-0.973996,1.0325143458122021
46,44.941651,-93.174915,2025-02-28T01:06:34Z,-0.092506,-0.105572,-0.837367,0.8490502340315325
47,44.94165,-93.175096,2025-02-28T01:06:35Z,-0.070292,0.048372,-0.579731,0.5859768323142136
48,44.941652,-93.175268,2025-02-28T01:06:36Z,0.100682,-0.040337,-0.167449,0.19950715850314743
49,44.941649,-93.175448,2025-02-28T01:06:37Z,0.126076,-0.062187,-0.111622,0.17950446130667616
50,44.941646,-93.175628,2025-02-28T01:06:38Z,0.164327,0.034429,5e-6,0.16789496417403352
51,44.941645,-93.175807,2025-02-28T01:06:39Z,-0.012523,0.056696,0.058918,0.0827199653590353
52,44.941646,-93.175984,2025-02-28T01:06:40Z,-0.066165,-0.116502,0.039297,0.13962369941381728
53,44.941647,-93.176158,2025-02-28T01:06:41Z,0.03569,-0.036223,0.107736,0.11913407373627412
54,44.941651,-93.176327,2025-02-28T01:06:42Z,-0.022905,0.099698,0.044803,0.11167649277265113
55,44.941654,-93.176502,2025-02-28T01:06:43Z,-0.061474,-0.12652,-0.016513,0.1416299482630704
56,44.941652,-93.17667,2025-02-28T01:06:44Z,-0.570986,-0.170289,0.198455,0.628018903172508
57,44.941653,-93.176825,2025-02-28T01:06:45Z,-1.143488,-0.358621,0.469,1.2869090207877945
1,44.941394,-93.177001,2025-02-28T01:39:21Z,0.680836,0.126997,0.217943,0.7260613253396713
2,44.941395,-93.176926,2025-02-28T01:39:22Z,0.490349,0.159213,-0.400731,0.6529749271840382
3,44.941363,-93.176852,2025-02-28T01:39:23Z,0.537032,0.1998,-0.487066,0.7520350373353624
4,44.941362,-93.176768,2025-02-28T01:39:24Z,0.447906,0.182763,-0.756088,0.8976030095476507
5,44.941361,-93.176656,2025-02-28T01:39:25Z,0.284375,0.216494,-0.707777,0.7928978965730707
6,44.941374,-93.176526,2025-02-28T01:39:26Z,0.190641,0.050115,-0.667629,0.6961206689554621
7,44.941367,-93.17639,2025-02-28T01:39:27Z,0.04445,0.062046,-0.650918,0.6553775639583643
8,44.941372,-93.176246,2025-02-28T01:39:28Z,-0.125926,-0.049884,-0.615998,0.6307133318204079
9,44.941371,-93.17609,2025-02-28T01:39:29Z,-0.29194,-0.015298,-0.48718,0.5681613721505537
10,44.941372,-93.17594,2025-02-28T01:39:30Z,-0.579151,-0.171579,-0.319292,0.6832295480334556
11,44.941368,-93.17578,2025-02-28T01:39:31Z,-0.675705,-0.107373,-0.241716,0.7256258214879071
12,44.941366,-93.175626,2025-02-28T01:39:32Z,-0.706837,-0.241681,-0.095709,0.7531191559182385
13,44.941367,-93.175474,2025-02-28T01:39:33Z,-0.663293,-0.196776,-0.143244,0.706538917230325
14,44.94137,-93.175321,2025-02-28T01:39:34Z,-0.495958,-0.145473,-0.244836,0.5719103062447817
15,44.941366,-93.175186,2025-02-28T01:39:35Z,-0.491924,-0.116499,-0.293675,0.5846419796781617
16,44.941363,-93.175026,2025-02-28T01:39:36Z,-0.458246,-0.086879,-0.357146,0.5874441441303164
17,44.941371,-93.174873,2025-02-28T01:39:37Z,-0.608167,-0.206174,-0.652785,0.9156981349713452
18,44.941376,-93.17472,2025-02-28T01:39:38Z,-0.595857,-0.204285,-0.894121,1.0937231314711233
19,44.941396,-93.174576,2025-02-28T01:39:39Z,-0.527543,-0.054615,-0.769567,0.9346217323404159
20,44.941402,-93.17443,2025-02-28T01:39:40Z,-0.316343,-0.043898,-0.115951,0.339771338482221
21,44.941426,-93.174292,2025-02-28T01:39:41Z,0.070281,-0.076821,0.513254,0.5237084623318587
22,44.941468,-93.174152,2025-02-28T01:39:42Z,0.20707,0.051349,0.612585,0.6486717867504337
23,44.94148,-93.173995,2025-02-28T01:39:43Z,0.222933,0.004199,0.627835,0.666253361203529
24,44.941487,-93.173841,2025-02-28T01:39:44Z,0.225694,0.097501,0.296816,0.3854140169908199
25,44.941491,-93.173688,2025-02-28T01:39:45Z,0.15941,-0.004602,0.149578,0.21864652887251607
26,44.941486,-93.173536,2025-02-28T01:39:46Z,0.128837,-0.033767,0.030735,0.1366887818476703
27,44.941488,-93.173374,2025-02-28T01:39:47Z,0.07536,4.55e-4,-0.093866,0.12037509119830399
28,44.941489,-93.173213,2025-02-28T01:39:48Z,0.050681,0.03727,-0.150718,0.16332033610362182
29,44.941488,-93.173047,2025-02-28T01:39:49Z,0.0593,-0.130265,-0.136865,0.19803405881312433
30,44.941481,-93.172893,2025-02-28T01:39:50Z,0.111068,0.044006,-0.145376,0.18816697381846795
31,44.941484,-93.172711,2025-02-28T01:39:51Z,-0.041795,-0.024102,-0.117909,0.1273980404480383
32,44.941488,-93.172535,2025-02-28T01:39:52Z,0.020228,0.008706,-0.032899,0.039589274065079796
33,44.941491,-93.17236,2025-02-28T01:39:53Z,0.065439,-0.067157,-0.005998,0.0939590409380598
34,44.941491,-93.172182,2025-02-28T01:39:54Z,0.031923,0.051344,-0.039996,0.07249113243011175
35,44.941487,-93.172002,2025-02-28T01:39:55Z,-0.076918,-0.043478,-0.145025,0.16982039286552128
36,44.941487,-93.171822,2025-02-28T01:39:56Z,0.007556,-0.06987,-0.107939,0.12880115588378857
37,44.941487,-93.171638,2025-02-28T01:39:57Z,-0.062278,0.037014,-0.115397,0.13625363514049818
38,44.941485,-93.171454,2025-02-28T01:39:58Z,-0.026115,-0.095906,-0.013874,0.10036155607103749
39,44.941488,-93.171268,2025-02-28T01:39:59Z,-0.058081,-0.001578,0.002318,0.058148652340359534
40,44.941484,-93.171081,2025-02-28T01:40:00Z,-0.009558,-0.018522,0.004824,0.021393709916702152
41,44.941486,-93.170895,2025-02-28T01:40:01Z,-0.062085,-0.087023,-0.090355,0.13996991026288472
42,44.941486,-93.170708,2025-02-28T01:40:02Z,-0.182229,-0.007825,-0.044189,0.18767340458093684
43,44.941487,-93.170524,2025-02-28T01:40:03Z,-0.199326,-0.222113,-0.021094,0.2991822118392068
44,44.941489,-93.170339,2025-02-28T01:40:04Z,-0.176755,0.010323,0.115053,0.2111541786538926
45,44.941489,-93.170159,2025-02-28T01:40:05Z,-0.221343,-0.101496,0.08421,0.25765380991749376
46,44.941487,-93.16998,2025-02-28T01:40:06Z,-0.108654,-0.013252,0.006018,0.10962446599185786
47,44.941485,-93.169799,2025-02-28T01:40:07Z,-0.084242,-0.011919,0.028496,0.08972624555279242
48,44.941487,-93.169622,2025-02-28T01:40:08Z,-0.094693,-0.050178,0.0235,0.10971256050699027
49,44.941486,-93.169446,2025-02-28T01:40:09Z,-0.048671,-0.028501,0.008426,0.057027806533304436
50,44.941485,-93.169269,2025-02-28T01:40:10Z,-0.025249,-0.064119,0.028482,0.07456529008861965
51,44.941484,-93.169094,2025-02-28T01:40:11Z,-0.130631,0.110368,-0.039399000000000003,0.1754931189135346
52,44.941484,-93.168921,2025-02-28T01:40:12Z,-0.086442,0.016497,-0.016357,0.08950933930043278
53,44.941484,-93.168748,2025-02-28T01:40:13Z,-0.083616,-0.060914,0.02498,0.10642439218525046
54,44.941485,-93.168578,2025-02-28T01:40:14Z,0.030504,0.071507,-0.018759,0.07997277753085734
55,44.941482,-93.168407,2025-02-28T01:40:15Z,0.019104,-0.037384,0.048746,0.06433271942021417
56,44.941481,-93.168238,2025-02-28T01:40:16Z,-0.337289,-0.132318,0.157347,0.39500633039737476
57,44.941483,-93.168077,2025-02-28T01:40:17Z,-0.508922,-0.240009,0.297961,0.6366998348405628
58,44.941478,-93.167926,2025-02-28T01:40:18Z,-0.680732,-0.15891,0.233434,0.7369802414447758
59,44.941476,-93.167785,2025-02-28T01:40:19Z,-0.589364,-0.241224,0.182877,0.6625578765670211
60,44.941466,-93.167662000000007,2025-02-28T01:40:20Z,-0.654898,-0.218019,0.172252,0.7114031390632177
61,44.941469,-93.167539,2025-02-28T01:40:22Z,-1.20569,-0.377843,0.372979,1.3174092162991724
62,44.941466,-93.167441,2025-02-28T01:40:23Z,-1.414914,-0.421884,0.497995,1.5581934272987419
63,44.941465,-93.167371,2025-02-28T01:40:24Z,-1.238616,-0.364924,0.443176,1.365190128959333
64,44.941465,-93.167322,2025-02-28T01:40:25Z,-0.938329,-0.306974,0.291118,1.02929298007953
1,44.941716,-93.16721,2025-02-28T01:18:00Z,0.650429,-0.046856,2.02334,2.1258311608349807
2,44.941697,-93.167262,2025-02-28T01:18:01Z,1.390241,0.324772,0.209818,1.4430074439132323
3,44.941694,-93.167341,2025-02-28T01:18:02Z,1.051728,0.218082,-0.648837,1.2548629396380306
4,44.941697,-93.167443,2025-02-28T01:18:03Z,0.651026,0.267074,-0.478823,0.8511373799105524
5,44.941703,-93.167559,2025-02-28T01:18:04Z,0.124946,0.100364,-0.435046,0.46362642022214395
6,44.941704,-93.167684,2025-02-28T01:18:06Z,0.132435,-0.027205,-0.485233,0.5037163939549715
7,44.941718,-93.167809,2025-02-28T01:18:07Z,-0.451803,-0.081873,-0.383991,0.5985634694992671
8,44.94171,-93.167948,2025-02-28T01:18:08Z,-0.395013,-0.241872,-0.198054,0.5037486689501026
9,44.941712,-93.16808,2025-02-28T01:18:09Z,-0.64331,-0.130302,-0.221859,0.6928548067127773
10,44.941711,-93.16821,2025-02-28T01:18:10Z,-0.476169,-0.31515,-0.128341,0.585258790059577
11,44.941713,-93.16834,2025-02-28T01:18:11Z,-0.526147,-0.119169,-0.164302,0.563938882658396
12,44.941709,-93.16847,2025-02-28T01:18:12Z,-0.721349,-0.1998,-0.112352,0.7568932498741153
13,44.941705,-93.1686,2025-02-28T01:18:13Z,-1.205401,-0.36291,0.185787,1.2724826318146742
14,44.941705,-93.168716,2025-02-28T01:18:14Z,-1.373828,-0.346513,0.219825,1.4338053087424387
15,44.941712,-93.168828,2025-02-28T01:18:15Z,-2.000819,-0.678449,0.407641,2.15168327159064
16,44.941711,-93.16892,2025-02-28T01:18:16Z,-2.199199,-0.689207,0.511806,2.360810859024077
17,44.941718,-93.168981,2025-02-28T01:18:17Z,-1.905406,-0.598885,0.406978,2.038348930027683
18,44.941714,-93.168992,2025-02-28T01:18:18Z,-0.937226,-0.265084,0.150504,0.9855524116697194
19,44.941714,-93.168951,2025-02-28T01:18:19Z,0.153103,0.052179,-0.164615,0.23078404380502565
20,44.941714,-93.168965,2025-02-28T01:18:20Z,1.116512,0.310289,-0.46428,1.2483726318952206
21,44.94171,-93.168958,2025-02-28T01:18:21Z,1.731702,0.524604,-0.685966,1.9350841136178034
22,44.941697,-93.16901,2025-02-28T01:18:22Z,1.688992,0.524871,-0.674588,1.8929481008334592
23,44.941704,-93.169085,2025-02-28T01:18:23Z,1.359418,0.24588,-0.442043,1.4504745040754767
24,44.941699,-93.169178,2025-02-28T01:18:24Z,1.264534,0.28444,-0.475247,1.3805115217791557
25,44.941696,-93.169266,2025-02-28T01:18:25Z,1.136993,0.299512,-0.494033,1.2753545096489838
26,44.941698,-93.169356,2025-02-28T01:18:25Z,0.81207,0.280285,-0.270296,0.9005982976560637
27,44.94169,-93.169476,2025-02-28T01:18:26Z,0.241305,-0.027995,-0.223599,0.33016410442535993
28,44.941697,-93.169569,2025-02-28T01:18:27Z,-0.271445,-0.050242,0.158619,0.31838127104149827
29,44.941691,-93.16971,2025-02-28T01:18:28Z,-0.211426,-0.184598,0.05015,0.28511821685048466
30,44.941696,-93.169836,2025-02-28T01:18:29Z,-0.349643,-0.028827,0.175936,0.3924725461404912
31,44.941687,-93.169936,2025-02-28T01:18:30Z,-0.013452,-0.116313,0.139317,0.18198597957535081
32,44.94169,-93.170041,2025-02-28T01:18:31Z,-0.28771,-0.019831,0.308024,0.42195864398895777
33,44.941691,-93.17016,2025-02-28T01:18:32Z,-0.216296,-0.163254,0.024266,0.27207474503893225
34,44.941697,-93.170263,2025-02-28T01:18:33Z,-0.124455,-0.05764,-0.195437,0.23876146589012223
35,44.941703,-93.170371,2025-02-28T01:18:34Z,-0.484609,-0.153756,0.042239,0.5101675445753091
36,44.941708,-93.17047,2025-02-28T01:18:35Z,-1.527031,-0.500555,0.366867,1.648323505466994
37,44.941708,-93.170544,2025-02-28T01:18:36Z,-1.904796,-0.513715,0.638502,2.0736045203570037
38,44.941709,-93.170626,2025-02-28T01:18:37Z,-1.913773,-0.648912,0.586682,2.1042361199249955
39,44.941722,-93.170654,2025-02-28T01:18:38Z,-0.981301,-0.304397,0.302781,1.071114148992067
40,44.941714,-93.170653,2025-02-28T01:18:39Z,0.818874,0.258611,-0.271795,0.9007257069840963
41,44.94172,-93.170669,2025-02-28T01:18:40Z,1.838509,0.466039,-0.624134,1.9967100296632958
42,44.941721,-93.170711,2025-02-28T01:18:41Z,2.04345,0.554864,-0.58744,2.1974184204643414
43,44.941723,-93.170774,2025-02-28T01:18:42Z,1.528258,0.362391,-0.561799,1.6680880875559299
44,44.941721,-93.170881,2025-02-28T01:18:43Z,1.016733,0.268474,-0.433205,1.1373173936900818
45,44.941719,-93.170947,2025-02-28T01:18:44Z,1.011859,0.303731,-0.408848,1.1328141256825852
46,44.941708,-93.170992,2025-02-28T01:18:45Z,0.744424,0.165928,-0.309146,0.8229644234570532
47,44.941701,-93.171063,2025-02-28T01:18:46Z,-2.36e-4,0.088844,0.037339,0.09637174354031373
48,44.941698,-93.171247,2025-02-28T01:18:47Z,0.092587,-0.142779,0.088288,0.19171063182306816
49,44.941698,-93.171345,2025-02-28T01:18:48Z,0.276856,0.067375,-0.040312,0.2877736831348551
50,44.941692,-93.171451,2025-02-28T01:18:49Z,0.154763,-0.013425,0.171159,0.2311432890546468
51,44.941689,-93.171534,2025-02-28T01:18:50Z,0.0825,0.016674,0.183581,0.2019560740284877
52,44.941696,-93.17169,2025-02-28T01:18:51Z,0.276434,-0.108046,0.150832,0.3329263983165048
53,44.941702,-93.171812,2025-02-28T01:18:52Z,0.087267,0.103844,-0.080751,0.15786015845044626
54,44.941712,-93.171929,2025-02-28T01:18:53Z,0.132334,-0.04116,-0.244931,0.2814207311428922
55,44.941708,-93.172059,2025-02-28T01:18:54Z,0.242673,-0.026061,-0.196225,0.3131670660765592
56,44.941703,-93.172186,2025-02-28T01:18:55Z,-0.041814,0.083542,-0.052529,0.10717729330879747
57,44.941694,-93.172319,2025-02-28T01:18:56Z,-0.33667,-0.171749,0.145671,0.4050486984820468
58,44.941681,-93.172444,2025-02-28T01:18:57Z,-0.300514,-0.160505,0.198913,0.3945084293015803
59,44.941679,-93.172553,2025-02-28T01:18:58Z,-0.306972,-0.024911,0.177271,0.35535527876478773
60,44.9417,-93.172711,2025-02-28T01:18:59Z,-0.331942,-0.192882,0.064508,0.389294540614173
61,44.941702,-93.172846,2025-02-28T01:19:00Z,0.071841,-0.035656,0.306372,0.31669588251349273
62,44.941706,-93.172956,2025-02-28T01:19:01Z,0.056594,-0.011035,0.158751,0.16889799306682127
63,44.94171,-93.173085,2025-02-28T01:19:02Z,0.006777,-0.019587,-0.09523,0.09745938229847345
64,44.941716,-93.173211,2025-02-28T01:19:03Z,-0.010845,-0.034066,-0.096382,0.10279881470620174
65,44.941716,-93.173345,2025-02-28T01:19:04Z,0.085397,-0.033222,0.09365,0.1310216447500183
66,44.941716,-93.173473,2025-02-28T01:19:05Z,-0.139362,-0.127181,-0.075238,0.20311949795379075
67,44.941721,-93.173601,2025-02-28T01:19:06Z,-0.187504,-0.050537,-0.121325,0.22897924362264804
68,44.941724,-93.173726,2025-02-28T01:19:07Z,-0.919256,-0.319651,0.152496,0.9851210003613768
69,44.941726,-93.173844,2025-02-28T01:19:08Z,-1.123412,-0.332011,0.335318,1.2184925059223797
70,44.941726,-93.173938,2025-02-28T01:19:09Z,-1.226345,-0.409951,0.199006,1.3082756855731899
71,44.941714,-93.174012,2025-02-28T01:19:10Z,-1.112805,-0.399708,-0.103074,1.1868975114831946
72,44.941711,-93.174088,2025-02-28T01:19:11Z,-1.237881,-0.279529,0.240922,1.291715619664793
73,44.941703,-93.174128,2025-02-28T01:19:12Z,-1.432192,-0.542772,0.52314,1.6184717570745557
74,44.941702,-93.174134,2025-02-28T01:19:13Z,0.346227,0.123492,0.075706,0.37530628562415524
75,44.941703,-93.174147,2025-02-28T01:19:14Z,1.517539,0.452176,-0.343142,1.620226584049589
76,44.941709,-93.174173,2025-02-28T01:19:15Z,1.975547,0.566649,-0.368351,2.0879558179259923
1,44.941339,-93.174225,2025-02-28T01:21:45Z,-0.311383,-0.216581,-0.393961,0.5468747313334197
2,44.941299,-93.174097,2025-02-28T01:21:46Z,0.04716,-0.131026,-0.410139,0.43313494155632376
3,44.941296,-93.173969,2025-02-28T01:21:47Z,0.056716,0.088411,-0.473148,0.4846671429764968
4,44.941296,-93.173837,2025-02-28T01:21:48Z,0.320186,0.108115,-0.316786,0.46320761826312834
5,44.941296,-93.173706,2025-02-28T01:21:49Z,0.258027,0.032734,-0.278462,0.38103875515359326
6,44.941295,-93.173568,2025-02-28T01:21:50Z,0.442102,0.133293,-0.017389,0.46208611705395347
7,44.941295,-93.173436,2025-02-28T01:21:51Z,0.130662,-0.066545000000000007,-0.098263,0.17651179121520466
8,44.94131,-93.173287,2025-02-28T01:21:52Z,0.114044,-0.001738,-0.087112,0.14351848356222274
9,44.941306,-93.173146,2025-02-28T01:21:53Z,0.314632,0.145954,-0.020265,0.3474284613629114
10,44.941303,-93.172987,2025-02-28T01:21:54Z,0.2615,-0.096158,-0.166745,0.32470372031900097
11,44.941307,-93.172824,2025-02-28T01:21:55Z,-0.141215,-0.102019,0.10463,0.20321660730855637
12,44.941304,-93.172659,2025-02-28T01:21:56Z,-0.120629,-0.02984,-0.001786,0.12427779784418454
13,44.941304,-93.172499,2025-02-28T01:21:57Z,-0.031549,-0.011977,0.021545,0.04003716966769754
14,44.94129,-93.172352,2025-02-28T01:21:58Z,0.052897,-0.01199,0.017568,0.05701304528789881
15,44.94129,-93.172196,2025-02-28T01:21:59Z,0.09312,-0.220841,-0.012456,0.2399942366328825
16,44.94129,-93.172038,2025-02-28T01:22:00Z,-0.259447,-0.011867,0.276186,0.37912040052468815
17,44.94129,-93.171877,2025-02-28T01:22:01Z,-0.417936,-0.099427,0.081122,0.4371921857821798
18,44.941305,-93.171718,2025-02-28T01:22:02Z,-0.330452,-0.148099,0.016238,0.36248518693734233
19,44.94129,-93.171565,2025-02-28T01:22:03Z,-0.266023,-0.240357,0.085052,0.3684746486286404
20,44.941291,-93.171399,2025-02-28T01:22:04Z,-0.396178,-0.071456,0.193797,0.4467888145746265
21,44.941307,-93.171285,2025-02-28T01:22:05Z,-0.597259,-0.188315,0.074705,0.6306835096393436
22,44.941291,-93.171153,2025-02-28T01:22:06Z,-0.792376,-0.251081,0.456442,0.9482830238388748
23,44.941302,-93.171025,2025-02-28T01:22:07Z,-1.089532,-0.39595,0.304876,1.1986683264773454
24,44.941306,-93.170898,2025-02-28T01:22:08Z,-1.089288,-0.399147,0.318372,1.2030076495754298
25,44.941297,-93.170814,2025-02-28T01:22:09Z,-1.043474,-0.238133,0.275483,1.10518604662473
26,44.941295,-93.17078,2025-02-28T01:22:10Z,-1.005206,-0.270642,0.329753,1.0919813348262872
27,44.941291,-93.170702,2025-02-28T01:22:11Z,-1.050508,-0.395054,0.276458,1.1558822374031015
28,44.941289,-93.170665,2025-02-28T01:22:12Z,-0.614212,-0.179772,0.287757,0.701696831955938
29,44.941292,-93.170662,2025-02-28T01:22:13Z,0.343846,0.09626,-0.116672,0.37564400021829175
30,44.941297,-93.17066,2025-02-28T01:22:14Z,1.300111,0.358659,-0.373284,1.3993805183930494
31,44.941302,-93.170676,2025-02-28T01:22:15Z,2.216573,0.62463,-0.624776,2.3861482668528793
32,44.941303,-93.170637,2025-02-28T01:22:16Z,1.737844,0.480294,-0.444947,1.8570842543032342
33,44.941309,-93.170574,2025-02-28T01:22:17Z,1.401807,0.416098,-0.456989,1.5320050120590338
34,44.94131,-93.170514,2025-02-28T01:22:18Z,1.228227,0.367923,-0.389018,1.3398671209422224
35,44.941301,-93.170426,2025-02-28T01:22:19Z,1.446453,0.250606,-0.549325,1.5674143051758842
36,44.94131,-93.170332,2025-02-28T01:22:20Z,1.066434,0.331471,-0.34327,1.1683273484332206
37,44.941315,-93.170234,2025-02-28T01:22:21Z,0.646776,0.085801,-0.225771,0.6904010068199495
38,44.941311,-93.170099,2025-02-28T01:22:22Z,-0.431253,-0.055468,0.18336,0.4718863619908929
39,44.941315,-93.169988,2025-02-28T01:22:23Z,-0.999887,-0.322423,0.308051,1.0948178032435352
40,44.941317,-93.169902,2025-02-28T01:22:24Z,-1.28914,-0.405213,0.493339,1.4385627841321351
41,44.941322,-93.169819,2025-02-28T01:22:25Z,-1.355739,-0.451901,0.473544,1.5054855262864537
42,44.94132,-93.169779,2025-02-28T01:22:26Z,-1.598825,-0.449727,0.454072,1.721823782022423
43,44.941322,-93.169765,2025-02-28T01:22:27Z,-1.115798,-0.373942,0.36463,1.2319873510178587
44,44.941315,-93.169746,2025-02-28T01:22:28Z,0.520702,0.140705,-0.137136,0.5565381858641867
45,44.941316,-93.169735,2025-02-28T01:22:29Z,1.72418,0.463897,-0.530925,1.862760976248429
46,44.941315,-93.169695,2025-02-28T01:22:30Z,1.19286,0.34318,-0.346007,1.2885683280482259
47,44.941317,-93.169645,2025-02-28T01:22:31Z,1.284956,0.273986,-0.50501,1.4075565175977838
48,44.941317,-93.169549,2025-02-28T01:22:32Z,0.931142,0.297484,-0.386431,1.0511189619548305
49,44.941334,-93.169467,2025-02-28T01:22:33Z,0.273186,-0.102803,0.177748,0.3417504921854539
50,44.941326,-93.169407,2025-02-28T01:22:34Z,-0.384796,0.349563,0.260752,0.5815959577653544
51,44.941333,-93.169339,2025-02-28T01:22:35Z,-0.069811,-0.495789,-0.053041,0.5034815348381706
52,44.941333,-93.169283,2025-02-28T01:22:36Z,0.31672,0.080171,0.053817,0.33111209148866794
53,44.941331,-93.169221,2025-02-28T01:22:37Z,0.436325,0.139715,-0.087658,0.4664586925055637
54,44.94133,-93.169147,2025-02-28T01:22:38Z,0.519941,0.06666,-0.16937,0.5508796565321685
55,44.941281,-93.169071,2025-02-28T01:22:39Z,0.524871,0.096895,-0.128626,0.5490199045043813
56,44.941281,-93.168988,2025-02-28T01:22:40Z,0.330242,0.169018,-0.102749,0.3849470351736716
57,44.94128,-93.168901,2025-02-28T01:22:41Z,0.047089,-0.045056,-0.015345,0.06695435820019485
58,44.94128,-93.168814,2025-02-28T01:22:42Z,-0.22549,-0.068094,0.031838,0.23768927443197768
59,44.94128,-93.16873,2025-02-28T01:22:43Z,-0.472121,-0.198028,0.151609,0.5339462672460591
60,44.941279,-93.168652,2025-02-28T01:22:44Z,-0.523303,-0.127457,0.173062,0.5657223457686641
61,44.941279,-93.168583,2025-02-28T01:22:45Z,-0.465951,-0.15801,0.151631,0.5148489629609834
62,44.941279,-93.16852,2025-02-28T01:22:46Z,-0.436953,-0.085517,0.162708,0.4740411108353367
63,44.941279,-93.168466,2025-02-28T01:22:47Z,-0.341406,-0.162906,0.083024,0.38728465790423455
64,44.941279,-93.168409,2025-02-28T01:22:48Z,0.26359900000000003,5.7e-4,-0.076792,0.27455740559125336
65,44.941279,-93.16836,2025-02-28T01:22:49Z,1.020796,0.289591,-0.320969,1.1085614641768855
66,44.941279,-93.168285,2025-02-28T01:22:50Z,0.838646,0.167499,-0.347399,0.9230758871934637
67,44.941279,-93.168209,2025-02-28T01:22:51Z,0.763421,0.187413,-0.233645,0.8200763634168466
68,44.941279,-93.168116,2025-02-28T01:22:52Z,0.398196,0.041166,-0.030889,0.4015081870809112
69,44.94128,-93.168024,2025-02-28T01:22:53Z,-0.082722,0.060115,0.08037,0.1300618291775108
70,44.94128,-93.167933,2025-02-28T01:22:54Z,-0.06186,-0.054886,-0.036665,0.09046244978442713
71,44.94128,-93.167838,2025-02-28T01:22:55Z,0.094945,-0.027855,0.002815,0.09898675807904812
72,44.941281,-93.167748,2025-02-28T01:22:56Z,-0.464422,-0.142167,0.089557,0.4938822797205828
73,44.941281,-93.16766,2025-02-28T01:22:57Z,-0.493012,-0.203134,0.185097,0.5644334801453578
74,44.941281,-93.167579,2025-02-28T01:22:58Z,-0.379447,-0.01877,0.192662,0.42597063860435264
75,44.941282,-93.167506,2025-02-28T01:22:59Z,-0.552994,-0.2132,0.207313,0.6278815843811634
76,44.941282,-93.167438,2025-02-28T01:23:00Z,-0.931126,-0.363346,0.302985,1.044421300920754
77,44.941298,-93.167395,2025-02-28T01:23:01Z,-0.656329,-0.230973,0.274281,0.7478946115135474
78,44.941292,-93.167351,2025-02-28T01:23:02Z,-0.346221,-0.06868,0.30385,0.4657367773120349
1,44.934518,-93.171061,2025-02-28T00:53:25Z,0.148808,0.021562,1.546973,1.5542632349241876
2,44.934436,-93.171102,2025-02-28T00:53:27Z,0.751668,0.166528,0.291575,0.8232571515832704
4,44.934499,-93.171082,2025-02-28T00:53:28Z,0.273241,0.038609,-0.057195,0.2818200968472618
5,44.934592,-93.171078,2025-02-28T00:53:30Z,0.018878,0.054763,-0.048614,0.07562199447911963
6,44.934655,-93.171089,2025-02-28T00:53:30Z,-0.312338,-0.121045,-0.051762,0.33894870248018355
7,44.93473,-93.171044,2025-02-28T00:53:31Z,-0.539984,-0.170637,0.00884,0.5663725378450124
8,44.934798,-93.171044,2025-02-28T00:53:32Z,-0.434152,-0.164701,-0.191105,0.5021309585456766
9,44.93487,-93.171044,2025-02-28T00:53:33Z,-0.177644,-0.009218,-0.067209,0.19015628293853454
10,44.934942,-93.171045,2025-02-28T00:53:34Z,-0.284208,-0.023554,-0.06487,0.2924672547140962
11,44.935018,-93.171045,2025-02-28T00:53:35Z,-0.121142,-0.106527,-0.075216,0.1779911024433525
12,44.935093,-93.171045,2025-02-28T00:53:36Z,-0.216651,-0.066598,-0.02658,0.22820921498703772
13,44.935167,-93.171045,2025-02-28T00:53:37Z,-0.293717,-0.276601,0.03415,0.4049000022104223
14,44.935252,-93.171045,2025-02-28T00:53:38Z,-0.562276,-0.14377,-0.003077,0.5803736563671718
15,44.935336,-93.171045,2025-02-28T00:53:39Z,-0.541412,-0.162965,0.037162,0.5666264723898805
16,44.93542,-93.171046,2025-02-28T00:53:40Z,-0.406466,-0.112936,0.12066,0.4387801099092802
17,44.935491,-93.171046,2025-02-28T00:53:41Z,-0.357395,-0.138363,0.166768,0.417955824960007
18,44.935564,-93.171046,2025-02-28T00:53:42Z,-0.514745,-0.134823,0.084849,0.5388311508765988
19,44.935639,-93.171045,2025-02-28T00:53:43Z,-0.487193,-0.205212,-0.02052,0.529046363368089
20,44.935712,-93.171045,2025-02-28T00:53:44Z,-0.361268,-0.146814,-0.048656,0.39298387340449475
21,44.93578,-93.171044,2025-02-28T00:53:45Z,-0.331074,-0.151423,-0.10029,0.37762018286235705
22,44.935846,-93.171044,2025-02-28T00:53:46Z,-0.375219,-0.096477,0.071477,0.39396201722881863
23,44.935911,-93.171044,2025-02-28T00:53:47Z,-0.298214,-0.127357,-0.034018,0.32605002617543216
24,44.935977,-93.171043,2025-02-28T00:53:48Z,-0.232023,-0.17238,0.087598,0.3020313668031849
25,44.936038,-93.171044,2025-02-28T00:53:49Z,-0.146399,-0.031622,0.103929,0.1823015499824398
26,44.936106,-93.171047,2025-02-28T00:53:50Z,-0.193812,-0.032035,0.098795,0.21988584446025625
27,44.936191,-93.171052,2025-02-28T00:53:51Z,-0.133292,-0.154003,0.130523,0.24190893907005587
28,44.93624,-93.17105,2025-02-28T00:53:52Z,-0.057182,0.087837,0.041303,0.11265459379004479
29,44.93627,-93.17105,2025-02-28T00:53:53Z,-0.201229,-0.192393,-0.323409,0.4267335915662136
30,44.936326,-93.17105,2025-02-28T00:53:54Z,-0.215608,-0.040921,-0.308683,0.37874335953782745
31,44.936382,-93.17105,2025-02-28T00:53:55Z,-0.507782,-0.101208,-1.314401,1.4127050674464927
32,44.936443,-93.171056,2025-02-28T00:53:56Z,-0.768711,-0.233828,-1.913944,2.0757586011482645
33,44.936482,-93.171092,2025-02-28T00:53:57Z,-1.130586,-0.142852,-2.194032,2.4723284195923485
34,44.936532,-93.17111,2025-02-28T00:53:58Z,-0.614465,-0.169941,-1.345273,1.4886929247615173
35,44.936567,-93.171193,2025-02-28T00:53:59Z,-0.068239,-0.056465,-0.303328,0.31599483054315936
36,44.936543,-93.17131,2025-02-28T00:54:00Z,0.111226,0.096382,0.132838,0.19825904076233195
37,44.936546,-93.171424,2025-02-28T00:54:01Z,0.267687,-0.017095,0.320693,0.41808201258006783
38,44.936537,-93.171518,2025-02-28T00:54:02Z,0.131851,0.062093,0.332202,0.36276493167614754
39,44.936534,-93.171622,2025-02-28T00:54:03Z,0.084074,-0.023242,0.482429,0.4902513315443417
40,44.936534,-93.171728,2025-02-28T00:54:04Z,-0.179756,-0.07349,0.83071,0.8531073225192713
41,44.936534,-93.171839,2025-02-28T00:54:05Z,-0.222534,-0.254011,0.739874,0.8132997634039986
42,44.936541,-93.17195,2025-02-28T00:54:06Z,-0.476807,0.006442,0.465894,0.6666660587198061
43,44.936545,-93.172059,2025-02-28T00:54:07Z,-1.093064,-0.325168,0.575786,1.277518161951524
44,44.936551,-93.172158,2025-02-28T00:54:08Z,-1.291753,-0.411195,0.698318,1.5249115286330548
45,44.936546,-93.172241,2025-02-28T00:54:09Z,-1.258637,-0.413426,0.844426,1.5710325982362683
46,44.936546,-93.172305,2025-02-28T00:54:10Z,-1.299119,-0.427252,0.818605,1.5938533789812661
47,44.936546,-93.172362,2025-02-28T00:54:11Z,-1.537558,-0.453667,0.839438,1.809573017619626
48,44.936546,-93.172397,2025-02-28T00:54:12Z,-1.045176,-0.316272,0.584429,1.2385386974176464
49,44.936546,-93.172407,2025-02-28T00:54:13Z,0.632205,0.165125,0.051224,0.6554184356775449
50,44.936543,-93.172423,2025-02-28T00:54:14Z,1.395388,0.413437,0.046241,1.4560824336533973
51,44.936545,-93.17244,2025-02-28T00:54:15Z,1.034334,0.248364,0.66167,1.2527324889823845
52,44.93653,-93.172484,2025-02-28T00:54:16Z,0.730221,0.137054,1.743587,1.8952841829989506
53,44.936529,-93.172526,2025-02-28T00:54:17Z,0.221126,-0.029909,2.133805,2.145440522173011
54,44.936588,-93.17259,2025-02-28T00:54:18Z,0.78281,0.138538,2.178264,2.318796741251807
55,44.936622,-93.172605,2025-02-28T00:54:19Z,0.683821,0.214313,1.249606,1.4405055977836392
56,44.936646,-93.172423,2025-02-28T00:54:20Z,0.367267,0.168222,-0.14062,0.4277355198869975
57,44.936686,-93.172356,2025-02-28T00:54:21Z,0.188191,-0.098807,-0.379836,0.4352632107426494
58,44.93673,-93.172285,2025-02-28T00:54:22Z,-0.266741,-0.020657,-0.518337,0.5833101390332591
59,44.936774,-93.172216,2025-02-28T00:54:23Z,-0.205172,-0.073643,-0.318206,0.38571219771871357
60,44.936819,-93.172145,2025-02-28T00:54:24Z,-0.355365,-0.020695,-0.371419,0.5144556733198692
61,44.936873,-93.172067,2025-02-28T00:54:25Z,-0.251844,-0.048368,-0.57446,0.6291018640570062
62,44.936932,-93.171992,2025-02-28T00:54:26Z,-0.354502,-0.168385,-0.528141,0.65799551070657
63,44.936988,-93.171924,2025-02-28T00:54:27Z,-0.552665,-0.139204,-0.447386,0.7245485413945707
64,44.937053,-93.171857,2025-02-28T00:54:28Z,-0.495236,-0.127582,-0.42671,0.6660460093116691
65,44.937113,-93.171798,2025-02-28T00:54:29Z,-0.508514,-0.077014,-0.272036,0.5818257726226985
66,44.937184,-93.171731,2025-02-28T00:54:30Z,-0.408807,-0.217238,-0.339146,0.5738776186688238
67,44.937253,-93.171674,2025-02-28T00:54:31Z,-0.436363,-0.125776,-0.407105,0.6098907697038872
68,44.937323,-93.171622,2025-02-28T00:54:32Z,-0.249744,-0.245972,-0.421046,0.5478631438927061
69,44.937397,-93.171575,2025-02-28T00:54:33Z,-0.491125,-0.091773,-0.235639,0.5524054556890255
70,44.937468,-93.171537,2025-02-28T00:54:34Z,-0.681708,-0.105366,-0.220655,0.7242350586964152
71,44.937547,-93.171503,2025-02-28T00:54:36Z,-0.552874,-0.411116,-0.144349,0.7039337036490013
72,44.937623,-93.171487,2025-02-28T00:54:37Z,-0.729047,-0.122496,-0.339209,0.8133741721409649
73,44.937689,-93.171455,2025-02-28T00:54:38Z,-0.291784,-0.107626,-0.354791,0.4718028319255831
74,44.937758,-93.171424,2025-02-28T00:54:39Z,-0.34228,-0.305019,-0.2395,0.5172547136189287
75,44.937833,-93.17141,2025-02-28T00:54:40Z,-0.168398,0.117656,-0.506624,0.546688849452776
76,44.937906,-93.171406,2025-02-28T00:54:41Z,-0.086088,-0.106772,-0.577885,0.5939381086889441
77,44.937966,-93.171403,2025-02-28T00:54:42Z,-0.01868,0.002611,-0.359649,0.36014325333400315
78,44.938038,-93.171405,2025-02-28T00:54:43Z,0.124568,-0.142453,-0.043366,0.19414080917983215
79,44.938116,-93.171388,2025-02-28T00:54:44Z,0.360552,-0.046416,-0.052483,0.3672964130630736
80,44.938191,-93.171413,2025-02-28T00:54:45Z,0.387793,0.08348,-0.068521,0.40255117524359557
81,44.938274,-93.171425,2025-02-28T00:54:46Z,0.45304,0.026097,0.269937,0.5280078398830835
82,44.938363,-93.171442,2025-02-28T00:54:47Z,0.085241,0.170854,0.243828,0.30969212289142906
83,44.938454,-93.171451,2025-02-28T00:54:48Z,-0.163618,-0.270254,0.405145,0.513761175513487
84,44.938545,-93.17145,2025-02-28T00:54:49Z,0.009171,-0.026318,0.261503,0.2629839602979619
85,44.938634,-93.171452,2025-02-28T00:54:50Z,-0.23728,-0.079022,0.334957,0.41802208880990965
86,44.938733,-93.171442,2025-02-28T00:54:51Z,-0.162589,-0.046241,0.314247,0.3568257137749465
87,44.938812,-93.171456,2025-02-28T00:54:52Z,-0.021521,-0.169864,0.268543,0.3184843399384026
88,44.938896,-93.171465,2025-02-28T00:54:53Z,-0.24615,0.117028,0.332529,0.42995454541730344
89,44.93898,-93.171468,2025-02-28T00:54:54Z,0.115837,-0.165876,0.345653,0.4005109915520422
90,44.939065,-93.171475,2025-02-28T00:54:55Z,0.225263,0.04955,0.171429,0.287378711302699
91,44.939154,-93.171474,2025-02-28T00:54:56Z,0.014974,-0.045516,0.125182,0.13403902437723125
92,44.939243,-93.171474,2025-02-28T00:54:57Z,-0.071929,0.061143,0.152794,0.17960582932076563
93,44.939334,-93.171477,2025-02-28T00:54:58Z,-0.121174,-0.025698,0.115248,0.16919109605413638
94,44.939419,-93.171475,2025-02-28T00:54:59Z,-0.16601,-0.138971,0.063087,0.2255043868974615
95,44.939507,-93.171474,2025-02-28T00:55:00Z,-0.229547,-0.036452,0.080033000000000007,0.24581670936289096
96,44.93959,-93.171473,2025-02-28T00:55:01Z,-0.18928,-0.157933,0.1556,0.2915151983842352
97,44.939678,-93.171475,2025-02-28T00:55:02Z,-0.792116,-0.217956,0.331675,0.8859801809391675
98,44.939755,-93.171475,2025-02-28T00:55:03Z,-1.249309,-0.355792,0.467732,1.380628171728
99,44.939824,-93.171476,2025-02-28T00:55:04Z,-1.103783,-0.423239,0.344042,1.2311917234833898
100,44.939877,-93.171477,2025-02-28T00:55:05Z,-0.395968,-0.13397,0.131083,0.43808831394252
101,44.939918,-93.17148,2025-02-28T00:55:06Z,-0.703327,-0.253511,0.243805,0.7863698710371603
102,44.939957,-93.171481,2025-02-28T00:55:07Z,-0.788232,-0.17304,0.223489,0.8373767733493688
103,44.939986,-93.171479,2025-02-28T00:55:08Z,-0.650521,-0.270969,0.279873,0.7582418258913182
104,44.939999,-93.171478,2025-02-28T00:55:09Z,-0.504893,-0.14345,0.178719,0.5544685066890634
105,44.940009,-93.171478,2025-02-28T00:55:10Z,-0.075926,-0.031659,0.062845,0.1035207408300385
106,44.940012,-93.171479,2025-02-28T00:55:11Z,0.502174,0.150472,-0.112838,0.5362396509994389
107,44.940014,-93.171478,2025-02-28T00:55:12Z,0.529914,0.15519,-0.128208,0.5668598369614838
108,44.940016,-93.171477,2025-02-28T00:55:13Z,0.680913,0.176647,-0.185187,0.7274207181177891
109,44.940024,-93.171477,2025-02-28T00:55:14Z,0.013126,0.018784,0.039941,0.04604795340729054
110,44.94003,-93.171479,2025-02-28T00:55:15Z,0.065498,0.013257,0.01813,0.06924184394569514
111,44.940031,-93.171478,2025-02-28T00:55:16Z,0.290471,0.075496,-0.055208,0.3051572891493827
112,44.940029,-93.171475,2025-02-28T00:55:17Z,0.427773,0.117497,-0.091274,0.4529086305360056
113,44.940027,-93.171477,2025-02-28T00:55:18Z,0.294651,0.08209,-0.065883,0.31288743916942396
114,44.940029,-93.171475,2025-02-28T00:55:19Z,0.255845,0.065207,-0.060522,0.27087179505810494
115,44.94003,-93.171477,2025-02-28T00:55:20Z,0.381988,0.106493,-0.073669,0.40333945102605573
116,44.940041,-93.171483,2025-02-28T00:55:21Z,0.90116,0.241933,-0.209856,0.9563788280932404
117,44.940047,-93.171482,2025-02-28T00:55:22Z,1.474715,0.490944,-0.484093,1.6279300891039516
118,44.940068,-93.171483,2025-02-28T00:55:23Z,1.000081,0.370291,-0.425193,1.1480707811328532
119,44.940103,-93.171484,2025-02-28T00:55:24Z,0.953965,0.103062,-0.486135,1.0756385244560553
120,44.940144,-93.171487,2025-02-28T00:55:25Z,0.741986,-0.04684,-0.404062,0.8461697877140261
121,44.940194,-93.171496,2025-02-28T00:55:26Z,0.549776,0.459897,-0.014373,0.7169138608745126
122,44.940251,-93.171472,2025-02-28T00:55:27Z,0.450936,-0.043629,0.737138,0.8652278294073763
123,44.94031,-93.171467,2025-02-28T00:55:28Z,0.070795,0.028461,1.142236,1.144781656143214
124,44.940366,-93.171449,2025-02-28T00:55:29Z,0.307947,-0.139991,0.949999,1.0084279522558863
125,44.940422,-93.171429,2025-02-28T00:55:30Z,0.316146,0.03898,0.729338,0.7958653478824166
126,44.940474,-93.171399,2025-02-28T00:55:31Z,0.4134,-0.048942,0.706883,0.820352640669243
127,44.940531,-93.171358,2025-02-28T00:55:32Z,-9.8e-5,-0.003193,0.643602,0.6436099278732421
128,44.940592,-93.171307,2025-02-28T00:55:33Z,-0.308711,-0.091677,0.669645,0.7430555698431982
129,44.940649,-93.171252,2025-02-28T00:55:34Z,-0.322749,-0.133597,0.707183,0.7887476598374159
130,44.94069,-93.171193,2025-02-28T00:55:34Z,-0.350088,-0.121944,0.424191,0.5633559721534867
131,44.940724,-93.171125,2025-02-28T00:55:35Z,-0.330753,-0.128364,0.558573,0.6617240057864003
132,44.940755,-93.171053,2025-02-28T00:55:37Z,-0.275698,-0.203696,0.480076,0.5898935610735211
133,44.940791,-93.170984,2025-02-28T00:55:38Z,-0.42403,-0.092848,-0.383008,0.578893185370151
134,44.940827,-93.170915,2025-02-28T00:55:39Z,-0.413325,-0.142598,-0.368943,0.5720932463139203
135,44.940865,-93.170852,2025-02-28T00:55:40Z,-0.306082,-0.103014,-0.574169,0.6587625638126381
136,44.940908,-93.17079,2025-02-28T00:55:41Z,-0.050398,-0.031961,-0.655661,0.6583713320353493
137,44.940953,-93.170729,2025-02-28T00:55:42Z,-0.034875,0.073225,-0.46099,0.46807045019953997
138,44.941001,-93.170677,2025-02-28T00:55:43Z,0.037595,-0.038496,-0.416184,0.41964800475755865
139,44.941054,-93.170624,2025-02-28T00:55:44Z,-0.249328,-0.130857,-0.35377,0.4521517653764054
140,44.941108,-93.170571,2025-02-28T00:55:45Z,-0.403162,-0.088742,-0.495604,0.6450101283111762
141,44.941163,-93.170527,2025-02-28T00:55:46Z,-0.45046,-0.179026,-0.714341,0.8632772350508265
142,44.941226,-93.170508,2025-02-28T00:55:47Z,-0.702451,-0.291032,-0.654371,1.0031642129113258
143,44.941284,-93.170482,2025-02-28T00:55:48Z,-1.155644,-0.224968,-0.146041,1.1863606658352255
144,44.941334,-93.170466,2025-02-28T00:55:49Z,-1.139508,-0.392764,0.062547,1.206919288506485
145,44.941373,-93.170455,2025-02-28T00:55:50Z,-1.434087,-0.480255,0.342207,1.550598600361486
1,44.939068,-93.176974,2025-02-28T01:25:00Z,-0.571551,-0.277142,-0.474573,0.7929046387138873
2,44.939006,-93.176903,2025-02-28T01:25:01Z,-0.16398,-0.056074,-0.185746,0.25403800973870033
3,44.939005,-93.176817,2025-02-28T01:25:02Z,0.215215,0.076773,-0.054,0.23479265268317062
4,44.939005,-93.176724,2025-02-28T01:25:03Z,0.138363,0.04567,0.082385,0.16738386091257426
5,44.939005,-93.176621,2025-02-28T01:25:04Z,0.024617,0.016867,0.380925,0.38209206744317525
6,44.939005,-93.176515,2025-02-28T01:25:06Z,-0.225423,-0.066237,0.416065,0.4778210473838506
7,44.939005,-93.176406,2025-02-28T01:25:07Z,-0.523863,-0.099228,0.343445,0.6342185008165561
8,44.939004,-93.176294,2025-02-28T01:25:08Z,-0.260116,-0.15643,0.722658,0.783814559267688
9,44.939004,-93.176182,2025-02-28T01:25:09Z,-0.021604,-0.083043,0.656215,0.661801328866904
10,44.939004,-93.176069,2025-02-28T01:25:10Z,-0.090873,-0.0271,0.484259,0.4934562708183978
11,44.939004,-93.175946,2025-02-28T01:25:11Z,-0.08507,-0.010206,0.272043,0.28521651632575556
12,44.939004,-93.175821,2025-02-28T01:25:12Z,-0.032147,-0.034738,0.169247,0.17574044856549104
13,44.939004,-93.175697,2025-02-28T01:25:13Z,-0.289066,-0.072497,0.200002,0.3589091352543147
14,44.939004,-93.175563,2025-02-28T01:25:14Z,-0.223675,-0.082306,0.269738,0.35994912405088586
15,44.939004,-93.175429,2025-02-28T01:25:15Z,-0.089537,-0.041704,0.206703,0.22909000020515954
16,44.939003,-93.17531,2025-02-28T01:25:16Z,-0.077883,0.00638,0.073985,0.10761155288350781
17,44.939003,-93.175171,2025-02-28T01:25:17Z,-0.039253,-0.171857,0.219061,0.281182055222235
18,44.939003,-93.17503,2025-02-28T01:25:18Z,-0.155831,0.114192,0.125759,0.23051776397058862
19,44.939003,-93.174871,2025-02-28T01:25:19Z,-0.134743,-0.151371,0.245009,0.3179595348012071
20,44.939003,-93.174739,2025-02-28T01:25:20Z,-0.776474,-0.432231,0.443921,0.9933787617409585
21,44.939003,-93.174598,2025-02-28T01:25:21Z,-3.585132,-1.019363,1.339272,3.960545653464558
22,44.939003,-93.174511,2025-02-28T01:25:21Z,-1.934699,-0.598888,0.718901,2.149080199747324
23,44.939003,-93.17447,2025-02-28T01:25:22Z,-1.268732,-0.401533,0.495898,1.4201494514018584
24,44.939003,-93.174472,2025-02-28T01:25:23Z,-0.928782,-0.32854,0.302433,1.0305533730054934
25,44.939003,-93.174433,2025-02-28T01:25:24Z,-0.931918,-0.280685,0.391105,1.0489129367940888
26,44.939003,-93.174416,2025-02-28T01:25:25Z,-0.420969,-0.147204,0.216464,0.49572228099309795
27,44.939003,-93.174412,2025-02-28T01:25:26Z,0.683599,0.181461,-0.150456,0.7230993674855483
28,44.939003,-93.174419,2025-02-28T01:25:27Z,1.535255,0.400213,-0.430384,1.6439004677443219
29,44.939003,-93.174397,2025-02-28T01:25:28Z,1.64896,0.452791,-0.476815,1.7752299331371133
30,44.939003,-93.174337,2025-02-28T01:25:29Z,1.472997,0.372874,-0.40558,1.5726570885876552
31,44.939003,-93.174279,2025-02-28T01:25:30Z,1.241727,0.29696,-0.381353,1.332479378728992
32,44.939003,-93.174184,2025-02-28T01:25:31Z,1.071869,0.230988,-0.175449,1.1104237753695658
33,44.939017,-93.174091,2025-02-28T01:25:32Z,1.063578,0.255688,-0.181722,1.1088721300095876
34,44.939019,-93.173991,2025-02-28T01:25:33Z,0.984346,0.267149,-0.158325,1.0321688047708089
35,44.93902,-93.173872,2025-02-28T01:25:34Z,0.34463,0.111189,-0.091155,0.37341942189179184
36,44.939005,-93.173744,2025-02-28T01:25:35Z,-0.071573,-0.119839,-1.61e-4,0.1395854798000136
37,44.939013,-93.173605,2025-02-28T01:25:36Z,0.109263,0.035954,0.015728,0.11609678405968013
38,44.939017,-93.17348,2025-02-28T01:25:37Z,0.185692,0.074761,-0.100346,0.22391973048617222
39,44.939016,-93.173352,2025-02-28T01:25:38Z,-0.070224,-0.015581,0.004154,0.07205160270944706
40,44.939016,-93.17321,2025-02-28T01:25:39Z,-0.069009,0.042687,0.054483,0.09773852535719986
41,44.939019,-93.173077,2025-02-28T01:25:40Z,-0.070578,-0.161277,-9.99e-4,0.1760469335546632
42,44.93902,-93.172939,2025-02-28T01:25:41Z,-0.347904,0.074657,0.069944,0.3626334568141776
43,44.939014,-93.172802,2025-02-28T01:25:42Z,-0.651833,-0.226579,0.306104,0.7549330844160957
44,44.939015,-93.172676,2025-02-28T01:25:43Z,-0.690621,-0.193196,0.305628,0.7795450817245915
45,44.939011,-93.172564,2025-02-28T01:25:44Z,-0.419071,-0.170417,0.053922,0.4555985502764468
46,44.93901,-93.172453,2025-02-28T01:25:45Z,-0.247412,-0.154552,0.236668,0.37564712253922566
47,44.939008,-93.172343,2025-02-28T01:25:46Z,-0.361075,-0.160536,0.089009,0.4050550147844117
48,44.939005,-93.172236,2025-02-28T01:25:47Z,-0.366393,-0.136687,0.304518,0.4956393635921183
49,44.939012,-93.172128,2025-02-28T01:25:48Z,-0.531057,-0.188538,0.129769,0.5782803023223253
50,44.939013,-93.172028,2025-02-28T01:25:49Z,-0.826581,-0.284623,0.285161,0.919545103630594
51,44.939013,-93.171956,2025-02-28T01:25:50Z,-0.60363,-0.072246,0.162449,0.6292680978859487
52,44.939015,-93.171894,2025-02-28T01:25:51Z,-0.097082,-0.281823,-0.044438,0.3013699618359467
53,44.939013,-93.171828,2025-02-28T01:25:52Z,-0.075922,0.064395,0.042129,0.10810050300530522
54,44.939019,-93.171747,2025-02-28T01:25:53Z,-0.313475,-0.143246,0.293066,0.45240874493868927
55,44.939015,-93.171681,2025-02-28T01:25:54Z,-0.931054,-0.268101,0.244517,0.9992638592513992
56,44.939017,-93.171638,2025-02-28T01:25:55Z,-1.141876,-0.37869,0.36537,1.257291594013099
57,44.939019,-93.171621,2025-02-28T01:25:56Z,-0.777307,-0.27471,0.245742,0.8602679157756611
58,44.93902,-93.171616,2025-02-28T01:25:57Z,-0.064314,-0.025063,0.014061,0.07044257438509753
59,44.93902,-93.171622,2025-02-28T01:25:58Z,0.860274,0.230181,-0.285227,0.9350984383293558
60,44.939016,-93.17164,2025-02-28T01:25:59Z,1.644516,0.460712,-0.632799,1.8212970640730195
