seconds_elapsed,location_altitude,location_speedAccuracy,location_bearingAccuracy,location_latitude,location_altitudeAboveMeanSeaLevel,location_bearing,location_horizontalAccuracy,location_verticalAccuracy,location_longitude,location_speed,location_local_time,accelerometerUncalibrated_z,accelerometerUncalibrated_y,accelerometerUncalibrated_x,accelerometerUncalibrated_local_time,accelerometer_z,accelerometer_y,accelerometer_x,accelerometer_local_time
0,255.51259,1.159478,26.850918,44.934373,282.92259,303.277479,2.57261,3,-93.177226,3.497747,2025-03-21T00:18:58Z,-0.119002,-1.001727,-0.178141,2025-03-21T00:18:58Z,1.005146,-0.26785,-1.970012,2025-03-21T00:18:58Z
1,256.092496,1.271935,23.217708,44.934431,283.502496,342.367033,2.580259,3,-93.177231,4.424158,2025-03-21T00:18:59Z,-0.126088,-0.998955,0.035507,2025-03-21T00:18:59Z,0.92944,-0.242112,-0.081659,2025-03-21T00:18:59Z
2,255.913091,1.45444,26.007252,44.934471,283.323091,344.868682,2.569836,3,-93.177246,4.529238,2025-03-21T00:19:00Z,-0.109161,-0.996016,0.089541,2025-03-21T00:19:00Z,1.0263,-0.194851,0.500037,2025-03-21T00:19:00Z
3,255.959626,1.309806,14.657615,44.934563,283.369626,4.762872,2.584649,3,-93.177208,7.238169,2025-03-21T00:19:01Z,-0.13077,-1.003437,0.076742,2025-03-21T00:19:01Z,0.745067,-0.2466,0.442809,2025-03-21T00:19:01Z
4,255.83123,1.273896,12.274118,44.934651,283.24123,359.927555,2.553205,3,-93.177209,8.409131,2025-03-21T00:19:02Z,-0.122449,-0.994036,0.066972,2025-03-21T00:19:02Z,0.794475,-0.161325,0.301845,2025-03-21T00:19:02Z
5,255.5689,1.279298,10.53926,44.934751,282.9789,359.221641,2.358931,3,-93.177205,9.835477,2025-03-21T00:19:03Z,-0.142879,-0.999822,0.070992,2025-03-21T00:19:03Z,0.576477,-0.205591,0.272964,2025-03-21T00:19:03Z
6,255.526755,1.273362,9.390638,44.934859,282.936755,359.200964,2.207512,3,-93.177204,10.987393,2025-03-21T00:19:04Z,-0.172116,-0.973986,0.058237,2025-03-21T00:19:04Z,0.251361,0.053277,0.164019,2025-03-21T00:19:04Z
7,255.32832,1.270282,8.454668,44.934978,282.73832,0.274053,2.255328,3,-93.177196,12.174098,2025-03-21T00:19:05Z,-0.186168,-0.992894,0.070476,2025-03-21T00:19:05Z,0.11207,-0.142823,0.212258,2025-03-21T00:19:05Z
8,255.670818,1.270796,7.8953,44.935104,283.080818,0.247808,2.127117,3,-93.177191,13.040289,2025-03-21T00:19:06Z,-0.206906,-0.983669,0.060227,2025-03-21T00:19:06Z,-0.157286,-0.030725,0.022879,2025-03-21T00:19:06Z
9,255.276879,1.276106,7.625368,44.935235,282.686879,0.247808,2.06077,3,-93.177189,13.560071,2025-03-21T00:19:07Z,-0.208619,-0.941408,0.025349,2025-03-21T00:19:07Z,-0.239675,0.394243,-0.063721,2025-03-21T00:19:07Z
10,255.351649,1.272907,7.299471,44.93537,282.761649,0,2.028366,3,-93.177188,14.129847,2025-03-21T00:19:08Z,-0.241615,-0.983708,0.051001,2025-03-21T00:19:08Z,-0.494635,-0.021027,0.12548,2025-03-21T00:19:08Z
11,254.954501,1.273447,7.258967,44.9355,282.364501,0,2.013317,3,-93.177183,14.35973,2025-03-21T00:19:09Z,-0.271073,-0.964757,0.037367,2025-03-21T00:19:09Z,-0.769709,0.141418,-0.147871,2025-03-21T00:19:09Z
12,254.665447,1.276658,7.258963,44.935635,282.075447,0,2.006053,3,-93.177188,14.434352,2025-03-21T00:19:10Z,-0.248859,-0.953894,0.057216,2025-03-21T00:19:10Z,-0.522967,0.246255,-0.104231,2025-03-21T00:19:10Z
13,254.397383,1.272048,7.258965,44.935764,281.807383,0,2.002825,3,-93.177187,14.398385,2025-03-21T00:19:11Z,-0.301423,-0.960395,0.051646,2025-03-21T00:19:11Z,-0.958917,0.162353,-0.073266,2025-03-21T00:19:11Z
14,253.953667,1.332364,8.027196,44.935877,281.363667,0,2.001369,3,-93.177189,13.443667,2025-03-21T00:19:12Z,-0.275697,-0.957152,0.040526,2025-03-21T00:19:12Z,-0.66463,0.190626,-0.094735,2025-03-21T00:19:12Z
15,253.948174,1.278387,7.342918,44.936018,281.358174,0,2.463484,3,-93.177204,14.105202,2025-03-21T00:19:13Z,-0.282633,-0.980437,0.038785,2025-03-21T00:19:13Z,-0.785508,-0.021436,-0.106736,2025-03-21T00:19:13Z
16,253.908163,1.280934,7.462249,44.936144,281.318163,0,2.466756,3,-93.177203,13.908424,2025-03-21T00:19:14Z,-0.263696,-0.932795,0.025501,2025-03-21T00:19:14Z,-0.525799,0.436178,-0.098677,2025-03-21T00:19:14Z
17,253.550876,1.277741,7.553292,44.93627,280.960876,0.115841,2.220272,3,-93.1772,13.703988,2025-03-21T00:19:15Z,-0.279461,-0.970919,0.025298,2025-03-21T00:19:15Z,-0.593839,0.031773,-0.139147,2025-03-21T00:19:15Z
18,253.318051,1.280169,7.634852,44.936392,280.728051,0.115841,2.768723,3,-93.177201,13.583655,2025-03-21T00:19:17Z,-0.248883,-0.961656,0.041353,2025-03-21T00:19:16Z,-0.272454,0.125335,-0.061461,2025-03-21T00:19:16Z
19,253.263799,0.708279,7.258812,44.93651,280.673799,0.115841,2.511765,3,-93.177193,13.289092,2025-03-21T00:19:18Z,-0.214552,-0.974721,0.05652,2025-03-21T00:19:17Z,0.113937,-0.017458,0.091125,2025-03-21T00:19:17Z
20,253.906272,0.739423,7.257728,44.936621,281.316272,0,3.309358,3,-93.177188,12.772093,2025-03-21T00:19:19Z,-0.21469,-0.98076,0.045515,2025-03-21T00:19:18Z,0.081369,-0.06442,0.057834000000000003,2025-03-21T00:19:18Z
21,253.476996,0.681537,7.258973,44.936762,280.886996,0,2.660427,3,-93.177196,14.076503,2025-03-21T00:19:20Z,-0.269608,-0.965581,0.040851,2025-03-21T00:19:19Z,-0.416905,0.070834,-0.039661,2025-03-21T00:19:19Z
22,253.447718,0.682923,7.258968,44.936893,280.857717,0,2.31148,3,-93.177198,14.38261,2025-03-21T00:19:21Z,-0.255659,-0.95117,0.041529,2025-03-21T00:19:20Z,-0.247243,0.214395,-0.011837,2025-03-21T00:19:20Z
23,253.507467,0.680649,7.258973,44.937018,280.917467,0,2.147476,3,-93.177195,14.194406,2025-03-21T00:19:22Z,-0.256741,-0.974446,0.04648,2025-03-21T00:19:21Z,-0.326425,-0.020867,-0.00662,2025-03-21T00:19:21Z
24,253.848992,0.681186,7.258323,44.937143,281.258992,0.129604,2.070091,3,-93.177196,14.000257,2025-03-21T00:19:23Z,-0.243499,-0.962541,0.029018,2025-03-21T00:19:22Z,-0.157134,0.106033,-0.020049,2025-03-21T00:19:22Z
25,253.671381,0.669911,7.258971,44.937276,281.081381,0.129604,2.032524,3,-93.17719,14.329791,2025-03-21T00:19:24Z,-0.260402,-0.965133,0.032206,2025-03-21T00:19:23Z,-0.259849,0.063907,-0.027319,2025-03-21T00:19:23Z
26,253.439349,0.672964,7.258641,44.937402,280.849349,0.129604,2.015379,3,-93.177193,14.109256,2025-03-21T00:19:25Z,-0.236282,-0.963712,0.04289,2025-03-21T00:19:24Z,0.00256,0.071412,0.003745,2025-03-21T00:19:24Z
27,253.219784,0.688099,7.258224,44.93753,280.629784,0.258354,2.007252,3,-93.177193,14.168809,2025-03-21T00:19:26Z,-0.244247,-0.97497,0.03096,2025-03-21T00:19:25Z,-0.069716,-0.041361,-0.046159,2025-03-21T00:19:25Z
28,253.222542,0.681166,7.258704,44.937661,280.632542,0.258354,2.003397,3,-93.177188,14.412262,2025-03-21T00:19:27Z,-0.256076,-0.962505,0.038765,2025-03-21T00:19:26Z,-0.166716,0.075134,-0.042177,2025-03-21T00:19:26Z
29,253.533349,0.684176,7.258739,44.937792,280.943349,0.258354,2.101935,3,-93.177194,14.456736,2025-03-21T00:19:28Z,-0.272118,-0.966083,0.034377,2025-03-21T00:19:27Z,-0.39113,0.054043,-0.012341,2025-03-21T00:19:27Z
30,253.312835,0.678205,7.258923,44.937917,280.722835,0.258354,2.047748,3,-93.177192,14.099526,2025-03-21T00:19:29Z,-0.249457,-0.95096,0.033556,2025-03-21T00:19:28Z,-0.062731,0.181396,0.035239,2025-03-21T00:19:28Z
31,252.836817,0.669411,7.257899,44.938048,280.246817,0,2.022393,3,-93.177185,14.326303,2025-03-21T00:19:30Z,-0.258605,-0.96825,0.037875,2025-03-21T00:19:29Z,-0.102313,-0.003005,0.021913,2025-03-21T00:19:29Z
32,252.844014,0.67848,7.258705,44.938174,280.254013,0,2.01829,3,-93.177184,14.262455,2025-03-21T00:19:31Z,-0.26007,-0.969293,0.026677,2025-03-21T00:19:30Z,-0.152677,0.001469,-0.071501,2025-03-21T00:19:30Z
33,252.795269,0.692351,7.258816,44.938302,280.205269,0,2.008593,3,-93.177188,14.174616,2025-03-21T00:19:32Z,-0.263769,-0.959292,0.028489,2025-03-21T00:19:31Z,-0.187558,0.093649,-0.056858,2025-03-21T00:19:31Z
34,252.343548,0.854533,7.257661,44.938421,279.753548,0,2.004119,3,-93.177196,13.604289,2025-03-21T00:19:33Z,-0.282792,-0.9653,0.025904,2025-03-21T00:19:32Z,-0.321818,0.022787,-0.078819,2025-03-21T00:19:32Z
35,252.280071,0.774951,7.258401,44.938551,279.690071,0.29063,2.001936,3,-93.177185,13.807378,2025-03-21T00:19:34Z,-0.273483,-0.960144,0.027285,2025-03-21T00:19:33Z,-0.252278,0.079725,-0.048504,2025-03-21T00:19:33Z
36,252.052549,0.699202,7.258194,44.938676,279.462549,0.29063,2.000929,3,-93.177181,13.765988,2025-03-21T00:19:35Z,-0.272507,-0.955721,0.031239,2025-03-21T00:19:34Z,-0.204453,0.114638,-0.006832,2025-03-21T00:19:34Z
37,252.021651,0.695757,7.258623,44.938798,279.43165,0.29063,2.000447,3,-93.177181,13.602394,2025-03-21T00:19:36Z,-0.278388,-0.960494,0.026769,2025-03-21T00:19:35Z,-0.257601,0.065765,-0.032852,2025-03-21T00:19:35Z
38,251.639729,0.706396,7.257716,44.938915,279.049729,0.29063,2.323558,3,-93.177181,13.266684,2025-03-21T00:19:37Z,-0.277816,-0.980823,0.025844,2025-03-21T00:19:36Z,-0.241571,-0.138899,-0.07137,2025-03-21T00:19:36Z
39,251.958977,0.685646,7.258855,44.939032,279.368977,0.29063,2.26676,3,-93.177182,12.986063,2025-03-21T00:19:38Z,-0.266215,-0.927789,0.021554,2025-03-21T00:19:37Z,-0.157739,0.395794,-0.041298,2025-03-21T00:19:37Z
40,251.566738,0.697904,7.258366,44.939148,278.976738,0.307251,2.133081,3,-93.177179,12.794966,2025-03-21T00:19:39Z,-0.341193,-0.957664,0.006016,2025-03-21T00:19:38Z,-0.772655,0.066435,-0.143503,2025-03-21T00:19:38Z
41,251.053344,0.692142,7.255477,44.939256,278.463344,0.307251,2.224464,3,-93.177178,12.154775,2025-03-21T00:19:40Z,-0.344829,-0.938682,0.003793,2025-03-21T00:19:39Z,-0.805958,0.25576,-0.174814,2025-03-21T00:19:39Z
42,251.302418,0.685632,7.258824,44.93935,278.712418,0.307251,2.130708,3,-93.177178,11.155487,2025-03-21T00:19:41Z,-0.346266,-0.946123,9.17e-4,2025-03-21T00:19:40Z,-0.768532,0.169364,-0.175425,2025-03-21T00:19:40Z
43,251.513706,0.702413,7.258333,44.939441,278.923706,0.307251,2.249363,3,-93.177181,10.297677,2025-03-21T00:19:42Z,-0.392721,-0.928459,-0.005967,2025-03-21T00:19:41Z,-1.118431,0.308878,-0.235684,2025-03-21T00:19:41Z
44,251.217959,0.722163,7.258613,44.939517,278.627959,0.307251,2.142778,3,-93.177182,8.919305,2025-03-21T00:19:43Z,-0.44175,-0.91979,-0.023222,2025-03-21T00:19:42Z,-1.48128,0.362676,-0.360315,2025-03-21T00:19:42Z
45,251.044255,0.718101,8.107297,44.939574,278.454255,0.307251,2.087664,3,-93.17718,7.167534,2025-03-21T00:19:44Z,-0.415806,-0.923624,-0.022177,2025-03-21T00:19:43Z,-1.212566,0.317683,-0.337324,2025-03-21T00:19:43Z
46,251.162643,0.704553,10.352654,44.939617,278.572643,0.236364,2.213679,3,-93.17718,5.515029,2025-03-21T00:19:45Z,-0.402477,-0.927627,-0.012456,2025-03-21T00:19:44Z,-1.043582,0.27106,-0.250614,2025-03-21T00:19:44Z
47,251.267788,0.715684,14.265152,44.939648,278.677788,359.723519,2.170943,3,-93.177181,4.063626,2025-03-21T00:19:46Z,-0.370765,-0.938564,-0.017803,2025-03-21T00:19:45Z,-0.72666,0.159496,-0.207128,2025-03-21T00:19:45Z
48,251.21598,0.715161,20.301771,44.939668,278.62598,0.292191,2.295548,3,-93.177179,2.846453,2025-03-21T00:19:47Z,-0.332246,-0.946772,-0.009561,2025-03-21T00:19:46Z,-0.335356,0.077215,-0.085456,2025-03-21T00:19:46Z
49,251.184009,0.729116,31.153714,44.939682,278.594008,0.704661,2.459201,3,-93.177178,1.877862,2025-03-21T00:19:48Z,-0.296257,-0.956928,-0.001523,2025-03-21T00:19:47Z,0.029358,-0.028747,0.009084,2025-03-21T00:19:47Z
50,250.983715,0.92648,36.418247,44.939691,278.393715,358.649238,2.649548,3,-93.177181,1.138124,2025-03-21T00:19:49Z,-0.273557,-0.961394,0.004991,2025-03-21T00:19:48Z,0.261281,-0.072665,0.083001,2025-03-21T00:19:48Z
51,251.489111,0.723523,41.411509,44.939708,278.899111,359.793135,2.63233,3,-93.177179,1.337433,2025-03-21T00:19:50Z,-0.232973,-0.97257,0.014732,2025-03-21T00:19:49Z,0.660904,-0.184632,0.168081,2025-03-21T00:19:49Z
52,251.405276,0.696212,35.278262,44.939724,278.815276,0.209358,2.686888,3,-93.177179,1.592862,2025-03-21T00:19:51Z,-0.205892,-0.977802,0.023996,2025-03-21T00:19:50Z,0.924346,-0.234263,0.249227,2025-03-21T00:19:50Z
53,251.750677,0.944889,31.2397,44.939747,279.160676,359.716358,2.873229,3,-93.177182,2.19092,2025-03-21T00:19:52Z,-0.140952,-0.994006,0.040354,2025-03-21T00:19:51Z,1.521966,-0.381001,0.402676,2025-03-21T00:19:51Z
54,251.520877,0.719955,18.072008,44.93978,278.930877,0,2.80046,3,-93.177179,3.22015,2025-03-21T00:19:53Z,-0.12285,-0.998911,0.046019,2025-03-21T00:19:52Z,1.588001,-0.396112,0.410175,2025-03-21T00:19:52Z
55,251.189125,0.677248,12.897032,44.939819,278.599125,0,2.738886,3,-93.17718,4.201411,2025-03-21T00:19:54Z,-0.136079,-0.99355,0.045682,2025-03-21T00:19:53Z,1.347855,-0.311126,0.35141,2025-03-21T00:19:53Z
56,251.180519,0.676141,9.98974,44.939873,278.590519,0.188157,2.70226,3,-93.177179,5.465738,2025-03-21T00:19:55Z,-0.1421,-0.993134,0.045413,2025-03-21T00:19:54Z,1.265924,-0.302929,0.323907,2025-03-21T00:19:54Z
57,251.207588,0.678316,8.185711,44.939932,278.617588,0.188157,2.779677,3,-93.177173,6.707387,2025-03-21T00:19:56Z,-0.164033,-0.986766,0.042314,2025-03-21T00:19:55Z,1.012086,-0.229807,0.270032,2025-03-21T00:19:55Z
58,251.411395,0.665107,7.258974,44.940004,278.821395,0.188157,2.734627,3,-93.177177,7.593106,2025-03-21T00:19:57Z,-0.164539,-1.007244,0.041093,2025-03-21T00:19:56Z,0.779618,-0.361615,0.292853,2025-03-21T00:19:56Z
59,251.57309,0.666171,7.258467,44.940085,278.98309,0.188157,2.583298,3,-93.177179,8.516169,2025-03-21T00:19:58Z,-0.141208,-0.977166,0.021578,2025-03-21T00:19:57Z,0.799859,-0.018796,0.204796,2025-03-21T00:19:57Z
60,251.818268,0.662209,7.25833,44.940171,279.228267,359.57809,2.48744,3,-93.17718,9.253622,2025-03-21T00:19:59Z,-0.164138,-0.977812,0.019694,2025-03-21T00:19:58Z,0.747925,-0.081067,0.225626,2025-03-21T00:19:58Z
61,250.999756,0.674221,7.250024,44.940264,278.409756,359.116834,2.30263,3,-93.177181,9.987531,2025-03-21T00:20:00Z,-0.169558,-0.992708,0.018095,2025-03-21T00:19:59Z,0.64659,-0.201586,0.10068,2025-03-21T00:19:59Z
62,251.130932,0.670957,7.258481,44.940367,278.540932,359.904857,2.363465,3,-93.177179,10.873832,2025-03-21T00:20:01Z,-0.192678,-0.979295,0.029527,2025-03-21T00:20:00Z,0.357768,-0.064243,0.098929,2025-03-21T00:20:00Z
63,250.374404,0.667273,7.254052,44.940472,277.784404,0.151344,2.199074,3,-93.177179,11.505154,2025-03-21T00:20:02Z,-0.186717,-0.980778,0.022412,2025-03-21T00:20:01Z,0.386471,-0.066532,0.071182,2025-03-21T00:20:01Z
64,250.64643,0.666936,7.258837,44.940585,278.05643,359.867523,2.105102,3,-93.17718,12.190351,2025-03-21T00:20:03Z,-0.243972,-0.971992,0.008345,2025-03-21T00:20:02Z,-0.241904,0.036172,-0.088614,2025-03-21T00:20:02Z
65,250.370071,0.672575,7.258521,44.940697,277.780071,0.062301,2.054374,3,-93.17718,12.329005,2025-03-21T00:20:04Z,-0.262963,-0.966289,0.015258,2025-03-21T00:20:03Z,-0.431654,0.08494,-0.187201,2025-03-21T00:20:03Z
66,250.71286,0.67444,7.258807,44.940805,278.12286,0.954728,2.028112,3,-93.177174,12.139982,2025-03-21T00:20:05Z,-0.281345,-0.958039,0.030111,2025-03-21T00:20:04Z,-0.581714,0.151832,-0.121858,2025-03-21T00:20:04Z
67,250.443918,0.671175,7.258741,44.940911,277.853918,0.640508,2.014762,3,-93.177173,11.969206,2025-03-21T00:20:06Z,-0.265867,-0.957931,0.030728,2025-03-21T00:20:05Z,-0.364597,0.149143,-0.136436,2025-03-21T00:20:05Z
68,250.427246,0.688439,7.258902,44.941014,277.837246,358.245087,2.007786,3,-93.17718,11.623435,2025-03-21T00:20:07Z,-0.347529,-0.939405,0.017041,2025-03-21T00:20:06Z,-1.143523,0.321902,-0.184286,2025-03-21T00:20:06Z
69,NA,NA,NA,NA,NA,NA,NA,NA,NA,NA,NA,-0.410256,-0.927123,-0.018616,2025-03-21T00:20:07Z,-1.740328,0.444091,-0.438456,2025-03-21T00:20:07Z
