seconds_elapsed,location_altitude,location_speedAccuracy,location_bearingAccuracy,location_latitude,location_altitudeAboveMeanSeaLevel,location_bearing,location_horizontalAccuracy,location_verticalAccuracy,location_longitude,location_speed,location_local_time,accelerometerUncalibrated_z,accelerometerUncalibrated_y,accelerometerUncalibrated_x,accelerometerUncalibrated_local_time,accelerometer_z,accelerometer_y,accelerometer_x,accelerometer_local_time
0,263.500055,0.120859,32.193809,44.940144,290.910054,199.857041,2.162862,3,-93.167159,4.688825,2025-03-21T00:35:59Z,-0.179585,-0.998969,-0.181915,2025-03-21T00:35:58Z,0.633515,-0.302956,-1.854846,2025-03-21T00:35:58Z
1,263.501763,0.307932,27.52478,44.940124,290.911763,226.916104,2.223763,3,-93.167204,5.341129,2025-03-21T00:36:00Z,-0.162389,-0.981088,-0.077273,2025-03-21T00:35:59Z,0.594661,-0.054423,-0.848517,2025-03-21T00:35:59Z
2,263.362393,0.307963,23.977169,44.940121,290.772392,253.80227,2.210243,3,-93.167265,5.764804,2025-03-21T00:36:01Z,-0.145568,-0.993788,0.010548,2025-03-21T00:36:00Z,0.758598,-0.187522,0.029889,2025-03-21T00:36:00Z
3,263.206057,0.345228,10.576355,44.94012,290.616057,269.613373,2.197103,3,-93.167342,6.469988,2025-03-21T00:36:02Z,-0.165395,-0.982539,0.037999,2025-03-21T00:36:01Z,0.48691,-0.060754,0.339362,2025-03-21T00:36:01Z
4,262.996763,0.324883,7.58845,44.940122,290.406762,269.613373,2.1818,3,-93.167438,7.455351,2025-03-21T00:36:03Z,-0.181421,-0.98569,0.03743,2025-03-21T00:36:02Z,0.341507,-0.084552,0.380094,2025-03-21T00:36:02Z
5,262.727875,0.287891,7.258789,44.940123,290.137875,269.802124,2.201899,3,-93.16755,8.608604,2025-03-21T00:36:04Z,-0.21535,-0.962953,0.020613,2025-03-21T00:36:03Z,-0.008519,0.132351,0.262821,2025-03-21T00:36:03Z
6,262.403173,0.24395,7.257692,44.940124,289.813173,269.802124,2.144956,3,-93.167673,9.4252300000000009,2025-03-21T00:36:05Z,-0.236581,-0.9739,0.008727,2025-03-21T00:36:04Z,-0.165237,0.014459,0.126057,2025-03-21T00:36:04Z
7,262.01036,0.25442,7.257434,44.940126,289.42036,269.802124,2.094101,3,-93.167802,10.028848,2025-03-21T00:36:06Z,-0.239869,-0.974329,0.023617,2025-03-21T00:36:05Z,-0.216263,0.021946,0.226175,2025-03-21T00:36:05Z
8,261.629807,0.248204,7.257138,44.940127,289.039807,270.143555,2.056672,3,-93.167937,10.539701,2025-03-21T00:36:07Z,-0.243949,-0.96164,0.027706,2025-03-21T00:36:06Z,-0.235268,0.133508,0.242615,2025-03-21T00:36:06Z
9,261.337805,0.239524,7.256488,44.940127,288.747805,270.143555,2.03354,3,-93.168075,10.887697,2025-03-21T00:36:08Z,-0.256885,-0.972811,0.017343,2025-03-21T00:36:07Z,-0.363745,0.019594,0.135095,2025-03-21T00:36:07Z
10,260.947996,0.227939,7.25631,44.940127,288.357996,270.143555,2.018359,3,-93.168221,11.398062,2025-03-21T00:36:09Z,-0.267272,-0.957187,0.016276,2025-03-21T00:36:08Z,-0.423447,0.174829,0.105291,2025-03-21T00:36:08Z
11,260.579596,0.225791,7.255459,44.940128,287.989596,270.143555,2.390724,3,-93.16837,11.661991,2025-03-21T00:36:10Z,-0.265538,-0.960582,0.013714,2025-03-21T00:36:09Z,-0.398644,0.131721,0.053575,2025-03-21T00:36:09Z
12,260.213232,0.250295,7.255762,44.940129,287.623232,270.150787,2.221628,3,-93.168523,11.853119,2025-03-21T00:36:11Z,-0.261839,-0.965483,0.009416,2025-03-21T00:36:10Z,-0.33458,0.080097,0.039143,2025-03-21T00:36:10Z
13,259.692639,0.229738,7.254725,44.940131,287.102638,270.150787,2.115638,3,-93.168679,12.198767,2025-03-21T00:36:12Z,-0.259841,-0.957581,0.022677,2025-03-21T00:36:11Z,-0.305908,0.157589,0.121187,2025-03-21T00:36:11Z
14,259.323064,0.237749,7.255775,44.940132,286.733064,270.150787,2.059854,3,-93.168838,12.424454,2025-03-21T00:36:13Z,-0.275078,-0.961775,0.012338,2025-03-21T00:36:12Z,-0.429265,0.109906,0.086885,2025-03-21T00:36:12Z
15,259.029145,0.23539,7.255444,44.940118,286.439145,270.460724,2.03079,3,-93.168999,12.60441,2025-03-21T00:36:14Z,-0.295109,-0.966165,0.020721,2025-03-21T00:36:13Z,-0.594606,0.057505,0.126039,2025-03-21T00:36:13Z
16,258.727769,0.23605400000000001,7.254772,44.940118,286.137769,270.460724,2.121167,3,-93.169161,12.735168,2025-03-21T00:36:15Z,-0.27052,-0.949732,-0.012127,2025-03-21T00:36:14Z,-0.361766,0.224893,-0.045491,2025-03-21T00:36:14Z
17,258.290161,0.257393,7.255409,44.940117,285.700161,270.375916,2.06129,3,-93.169322,12.722207,2025-03-21T00:36:16Z,-0.288361,-0.985978,-0.00944,2025-03-21T00:36:15Z,-0.486869,-0.141397,-0.081337,2025-03-21T00:36:15Z
18,257.932553,0.271041,7.256601,44.940116,285.342553,270,2.031,3,-93.169484,12.741041,2025-03-21T00:36:17Z,-0.275129,-0.94718,-0.015384,2025-03-21T00:36:16Z,-0.43355900000000003,0.248787,-0.107754,2025-03-21T00:36:16Z
19,257.74772,0.275701,7.25657,44.940116,285.15772,270.187958,2.015571,3,-93.169648,12.793166,2025-03-21T00:36:18Z,-0.292009,-0.969404,0.030406,2025-03-21T00:36:17Z,-0.520515,0.01113,0.16227,2025-03-21T00:36:17Z
20,257.401452,0.264474,7.254612,44.940117,284.811452,270.187958,2.007869,3,-93.169808,12.602945,2025-03-21T00:36:19Z,-0.286171,-0.935741,0.012456,2025-03-21T00:36:18Z,-0.42488,0.334427,-0.033559,2025-03-21T00:36:18Z
21,257.236218,0.280743,7.257285,44.940115,284.646218,270.187958,2.004007,3,-93.169967,12.604254,2025-03-21T00:36:20Z,-0.27877,-0.962306,0.008917,2025-03-21T00:36:19Z,-0.304856,0.065967,-0.069196,2025-03-21T00:36:19Z
22,257.071139,0.278411,7.256992,44.940115,284.481139,270.339111,2.470236,3,-93.170126,12.524409,2025-03-21T00:36:21Z,-0.294569,-0.958868,0.001532,2025-03-21T00:36:20Z,-0.451601,0.087378,-0.105587,2025-03-21T00:36:20Z
23,256.915336,0.282531,7.25754,44.940115,284.325336,270.339111,2.242307,3,-93.170282,12.441981,2025-03-21T00:36:22Z,-0.269451,-0.955461,0.001515,2025-03-21T00:36:21Z,-0.204137,0.134839,-0.048992,2025-03-21T00:36:21Z
24,256.794266,0.288655,7.258162,44.940116,284.204266,270.339111,2.124327,3,-93.170437,12.282286,2025-03-21T00:36:23Z,-0.282758,-0.962292,0.009906,2025-03-21T00:36:22Z,-0.263001,0.037618,-0.031265,2025-03-21T00:36:22Z
25,256.655031,0.286764,7.258038,44.940115,284.06503,270.141266,2.06422,3,-93.170591,12.169248,2025-03-21T00:36:24Z,-0.273963,-0.960074,0.009462,2025-03-21T00:36:23Z,-0.172363,0.068053,-0.041583,2025-03-21T00:36:23Z
26,256.661043,0.291657,7.25843,44.940114,284.071043,270.141266,2.03336,3,-93.170744,12.046265,2025-03-21T00:36:25Z,-0.265886,-0.955512,0.011344,2025-03-21T00:36:24Z,-0.081095,0.100176,-0.007263,2025-03-21T00:36:24Z
27,256.639974,0.294017,7.258592,44.940115,284.049974,270.141266,2.017341,3,-93.170899,12.132495,2025-03-21T00:36:26Z,-0.271975,-0.961839,0.022679,2025-03-21T00:36:25Z,-0.121272,0.031824,0.069688,2025-03-21T00:36:25Z
28,256.495118,0.293101,7.258554,44.940115,283.905118,270.141266,2.009041,3,-93.171053,12.178874,2025-03-21T00:36:27Z,-0.268114,-0.961396,0.023832,2025-03-21T00:36:26Z,-0.113912,0.057406,0.118478,2025-03-21T00:36:26Z
29,256.432226,0.292836,7.258545,44.940115,283.842225,270.141266,2.004679,3,-93.171209,12.161259,2025-03-21T00:36:28Z,-0.267984,-0.964304,0.007036,2025-03-21T00:36:27Z,-0.107236,0.024634,0.03277,2025-03-21T00:36:27Z
30,256.388769,0.290196,7.258395,44.940114,283.798769,270.141266,2.002436,3,-93.171363,12.13319,2025-03-21T00:36:29Z,-0.269338,-0.965,-0.002687,2025-03-21T00:36:28Z,-0.115253,0.005791,-0.081622,2025-03-21T00:36:28Z
31,256.394801,0.297435,7.258774,44.940114,283.804801,270.141266,2.001253,3,-93.171518,12.07594,2025-03-21T00:36:30Z,-0.266794,-0.955875,0.01438,2025-03-21T00:36:29Z,-0.066162,0.081325,-0.027528,2025-03-21T00:36:29Z
32,256.209615,0.303543,7.258941,44.940114,283.619615,270.147064,2.170383,3,-93.171673,12.136241,2025-03-21T00:36:31Z,-0.251034,-0.976045,0.028991,2025-03-21T00:36:30Z,0.046713,-0.093049,0.078447,2025-03-21T00:36:30Z
33,256.239302,0.305906,7.258967,44.940113,283.649301,270.147064,2.290762,3,-93.171828,12.200596000000001,2025-03-21T00:36:32Z,-0.253816,-0.964835,0.022271,2025-03-21T00:36:31Z,0.018165,0.029867,0.04125,2025-03-21T00:36:31Z
34,256.196057,0.311665,7.258953,44.940112,283.606057,270.147064,2.151021,3,-93.171983,12.254045,2025-03-21T00:36:33Z,-0.243126,-0.970359,0.026123,2025-03-21T00:36:32Z,0.134051,-0.046778,0.044522,2025-03-21T00:36:32Z
35,256.168407,0.302725,7.258931,44.940114,283.578407,270.098969,2.077128,3,-93.172145,12.47837,2025-03-21T00:36:34Z,-0.243932,-0.963611,0.005359,2025-03-21T00:36:33Z,0.029772,0.059429,-0.102181,2025-03-21T00:36:33Z
36,256.272961,0.305221,7.258963,44.940115,283.682961,270.098969,2.039073,3,-93.172308,12.648862,2025-03-21T00:36:35Z,-0.253456,-0.979344,0.016618,2025-03-21T00:36:34Z,0.007375,-0.12937,0.079998,2025-03-21T00:36:34Z
37,256.190313,0.290447,7.258522,44.940117,283.60031300000003,270.098969,2.01973,3,-93.172472,12.810324,2025-03-21T00:36:36Z,-0.265844,-0.951728,0.007858,2025-03-21T00:36:35Z,-0.157559,0.158373,-0.025428,2025-03-21T00:36:35Z
38,256.357948,0.309503,7.258971,44.940116,283.767948,270.098969,2.009923,3,-93.172637,12.881111,2025-03-21T00:36:37Z,-0.261698,-0.960366,8.12e-4,2025-03-21T00:36:36Z,-0.112393,0.077233,-0.008965,2025-03-21T00:36:36Z
39,256.380815,0.306605,7.258972,44.940117,283.790815,270,2.004973,3,-93.172799,12.693521,2025-03-21T00:36:38Z,-0.261625,-0.952413,0.006499,2025-03-21T00:36:37Z,-0.11474,0.152111,0.06144,2025-03-21T00:36:37Z
40,256.30371,0.308583,7.258974,44.940117,283.71371,270,2.002512,3,-93.172959,12.571726,2025-03-21T00:36:39Z,-0.272,-0.973113,0.002441,2025-03-21T00:36:38Z,-0.187541,-0.046859,-0.011078,2025-03-21T00:36:38Z
41,256.185375,0.295954,7.258767,44.940117,283.595375,270,2.001273,3,-93.173121,12.652834,2025-03-21T00:36:40Z,-0.264616,-0.963542,-0.00396,2025-03-21T00:36:39Z,-0.121953,0.041825,-0.045586,2025-03-21T00:36:39Z
42,256.073203,0.304516,7.258957,44.940117,283.483203,270,2.018657,3,-93.173279,12.555639,2025-03-21T00:36:41Z,-0.261038,-0.955729,0.008782,2025-03-21T00:36:40Z,-0.072176,0.122708,0.040807,2025-03-21T00:36:40Z
43,256.201007,0.305124,7.258963,44.940117,283.611007,270,2.009512,3,-93.173438,12.47261,2025-03-21T00:36:42Z,-0.267162,-0.963217,-0.015222,2025-03-21T00:36:41Z,-0.125683,0.02008,-0.132827,2025-03-21T00:36:41Z
44,256.113419,0.297474,7.258816,44.940117,283.523418,270,2.004857,3,-93.173595,12.339267,2025-03-21T00:36:43Z,-0.267517,-0.962735,-0.003064,2025-03-21T00:36:42Z,-0.102371,0.040955,-0.093326,2025-03-21T00:36:42Z
45,256.104758,0.28717,7.258376,44.940117,283.514758,270,2.002487,3,-93.173754,12.465093,2025-03-21T00:36:44Z,-0.267341,-0.968212,0.006439,2025-03-21T00:36:43Z,-0.098395,-0.013321,0.022111,2025-03-21T00:36:43Z
46,256.030503,0.30065,7.258899,44.940117,283.440503,270,2.154522,3,-93.173911,12.400499,2025-03-21T00:36:45Z,-0.262476,-0.948527,0.01402,2025-03-21T00:36:44Z,-0.019253,0.163543,0.047007,2025-03-21T00:36:44Z
47,256.013099,0.301222,7.25891,44.940118,283.423099,270,2.079775,3,-93.174066,12.287627,2025-03-21T00:36:46Z,-0.254882,-0.960975,-0.008659,2025-03-21T00:36:45Z,0.047734,0.04546,-0.081004,2025-03-21T00:36:45Z
48,255.880158,0.298555,7.258849,44.940119,283.290158,270,2.041387,3,-93.17422,12.247769,2025-03-21T00:36:47Z,-0.271707,-0.963151,0.00775,2025-03-21T00:36:46Z,-0.027687,0.005233,0.055571,2025-03-21T00:36:46Z
49,255.733804,0.293117,7.258666,44.940119,283.143804,270.142548,2.021473,3,-93.174374,12.2206,2025-03-21T00:36:48Z,-0.270537,-0.944803,0.006675,2025-03-21T00:36:47Z,0.034959,0.157399,0.063004,2025-03-21T00:36:47Z
50,255.44189,0.287109,7.258374,44.94012,282.85189,270.142548,2.011146,3,-93.17453,12.266718,2025-03-21T00:36:49Z,-0.259017,-0.958591,0.0095,2025-03-21T00:36:48Z,0.172315,0.025612,0.08817,2025-03-21T00:36:48Z
51,254.835383,0.269752,7.257031,44.940118,282.245383,270.142548,2.005693,3,-93.174692,12.562045,2025-03-21T00:36:50Z,-0.262696,-0.972479,0.011707,2025-03-21T00:36:49Z,0.168956,-0.124045,0.058701,2025-03-21T00:36:49Z
52,254.517752,0.263983,7.257126,44.940118,281.927751,270.142548,2.006468,3,-93.174853,12.796116,2025-03-21T00:36:51Z,-0.266943,-0.963787,0.017698,2025-03-21T00:36:50Z,0.119398,-0.033659,0.119759,2025-03-21T00:36:50Z
53,254.113911,0.257667,7.257385,44.940119,281.523911,270.292664,2.515059,3,-93.175014,12.937806,2025-03-21T00:36:52Z,-0.268445,-0.9521,0.015375,2025-03-21T00:36:51Z,0.103814,0.087173,0.029688,2025-03-21T00:36:51Z
54,253.824199,0.266939,7.257516,44.940117,281.234198,270.2117,2.260345,3,-93.175175,12.860082,2025-03-21T00:36:53Z,-0.2799,-0.957237,-0.006781,2025-03-21T00:36:52Z,-0.008491,0.022624,-0.135916,2025-03-21T00:36:52Z
55,253.509141,0.275747,7.257807,44.940115,280.919141,270.2117,2.130962,3,-93.175338,12.856044,2025-03-21T00:36:54Z,-0.282905,-0.95407,0.009072,2025-03-21T00:36:53Z,-0.055251,0.066774,7.52e-4,2025-03-21T00:36:53Z
56,253.389271,0.272973,7.25747,44.940116,280.799271,270.2117,2.065988,3,-93.1755,12.791926,2025-03-21T00:36:55Z,-0.296146,-0.953593,-0.001032,2025-03-21T00:36:54Z,-0.160601,0.062676,-0.079034,2025-03-21T00:36:54Z
57,253.228739,0.285662,7.258335,44.940115,280.638739,270.2117,2.033372,3,-93.17566,12.632416,2025-03-21T00:36:56Z,-0.293468,-0.960276,0.012218,2025-03-21T00:36:55Z,-0.141631,-7.41e-4,0.042773,2025-03-21T00:36:55Z
58,253.103579,0.273922,7.257489,44.940115,280.513579,270.2117,2.016978,3,-93.175819,12.597379,2025-03-21T00:36:57Z,-0.308725,-0.94694,0.007972,2025-03-21T00:36:56Z,-0.292898,0.137231,-0.004502,2025-03-21T00:36:56Z
59,252.723662,0.276002,7.257624,44.940113,280.133661,270.2117,2.008576,3,-93.175979,12.38552,2025-03-21T00:36:58Z,-0.342756,-0.940322,-0.002383,2025-03-21T00:36:57Z,-0.610428,0.185223,-0.086479,2025-03-21T00:36:57Z
60,252.441932,0.253337,7.257332,44.940113,279.851932,270.2117,2.004395,3,-93.176131,11.925182,2025-03-21T00:36:59Z,-0.376774,-0.940239,0.037016,2025-03-21T00:36:58Z,-0.897254,0.176305,0.27469,2025-03-21T00:36:58Z
61,252.146102,0.190571,7.257653,44.940111,279.556102,270,2.002306,3,-93.176273,11.234059,2025-03-21T00:37:00Z,-0.393411,-0.919286,0.012876,2025-03-21T00:36:59Z,-1.03751,0.377127,0.070569,2025-03-21T00:36:59Z
62,251.922802,0.196772,7.258052,44.940106,279.332802,270,2.00125,3,-93.176403,10.256536,2025-03-21T00:37:01Z,-0.426179,-0.92276,-0.022513,2025-03-21T00:37:00Z,-1.247103,0.311616,-0.239629,2025-03-21T00:37:00Z
63,251.700929,0.204012,7.258355,44.940099,279.110929,270,2.700647,3,-93.176513,8.907035,2025-03-21T00:37:02Z,-0.378439,-0.929978,-0.066586,2025-03-21T00:37:01Z,-0.67276,0.200321,-0.536257,2025-03-21T00:37:01Z
64,251.554092,0.251513,7.258605,44.940114,278.964092,270,2.540271,3,-93.176608,7.646074,2025-03-21T00:37:03Z,-0.328479,-0.949218,-0.070928,2025-03-21T00:37:02Z,-0.153633,0.003883,-0.396201,2025-03-21T00:37:02Z
65,251.280741,0.279414,7.25868,44.940114,278.690741,270,2.339115,3,-93.176695,6.984523,2025-03-21T00:37:04Z,-0.328233,-0.941681,-0.041473,2025-03-21T00:37:03Z,-0.173307,0.086131,-0.122152,2025-03-21T00:37:03Z
66,251.311289,0.291287,7.258868,44.940115,278.721289,270.30584700000003,2.340329,3,-93.176777,6.444547,2025-03-21T00:37:05Z,-0.384023,-0.929086,-0.060292,2025-03-21T00:37:04Z,-0.684117,0.186091,-0.233502,2025-03-21T00:37:04Z
67,251.240838,0.309134,8.021324,44.940104,278.650837,270.30584700000003,2.253861,3,-93.176838,5.454857,2025-03-21T00:37:05Z,-0.411219,-0.922078,-0.067364,2025-03-21T00:37:05Z,-0.916783,0.24744,-0.260741,2025-03-21T00:37:05Z
68,251.05195,0.396985,11.60011,44.940104,278.46195,270.30584700000003,2.203089,3,-93.176888,4.116172,2025-03-21T00:37:07Z,-0.412564,-0.924235,-0.065368,2025-03-21T00:37:06Z,-0.894287,0.213713,-0.215016,2025-03-21T00:37:06Z
69,250.972128,0.485167,18.017051,44.940104,278.382128,270.30584700000003,2.169241,3,-93.176919,2.53353,2025-03-21T00:37:08Z,-0.359466,-0.936942,-0.052943,2025-03-21T00:37:07Z,-0.349815,0.079937,-0.085563,2025-03-21T00:37:07Z
70,250.985831,0.43120000000000003,23.931275,44.940104,278.395831,270.30584700000003,2.272904,3,-93.176937,1.502708,2025-03-21T00:37:08Z,-0.334007,-0.944003,-0.044162,2025-03-21T00:37:08Z,-0.091871,0.009748,0.002349,2025-03-21T00:37:08Z
