seconds_elapsed,location_altitude,location_speedAccuracy,location_bearingAccuracy,location_latitude,location_altitudeAboveMeanSeaLevel,location_bearing,location_horizontalAccuracy,location_verticalAccuracy,location_longitude,location_speed,location_local_time,accelerometerUncalibrated_z,accelerometerUncalibrated_y,accelerometerUncalibrated_x,accelerometerUncalibrated_local_time,accelerometer_z,accelerometer_y,accelerometer_x,accelerometer_local_time
0,251.901421,0.430284,13.388469,44.940056,279.311421,115.973284,2.694459,3,-93.177102,5.604791,2025-03-21T00:41:02Z,-0.243386,-0.972161,0.219101,2025-03-21T00:41:01Z,-0.30305,0.043656,1.856239,2025-03-21T00:41:01Z
1,251.929041,0.3674,9.045991,44.940052,279.339041,97.292989,2.668032,3,-93.177025,6.030405,2025-03-21T00:41:03Z,-0.196349,-0.97482,0.097605,2025-03-21T00:41:02Z,0.063023,0.042015,0.672198,2025-03-21T00:41:02Z
2,251.961903,0.349235,7.258083,44.940051,279.371903,90,2.634095,3,-93.176936,6.893057,2025-03-21T00:41:04Z,-0.146272,-0.985522,0.062345,2025-03-21T00:41:03Z,0.5226,-0.068366,0.285973,2025-03-21T00:41:03Z
3,251.991992,0.347944,7.25761,44.940052,279.401992,90.30584,2.587408,3,-93.176837,7.543399,2025-03-21T00:41:05Z,-0.147223,-0.999802,0.058146,2025-03-21T00:41:04Z,0.469169,-0.19005,0.185238,2025-03-21T00:41:04Z
4,252.144035,0.355885,7.257551,44.940053,279.554035,90.30584,2.525451,3,-93.176723,8.744911,2025-03-21T00:41:06Z,-0.140051,-0.996216,0.046388,2025-03-21T00:41:05Z,0.48369,-0.151481,0.11154,2025-03-21T00:41:05Z
5,252.22698,0.343208,7.258431,44.940055,279.636979,90,2.674228,3,-93.176598,9.780139,2025-03-21T00:41:07Z,-0.165581,-0.988656,0.03644,2025-03-21T00:41:06Z,0.212167,-0.070426,0.013637,2025-03-21T00:41:06Z
6,252.433723,0.338623,7.258307,44.940056,279.843723,90,2.415625,3,-93.176465,10.413844,2025-03-21T00:41:08Z,-0.198777,-0.979765,-3.03e-4,2025-03-21T00:41:07Z,-0.176,0.041085000000000003,-0.242264,2025-03-21T00:41:07Z
7,252.431768,0.318822,7.258846,44.940059,279.841768,90,2.41747,3,-93.176332,10.506089,2025-03-21T00:41:09Z,-0.191965,-0.97578,0.009663,2025-03-21T00:41:08Z,-0.112373,0.072181,-0.157542,2025-03-21T00:41:08Z
8,252.63851,0.323691,7.258778,44.940061,280.048509,90,2.23157,3,-93.17619,11.079346,2025-03-21T00:41:10Z,-0.19723,-0.983745,0.01103,2025-03-21T00:41:09Z,-0.1396,-0.018803,-0.177089,2025-03-21T00:41:09Z
9,252.749058,0.329663,7.258561,44.940063,280.159058,90.211685,2.440946,3,-93.176042,11.438856,2025-03-21T00:41:11Z,-0.21132600000000001,-0.974734,-0.01037,2025-03-21T00:41:10Z,-0.301072,0.087277,-0.35365,2025-03-21T00:41:10Z
10,252.8299,0.315034,7.25893,44.940062,280.239899,90.211685,2.237079,3,-93.175895,11.635316,2025-03-21T00:41:11Z,-0.215185,-0.976799,0.009609,2025-03-21T00:41:11Z,-0.320793,0.059907,-0.201527,2025-03-21T00:41:11Z
11,253.191837,0.32003,7.258728,44.940061,280.601837,90.211685,2.12679,3,-93.175748,11.706737,2025-03-21T00:41:12Z,-0.242917,-0.963679,-0.004201,2025-03-21T00:41:12Z,-0.561288,0.184176,-0.291141,2025-03-21T00:41:12Z
12,253.553507,0.326885,7.258059,44.940062,280.963507,90.211685,2.128062,3,-93.175603,11.411259,2025-03-21T00:41:14Z,-0.246521,-0.966923,0.003111,2025-03-21T00:41:13Z,-0.598974,0.153584,-0.226373,2025-03-21T00:41:13Z
13,253.78327,0.31817,7.25864,44.940063,281.193269,90.211685,2.62644,3,-93.17546,11.402438,2025-03-21T00:41:14Z,-0.240113,-0.961297,0.005798,2025-03-21T00:41:14Z,-0.456993,0.187422,-0.185076,2025-03-21T00:41:14Z
14,254.071407,0.328067,7.258332,44.940063,281.481407,90.211685,2.505951,3,-93.175318,11.205397,2025-03-21T00:41:15Z,-0.21582,-0.985043,0.015843,2025-03-21T00:41:15Z,-0.172863,-0.059522,-0.065944,2025-03-21T00:41:15Z
15,254.256525,0.321855,7.258557,44.940062,281.666525,90.211685,2.27376,3,-93.17517,11.680315,2025-03-21T00:41:17Z,-0.210351,-0.971168,0.014664,2025-03-21T00:41:16Z,-0.070193,0.093958,-0.050707,2025-03-21T00:41:16Z
16,254.444301,0.319446,7.258662,44.940062,281.854301,90.292648,3.021257,3,-93.175024,11.498819,2025-03-21T00:41:18Z,-0.244819,-0.966986,0.007479,2025-03-21T00:41:17Z,-0.389704,0.089852,-0.134229,2025-03-21T00:41:17Z
17,254.655216,0.326277,7.258155,44.940062,282.065216,90.292648,2.545156,3,-93.174877,11.393288,2025-03-21T00:41:19Z,-0.26442,-0.953456,0.00963,2025-03-21T00:41:18Z,-0.552835,0.24754,-0.159479,2025-03-21T00:41:18Z
18,254.669615,0.330819,7.257833,44.940063,282.079615,90.292648,2.585547,3,-93.174738,11.013772,2025-03-21T00:41:20Z,-0.286928,-0.963813,-0.009018,2025-03-21T00:41:19Z,-0.73804,0.127015,-0.280779,2025-03-21T00:41:19Z
19,254.81218,0.360584,7.257898,44.940065,282.22218,90.998797,2.319455,3,-93.174609,10.050041,2025-03-21T00:41:21Z,-0.378353,-0.921928,-0.059343,2025-03-21T00:41:20Z,-1.560057,0.532382,-0.675261,2025-03-21T00:41:20Z
20,254.798239,0.3829,7.352041,44.940066,282.208239,91.193475,2.180547,3,-93.174498,8.486362,2025-03-21T00:41:22Z,-0.389263,-0.933695,-0.037899,2025-03-21T00:41:21Z,-1.591462,0.386095,-0.511971,2025-03-21T00:41:21Z
21,255.120421,0.361824,7.896859,44.940063,282.530421,90.769832,2.107025,3,-93.174402,7.137584,2025-03-21T00:41:23Z,-0.403207,-0.924684,-0.029803,2025-03-21T00:41:22Z,-1.638297,0.461168,-0.416568,2025-03-21T00:41:22Z
22,255.199038,0.367093,9.302897,44.940063,282.609038,89.755072,2.068124,3,-93.174332,5.617246,2025-03-21T00:41:24Z,-0.328952,-0.941421,-0.01108,2025-03-21T00:41:23Z,-0.863206,0.290884,-0.207972,2025-03-21T00:41:23Z
23,255.293798,0.303306,7.25459,44.940063,282.703798,90.142532,2.051093,3,-93.174269,5.075758,2025-03-21T00:41:24Z,-0.284938,-0.953783,-0.004731,2025-03-21T00:41:24Z,-0.230401,0.102231,-0.059502,2025-03-21T00:41:24Z
24,255.322183,0.306201,7.258917,44.940063,282.732182,90.142532,2.040874,3,-93.174209,4.705686,2025-03-21T00:41:25Z,-0.292119,-0.956689,0.043785,2025-03-21T00:41:25Z,-0.219256,0.063186,0.366534,2025-03-21T00:41:25Z
25,255.230151,0.307597,7.25897,44.940067,282.640151,90,2.092085,3,-93.17415,4.735606,2025-03-21T00:41:26Z,-0.190405,-0.979248,0.039375,2025-03-21T00:41:26Z,0.799035,-0.173037,0.234374,2025-03-21T00:41:26Z
26,255.369051,0.279766,7.247181,44.940073,282.779051,90,2.07893,3,-93.174079,5.616696,2025-03-21T00:41:27Z,-0.097808,-0.999643,0.045447,2025-03-21T00:41:27Z,1.583066,-0.328553,0.362011,2025-03-21T00:41:27Z
27,255.556431,0.35303,7.887592,44.94008,282.966431,90,2.069064,3,-93.173983,7.316143,2025-03-21T00:41:29Z,-0.097715,-1.004127,0.017127,2025-03-21T00:41:28Z,1.590069,-0.373315,0.136538,2025-03-21T00:41:28Z
28,255.573744,0.334438,7.258523,44.940085,282.983743,90,2.056298,3,-93.173872,8.580614,2025-03-21T00:41:30Z,-0.102781,-1.005594,-0.058288,2025-03-21T00:41:29Z,1.532322,-0.394561,-0.475463,2025-03-21T00:41:29Z
29,255.600037,0.330731,7.258809,44.940083,283.010037,90,2.039665,3,-93.173743,9.964166,2025-03-21T00:41:31Z,-0.118123,-1.001074,-0.041295,2025-03-21T00:41:30Z,1.306538,-0.32418400000000003,-0.283645,2025-03-21T00:41:30Z
30,255.517707,0.332476,7.258858,44.940076,282.927707,90,2.024244,3,-93.173605,10.94202,2025-03-21T00:41:32Z,-0.19142700000000001,-0.97232,0.008622,2025-03-21T00:41:31Z,0.566345,-0.043111,0.110519,2025-03-21T00:41:31Z
31,255.386485,0.311775,7.25897,44.940072,282.796485,90,2.014061,3,-93.173462,11.446857,2025-03-21T00:41:33Z,-0.208764,-0.972273,0.053976,2025-03-21T00:41:32Z,0.378472,-0.027242,0.40093,2025-03-21T00:41:32Z
32,255.271069,0.333585,7.258734,44.94007,282.681069,90,2.204954,3,-93.173311,11.75259,2025-03-21T00:41:34Z,-0.23202,-0.97697,0.034069,2025-03-21T00:41:33Z,0.080949,-0.062243,0.194954,2025-03-21T00:41:33Z
33,255.282962,0.301222,7.258958,44.940068,282.692962,90,2.107131,3,-93.173153,12.121636,2025-03-21T00:41:35Z,-0.234531,-0.972582,0.017008,2025-03-21T00:41:34Z,-0.007143,-6.36e-4,0.118013,2025-03-21T00:41:34Z
34,255.223597,0.291186,7.2588800000000004,44.940066,282.633597,90,2.05539,3,-93.172994,12.382973,2025-03-21T00:41:36Z,-0.241223,-0.961094,0.014326,2025-03-21T00:41:35Z,-0.084448,0.110691,0.042678,2025-03-21T00:41:35Z
35,255.294926,0.301092,7.258957,44.940066,282.704925,90,2.038182,3,-93.172833,12.458725,2025-03-21T00:41:37Z,-0.25875,-0.97382,0.012493,2025-03-21T00:41:36Z,-0.236333,-0.021924,-0.033506,2025-03-21T00:41:36Z
36,255.288299,0.299149,7.25892,44.940064,282.698299,90.098976,2.019323,3,-93.172672,12.468948,2025-03-21T00:41:38Z,-0.25631,-0.957674,0.009241,2025-03-21T00:41:37Z,-0.294526,0.169473,-0.038262,2025-03-21T00:41:37Z
37,255.361621,0.299149,7.258862,44.940064,282.77162,90.098976,2.009878,3,-93.172514,12.383976,2025-03-21T00:41:39Z,-0.264736,-0.958159,0.007106,2025-03-21T00:41:38Z,-0.316975,0.119683,-0.043282,2025-03-21T00:41:38Z
38,255.42789,0.29738,7.258809,44.940064,282.83789,90.098976,2.405989,3,-93.172353,12.623996,2025-03-21T00:41:40Z,-0.252181,-0.969435,0.012614,2025-03-21T00:41:39Z,-0.220998,0.047724,0.024265,2025-03-21T00:41:39Z
39,255.489328,0.301392,7.258897,44.940063,282.899328,90.098976,2.74187,3,-93.172195,12.510951,2025-03-21T00:41:41Z,-0.253021,-0.964272,0.004476,2025-03-21T00:41:40Z,-0.195886,0.08068,-0.071251,2025-03-21T00:41:40Z
40,255.504485,0.294795,7.258613,44.940063,282.914485,90.147057,2.984906,3,-93.172037,12.386756,2025-03-21T00:41:42Z,-0.263688,-0.966779,-0.028467,2025-03-21T00:41:41Z,-0.296554,0.060704,-0.340015,2025-03-21T00:41:41Z
41,255.543798,0.298206,7.258773,44.940062,282.953798,90.147057,3.19437,3,-93.171879,12.399728,2025-03-21T00:41:43Z,-0.242493,-0.970324,-2.13e-4,2025-03-21T00:41:42Z,-0.077753,0.014108,-0.084112,2025-03-21T00:41:42Z
42,255.584574,0.283739,7.258079,44.94006,282.994574,90.147057,2.611701,3,-93.171719,12.612366,2025-03-21T00:41:44Z,-0.248518,-0.962433,0.020896,2025-03-21T00:41:43Z,-0.115246,0.087506,0.051879,2025-03-21T00:41:43Z
43,255.76123,0.295281,7.258775,44.940058,283.17123,90.147057,2.312579,3,-93.171561,12.555182,2025-03-21T00:41:45Z,-0.248594,-0.963266,0.015311,2025-03-21T00:41:44Z,-0.12402,0.094066,0.063499,2025-03-21T00:41:44Z
44,255.889354,0.292382,7.25874,44.940059,283.299354,90.147057,2.159957,3,-93.171402,12.432748,2025-03-21T00:41:46Z,-0.258361,-0.981883,0.013713,2025-03-21T00:41:45Z,-0.220343,-0.113547,0.040284,2025-03-21T00:41:45Z
45,256.102926,0.292605,7.258774,44.94006,283.512926,90.141258,2.330272,3,-93.17124,12.727355,2025-03-21T00:41:47Z,-0.238816,-0.959251,-0.005126,2025-03-21T00:41:46Z,-0.070741,0.134293,-0.145478,2025-03-21T00:41:46Z
46,256.386589,0.305447,7.258967,44.94006,283.796589,90.141258,2.408014,3,-93.17108,12.652832,2025-03-21T00:41:48Z,-0.242276,-0.970923,0.009003,2025-03-21T00:41:47Z,-0.074291,0.005694,0.01989,2025-03-21T00:41:47Z
47,256.48002,0.306845,7.258973,44.940062,283.89002,90.141258,2.324503,3,-93.17092,12.581197,2025-03-21T00:41:49Z,-0.256632,-0.967801,-9.65e-4,2025-03-21T00:41:48Z,-0.226837,0.038897,-0.030732,2025-03-21T00:41:48Z
48,256.62412,0.301735,7.258911,44.940061,284.03412,90.141258,2.165054,3,-93.170763,12.383462,2025-03-21T00:41:50Z,-0.266738,-0.959796,-0.00582,2025-03-21T00:41:49Z,-0.30372,0.132179,-0.066749,2025-03-21T00:41:49Z
49,256.817599,0.304286,7.25895,44.94006,284.227598,90.141258,2.084517,3,-93.170606,12.234998,2025-03-21T00:41:51Z,-0.259102,-0.95935,-0.001164,2025-03-21T00:41:50Z,-0.213488,0.113215,-0.036648,2025-03-21T00:41:50Z
50,257.061796,0.310733,7.258962,44.94006,284.471795,90.141258,2.047127,3,-93.170455,11.954105,2025-03-21T00:41:52Z,-0.275522,-0.958186,-0.020209,2025-03-21T00:41:51Z,-0.370117,0.126945,-0.171325,2025-03-21T00:41:51Z
51,257.225757,0.307562,7.258974,44.940059,284.635757,90.339111,2.024818,3,-93.170308,11.640604,2025-03-21T00:41:53Z,-0.276521,-0.964009,-0.002867,2025-03-21T00:41:52Z,-0.330171,0.053171,-0.003025,2025-03-21T00:41:52Z
52,257.335003,0.307348,7.258974,44.940059,284.745003,90.339111,2.013152,3,-93.170164,11.377802,2025-03-21T00:41:54Z,-0.277237,-0.959179,-0.01182,2025-03-21T00:41:53Z,-0.315524,0.098652,-0.117184,2025-03-21T00:41:53Z
53,257.498993,0.315937,7.25892,44.940061,284.908992,90.339111,2.007096,3,-93.170024,11.065399,2025-03-21T00:41:55Z,-0.27404,-0.955534,-0.009543,2025-03-21T00:41:54Z,-0.284576,0.147223,-0.103889,2025-03-21T00:41:54Z
54,257.551859,0.308124,7.258975,44.94006,284.961859,90.339111,2.003871,3,-93.16989,10.568548,2025-03-21T00:41:56Z,-0.280704,-0.959779,0.006729,2025-03-21T00:41:55Z,-0.291657,0.07273,-0.013941,2025-03-21T00:41:55Z
55,257.725068,0.32435,7.258806,44.940059,285.135068,90.187958,2.002151,3,-93.169759,10.265721,2025-03-21T00:41:57Z,-0.269217,-0.961609,-0.006453,2025-03-21T00:41:56Z,-0.182049,0.07124,-0.086657,2025-03-21T00:41:56Z
56,257.861908,0.328701,7.258569,44.940058,285.271908,90.187958,2.001212,3,-93.16963,10.177131,2025-03-21T00:41:58Z,-0.223795,-0.974379,0.018994,2025-03-21T00:41:57Z,0.270389,-0.066106,0.174214,2025-03-21T00:41:57Z
57,257.925983,0.319061,7.25878,44.940059,285.335983,90.187958,2.000687,3,-93.169498,10.318511,2025-03-21T00:41:59Z,-0.207455,-0.978927,-5.84e-4,2025-03-21T00:41:58Z,0.40417,-0.098485,0.072908,2025-03-21T00:41:58Z
58,258.309607,0.347703,7.257413,44.940058,285.719607,90.375923,2.000384,3,-93.16936,10.821621,2025-03-21T00:42:00Z,-0.196819,-0.988474,0.00229,2025-03-21T00:41:59Z,0.394339,-0.171394,0.013318,2025-03-21T00:41:59Z
59,258.609599,0.349411,7.257909,44.940057,286.019599,90.460709,2.000212,3,-93.169219,11.019486,2025-03-21T00:42:01Z,-0.238206,-0.967089,7.13e-4,2025-03-21T00:42:00Z,-0.06132,0.052969,0.019111,2025-03-21T00:42:00Z
60,258.995089,0.339446,7.257813,44.940057,286.405089,90.460709,2.000116,3,-93.169082,10.702901,2025-03-21T00:42:02Z,-0.275663,-0.961706,-0.002032,2025-03-21T00:42:01Z,-0.429738,0.108263,-0.038338,2025-03-21T00:42:01Z
61,259.361911,0.33144,7.258184,44.940057,286.771911,90.460709,2.000064,3,-93.168953,10.281429,2025-03-21T00:42:03Z,-0.274481,-0.9694,-0.011818,2025-03-21T00:42:02Z,-0.381935,0.027334,-0.148165,2025-03-21T00:42:02Z
62,259.649783,0.351377,7.257892,44.940056,287.059783,90.150795,2.000036,3,-93.168827,9.879541,2025-03-21T00:42:04Z,-0.268198,-0.952733,-0.009812,2025-03-21T00:42:03Z,-0.339523,0.193194,-0.076763,2025-03-21T00:42:03Z
63,259.979819,0.349813,7.257931,44.940056,287.389819,90.150795,2.000021,3,-93.16871,9.37169,2025-03-21T00:42:05Z,-0.272699,-0.959146,-0.009795,2025-03-21T00:42:04Z,-0.31779,0.114266,-0.082866,2025-03-21T00:42:04Z
64,260.212059,0.35239,7.257665,44.940056,287.622059,90.150795,2.000012,3,-93.168597,8.942044,2025-03-21T00:42:06Z,-0.26847,-0.961221,-0.004996,2025-03-21T00:42:05Z,-0.255808,0.086133,-0.04011,2025-03-21T00:42:05Z
65,260.428604,0.347265,7.257796,44.940056,287.838604,90.150795,2.000007,3,-93.168489,8.578075,2025-03-21T00:42:07Z,-0.269638,-0.963135,-0.002924,2025-03-21T00:42:06Z,-0.243344,0.060962,-0.050541,2025-03-21T00:42:06Z
66,260.724483,0.354491,7.257325,44.940057,288.134483,90.143547,2.000004,3,-93.168386,8.173865,2025-03-21T00:42:08Z,-0.243959,-0.969105,0.006047,2025-03-21T00:42:07Z,0.035676,-4.54e-4,0.059831,2025-03-21T00:42:07Z
67,261.052184,0.351686,7.25645,44.940056,288.462184,90.143547,2.000003,3,-93.168281,8.388048,2025-03-21T00:42:09Z,-0.16459,-0.990172,0.022847,2025-03-21T00:42:08Z,0.754945,-0.195294,0.203684,2025-03-21T00:42:08Z
68,261.338697,0.351004,7.256539,44.940056,288.748697,90.143547,2.000002,3,-93.168169,8.859988,2025-03-21T00:42:10Z,-0.219385,-0.969132,0.003168,2025-03-21T00:42:09Z,0.20641,0.018015,0.040157,2025-03-21T00:42:09Z
69,261.515621,0.335096,7.25759,44.940053,288.92562,90.143547,2.000001,3,-93.168054,8.824321,2025-03-21T00:42:11Z,-0.267309,-0.962696,-0.010406,2025-03-21T00:42:10Z,-0.231457,0.067611,-0.098311,2025-03-21T00:42:10Z
70,261.769783,0.338995,7.257205,44.940054,289.179783,90.143547,2.000001,3,-93.167952,8.317475,2025-03-21T00:42:12Z,-0.282794,-0.956464,-0.009344,2025-03-21T00:42:11Z,-0.351094,0.124008,-0.106164,2025-03-21T00:42:11Z
71,261.991185,0.366666,7.257184,44.940054,289.401185,89.802124,2.000001,3,-93.167855,7.792568,2025-03-21T00:42:13Z,-0.271613,-0.96454,-0.008139,2025-03-21T00:42:12Z,-0.280627,0.055217,-0.029753,2025-03-21T00:42:12Z
72,262.245415,0.383164,7.256167,44.940055,289.655415,89.802124,2.070355,3,-93.167764,7.263249,2025-03-21T00:42:14Z,-0.268568,-0.95801,-0.015843,2025-03-21T00:42:13Z,-0.252859,0.115207,-0.066303,2025-03-21T00:42:13Z
73,262.420305,0.369639,7.256866,44.940055,289.830305,89.802124,2.049868,3,-93.16768,6.788626,2025-03-21T00:42:15Z,-0.267973,-0.963466,-0.012269,2025-03-21T00:42:14Z,-0.197186,0.05576,-0.021727,2025-03-21T00:42:14Z
74,262.618911,0.302031,7.235215,44.940056,290.028911,89.802124,2.03602,3,-93.1676,6.394728,2025-03-21T00:42:16Z,-0.262554,-0.961662,-0.012493,2025-03-21T00:42:15Z,-0.12418,0.062879,-0.012695,2025-03-21T00:42:15Z
75,262.739874,0.248307,7.228669,44.940057,290.149874,89.802124,2.044499,3,-93.167523,6.044555,2025-03-21T00:42:17Z,-0.27501,-0.96091,-0.010289,2025-03-21T00:42:16Z,-0.195573,0.060459,-0.047143,2025-03-21T00:42:16Z
76,262.801692,0.21108,7.706085,44.940057,290.211692,89.613388,2.167205,3,-93.167453,5.506479,2025-03-21T00:42:18Z,-0.30156,-0.955601,-0.027554,2025-03-21T00:42:17Z,-0.466624,0.11235,-0.144053,2025-03-21T00:42:17Z
77,262.960115,0.232108,11.200929,44.940057,290.370114,89.613388,2.143319,3,-93.167392,4.775162,2025-03-21T00:42:19Z,-0.312598,-0.945513,-0.029651,2025-03-21T00:42:18Z,-0.530357,0.200521,-0.14771,2025-03-21T00:42:18Z
78,263.000023,0.338364,14.455372,44.940057,290.410023,89.613388,2.125404,3,-93.167344,3.826664,2025-03-21T00:42:20Z,-0.346223,-0.94064,-0.032736,2025-03-21T00:42:19Z,-0.818075,0.233713,-0.149109,2025-03-21T00:42:19Z
79,263.072318,0.400602,16.555171,44.940058,290.482318,89.613388,2.11147,3,-93.167312,2.621559,2025-03-21T00:42:21Z,-0.343607,-0.938456,-0.040233,2025-03-21T00:42:20Z,-0.683215,0.227385,-0.175117,2025-03-21T00:42:20Z
80,263.126438,0.370319,18.327098,44.940059,290.536437,89.613388,2.26793,3,-93.16729,1.667215,2025-03-21T00:42:22Z,-0.321044,-0.95029,-0.032161,2025-03-21T00:42:21Z,-0.391984,0.090108,-0.087615,2025-03-21T00:42:21Z
81,NA,NA,NA,NA,NA,NA,NA,NA,NA,NA,NA,-0.314901,-0.952985,-0.024537,2025-03-21T00:42:22Z,-0.316274,0.053881,0.002878,2025-03-21T00:42:22Z
