seconds_elapsed,location_altitude,location_speedAccuracy,location_bearingAccuracy,location_latitude,location_altitudeAboveMeanSeaLevel,location_bearing,location_horizontalAccuracy,location_verticalAccuracy,location_longitude,location_speed,location_local_time,accelerometerUncalibrated_z,accelerometerUncalibrated_y,accelerometerUncalibrated_x,accelerometerUncalibrated_local_time,accelerometer_z,accelerometer_y,accelerometer_x,accelerometer_local_time
0,262.793853,0.662698,7.685838,44.934343,290.203852,46.713003,2.016669,3,-93.166997,6.983446,2025-03-21T00:08:16Z,-0.327064,-0.942971,0.246837,2025-03-21T00:08:16Z,-0.541323,0.154943,1.650312,2025-03-21T00:08:16Z
1,262.937491,0.678601,8.141597,44.934407,290.347491,23.341748,2.01181,3,-93.166975,6.745614,2025-03-21T00:08:17Z,-0.180906,-0.982265,0.133984,2025-03-21T00:08:17Z,0.675214,-0.161623,0.614571,2025-03-21T00:08:17Z
2,262.195653,0.711023,8.046405,44.934475,289.605653,5.531293,2.008522,3,-93.16698,7.140497,2025-03-21T00:08:18Z,-0.163375,-0.991745,0.04674,2025-03-21T00:08:18Z,0.751906,-0.227019,-0.154725,2025-03-21T00:08:18Z
3,262.688867,0.686307,7.258905,44.934553,290.098866,0.150169,2.006274,3,-93.166991,8.263071,2025-03-21T00:08:19Z,-0.180512,-0.991797,0.022588,2025-03-21T00:08:19Z,0.544842,-0.220263,-0.417154,2025-03-21T00:08:19Z
4,262.733559,0.668327,7.258705,44.934642,290.143559,359.502319,2.004301,3,-93.166989,9.346515,2025-03-21T00:08:20Z,-0.188465,-0.981832,0.027823,2025-03-21T00:08:20Z,0.457225,-0.118205,-0.443963,2025-03-21T00:08:20Z
5,262.738503,0.663299,7.258961,44.934736,290.148503,359.502319,2.257862,3,-93.166989,10.073346,2025-03-21T00:08:21Z,-0.189296,-0.98351,0.046461,2025-03-21T00:08:21Z,0.426793,-0.147088,-0.345885,2025-03-21T00:08:21Z
6,262.842785,0.678799,7.258368,44.934835,290.252784,0,2.154127,3,-93.16699,10.726144,2025-03-21T00:08:22Z,-0.188472,-0.983711,0.047037,2025-03-21T00:08:22Z,0.403713,-0.13671,-0.36607,2025-03-21T00:08:22Z
7,262.538751,0.669893,7.258287,44.934943,289.94875,0,3.20251,3,-93.166986,11.60141,2025-03-21T00:08:23Z,-0.195625,-0.984841,0.03948,2025-03-21T00:08:23Z,0.325186,-0.144859,-0.437472,2025-03-21T00:08:23Z
8,262.846376,0.656364,7.258964,44.935048,290.256376,0,2.675276,3,-93.16699,11.776129,2025-03-21T00:08:24Z,-0.194628,-0.971518,0.036785,2025-03-21T00:08:24Z,0.278527,-0.001233,-0.433489,2025-03-21T00:08:24Z
9,262.54736,0.795354,7.258892,44.935148,289.95736,0,2.46304,3,-93.166989,11.477828,2025-03-21T00:08:25Z,-0.2008,-0.983428,0.035698,2025-03-21T00:08:25Z,0.258079,-0.131656,-0.459807,2025-03-21T00:08:25Z
10,262.441625,0.732379,7.258852,44.935278,289.851625,0,3.421869,3,-93.166947,12.982801,2025-03-21T00:08:26Z,-0.207452,-0.983048,0.055988,2025-03-21T00:08:26Z,0.090153,-0.106516,-0.378163,2025-03-21T00:08:26Z
11,263.515015,1.740249,9.686476,44.935426,290.925015,0,2.825656,3,-93.16699,14.543385,2025-03-21T00:08:27Z,-0.209741,-0.977594,0.044036,2025-03-21T00:08:27Z,0.060143,-0.047667,-0.423896,2025-03-21T00:08:27Z
12,263.606704,1.709602,9.689943,44.935552,291.016704,0,2.915502,3,-93.166989,14.292284,2025-03-21T00:08:28Z,-0.218617,-0.968598,0.052766,2025-03-21T00:08:28Z,-0.027786,0.041486,-0.328702,2025-03-21T00:08:28Z
13,263.575104,1.711434,9.367413,44.935688,290.985104,0,3.248982,3,-93.166989,14.803882,2025-03-21T00:08:29Z,-0.21702,-0.979587,0.043633,2025-03-21T00:08:29Z,-0.043045,-0.060954,-0.394333,2025-03-21T00:08:29Z
14,263.712463,1.709273,9.030311,44.935828,291.122463,0.230498,2.778161,3,-93.16699,15.337178,2025-03-21T00:08:30Z,-0.230866,-0.971801,0.032792,2025-03-21T00:08:30Z,-0.216128,0.036,-0.347737,2025-03-21T00:08:30Z
15,263.801435,1.689351,8.70987,44.935971,291.211435,0.230498,2.344471,3,-93.166992,15.715941,2025-03-21T00:08:31Z,-0.220705,-0.966425,0.026707,2025-03-21T00:08:31Z,-0.146829,0.098585,-0.328385,2025-03-21T00:08:31Z
16,263.82116,1.675276,8.462731,44.936117,291.23116,0.230498,3.484812,3,-93.166991,16.040284,2025-03-21T00:08:32Z,-0.241004,-0.979811,1.07e-4,2025-03-21T00:08:32Z,-0.333038,-0.029145,-0.497954,2025-03-21T00:08:32Z
17,264.086778,1.711438,8.6044,44.936261,291.496777,359.878601,3.266617,3,-93.166996,16.116708,2025-03-21T00:08:33Z,-0.233298,-0.972628,0.00981,2025-03-21T00:08:33Z,-0.268083,0.039983,-0.442587,2025-03-21T00:08:33Z
18,264.279071,1.656607,8.217925,44.936409,291.689071,359.878601,2.538472,3,-93.166997,16.332905,2025-03-21T00:08:34Z,-0.222352,-0.964252,0.025886,2025-03-21T00:08:34Z,-0.129193,0.120095,-0.316627,2025-03-21T00:08:34Z
19,264.56849,1.669451,8.162102,44.936559,291.97849,359.878601,2.225073,3,-93.166994,16.571461,2025-03-21T00:08:35Z,-0.235674,-0.975712,0.038092,2025-03-21T00:08:35Z,-0.224196,-0.009043,-0.218626,2025-03-21T00:08:35Z
20,264.679522,1.663795,7.999377,44.936711,292.089522,0.133631,2.1518640000000002,3,-93.166993,16.851099,2025-03-21T00:08:37Z,-0.234129,-0.977925,0.032598,2025-03-21T00:08:36Z,-0.220039,-0.015127,-0.201871,2025-03-21T00:08:36Z
21,264.876526,1.659214,7.839028,44.936865,292.286526,0.133631,2.061969,3,-93.166993,17.148104,2025-03-21T00:08:38Z,-0.240169,-0.96792,0.008803,2025-03-21T00:08:37Z,-0.317777,0.08749,-0.308696,2025-03-21T00:08:37Z
22,265.118214,1.656815,7.757143,44.93702,292.528214,0.679104,2.240168,3,-93.166995,17.301872,2025-03-21T00:08:39Z,-0.260103,-0.969402,0.021628,2025-03-21T00:08:38Z,-0.421238,0.051879,-0.26607,2025-03-21T00:08:38Z
23,265.224682,1.656689,7.772433,44.937174,292.634682,359.884857,2.095668,3,-93.166994,17.268746,2025-03-21T00:08:40Z,-0.250638,-0.964111,0.038273,2025-03-21T00:08:39Z,-0.308545,0.103237,-0.201406,2025-03-21T00:08:39Z
24,265.32893,1.667814,8.060791,44.937318,292.73893,359.884857,2.039904,3,-93.166996,16.761467,2025-03-21T00:08:41Z,-0.270796,-0.96169,0.039059,2025-03-21T00:08:40Z,-0.485766,0.115275,-0.162045,2025-03-21T00:08:40Z
25,265.488355,1.669078,8.053489,44.937472,292.898355,359.884857,2.016082,3,-93.166998,16.788617,2025-03-21T00:08:42Z,-0.291283,-0.955653,0.020671,2025-03-21T00:08:41Z,-0.642332,0.168625,-0.314364,2025-03-21T00:08:41Z
26,265.815412,1.655755,8.018802,44.937627,293.225412,0.565792,2.359819,3,-93.167002,16.726953,2025-03-21T00:08:43Z,-0.297176,-0.952547,0.005313,2025-03-21T00:08:42Z,-0.658843,0.195105,-0.367378,2025-03-21T00:08:42Z
27,265.913467,1.675796,8.347339,44.937776,293.323467,0,2.225519,3,-93.167,16.263414,2025-03-21T00:08:44Z,-0.276999,-0.955585,0.015039,2025-03-21T00:08:43Z,-0.440583,0.162846,-0.208361,2025-03-21T00:08:43Z
28,266.245213,1.676085,8.444988,44.937923,293.655213,0,2.093767,3,-93.166999,16.079383,2025-03-21T00:08:45Z,-0.283272,-0.925711,0.014697,2025-03-21T00:08:44Z,-0.362116,0.419353,-0.127354,2025-03-21T00:08:44Z
29,265.910245,1.678928,8.552809,44.938066,293.320245,0,2.545937,3,-93.166998,15.904324,2025-03-21T00:08:46Z,-0.310607,-0.946604,0.016412,2025-03-21T00:08:45Z,-0.519743,0.183568,-0.181086,2025-03-21T00:08:45Z
30,265.722699,1.705012,8.87679,44.938206,293.132699,0,2.235469,3,-93.166998,15.558943,2025-03-21T00:08:47Z,-0.310314,-0.958528,0.009478,2025-03-21T00:08:46Z,-0.52109,0.075709,-0.252224,2025-03-21T00:08:46Z
31,265.392827,1.692579,8.988551,44.938342,292.802827,0.435833,2.103967,3,-93.166999,15.253717,2025-03-21T00:08:48Z,-0.284523,-0.952276,0.021479,2025-03-21T00:08:47Z,-0.250685,0.122738,-0.173806,2025-03-21T00:08:47Z
32,265.288138,1.698816,9.166591,44.938478,292.698138,0.435833,2.046042,3,-93.166998,15.012618,2025-03-21T00:08:49Z,-0.271852,-0.959459,0.030128,2025-03-21T00:08:48Z,-0.119663,0.047095,-0.088231,2025-03-21T00:08:48Z
33,265.109449,1.673312,9.030769,44.938613,292.519449,0.435833,2.020901,3,-93.166999,15.00943,2025-03-21T00:08:50Z,-0.270542,-0.959356,0.029865,2025-03-21T00:08:49Z,-0.091522,0.054264,-0.08394,2025-03-21T00:08:49Z
34,264.970265,1.706992,9.183032,44.938748,292.380265,0.435833,2.009412,3,-93.166999,15.057955,2025-03-21T00:08:51Z,-0.301302,-0.958264,0.014252,2025-03-21T00:08:50Z,-0.373603,0.05995,-0.199776,2025-03-21T00:08:50Z
35,264.811976,1.698136,9.193355,44.938882,292.221976,0.435833,2.004261,3,-93.167001,14.963598,2025-03-21T00:08:52Z,-0.311007,-0.953105,0.001581,2025-03-21T00:08:51Z,-0.519049,0.123609,-0.185226,2025-03-21T00:08:51Z
36,264.710611,1.693802,9.357644,44.939015,292.12061,0.283029,2.001923,3,-93.167001,14.664602,2025-03-21T00:08:53Z,-0.314436,-0.940675,-0.005357,2025-03-21T00:08:52Z,-0.485849,0.222959,-0.179571,2025-03-21T00:08:52Z
37,264.317686,1.741953,9.891508,44.93914,291.727685,0.225605,2.0009,3,-93.167001,14.262702,2025-03-21T00:08:54Z,-0.410289,-0.922888,-0.016243,2025-03-21T00:08:53Z,-1.325508,0.382021,-0.390807,2025-03-21T00:08:53Z
38,264.062549,1.74185,10.389076,44.939263,291.472549,0.225605,2.000422,3,-93.167001,13.576228,2025-03-21T00:08:55Z,-0.474517,-0.906036,-0.047971,2025-03-21T00:08:54Z,-1.904268,0.522662,-0.662397,2025-03-21T00:08:54Z
39,263.983077,1.788601,12.228572,44.939368,291.393076,359.584412,2.000207,3,-93.167,11.845856,2025-03-21T00:08:56Z,-0.407003,-0.92358,-0.026577,2025-03-21T00:08:55Z,-1.144701,0.32721,-0.40389,2025-03-21T00:08:55Z
40,263.886629,1.839021,14.748693,44.939455,291.296629,0,2.00011,3,-93.167,10.056793,2025-03-21T00:08:57Z,-0.412083,-0.921254,-0.022585,2025-03-21T00:08:56Z,-1.007324,0.293483,-0.297736,2025-03-21T00:08:56Z
41,263.760073,1.926029,17.510951,44.93953,291.170073,0,2.124841,3,-93.167001,8.837094,2025-03-21T00:08:58Z,-0.424663,-0.92048,-0.024337,2025-03-21T00:08:57Z,-1.033605,0.262765,-0.266158,2025-03-21T00:08:57Z
42,263.718042,1.999069,21.528324,44.939596,291.128042,0,2.413376,3,-93.167001,7.467018,2025-03-21T00:08:59Z,-0.411025,-0.926784,-0.017361,2025-03-21T00:08:58Z,-0.891812,0.20107,-0.238761,2025-03-21T00:08:58Z
43,263.641377,2.108126,27.995884,44.939647,291.051377,359.6922,2.291905,3,-93.167001,6.056586,2025-03-21T00:09:00Z,-0.401708,-0.923607,-0.008691,2025-03-21T00:08:59Z,-0.791897,0.231289,-0.199503,2025-03-21T00:08:59Z
44,263.655906,2.234003,37.252204,44.939689,291.065906,359.6922,2.297923,3,-93.167001,4.809319,2025-03-21T00:09:01Z,-0.380664,-0.932379,-0.012148,2025-03-21T00:09:00Z,-0.569079,0.138341,-0.193373,2025-03-21T00:09:00Z
45,263.573335,2.444945,52.018957,44.939719,290.983335,359.6922,2.244537,3,-93.167002,3.618697,2025-03-21T00:09:02Z,-0.36975,-0.934065,-0.006989,2025-03-21T00:09:01Z,-0.446896,0.115691,-0.134843,2025-03-21T00:09:01Z
46,263.639386,2.551254,75.264152,44.93974,291.049386,359.6922,2.203781,3,-93.167002,2.637848,2025-03-21T00:09:03Z,-0.340131,-0.943151,0.001124,2025-03-21T00:09:02Z,-0.141051,0.02313,-0.052904,2025-03-21T00:09:02Z
47,263.660698,2.571485,113.692704,44.939755,291.070697,359.6922,2.174669,3,-93.167003,1.790178,2025-03-21T00:09:04Z,-0.31535,-0.950733,0.006194,2025-03-21T00:09:03Z,0.102962,-0.051323,0.001127,2025-03-21T00:09:03Z
48,263.664473,3.599913,180,44.939765,291.074473,359.6922,2.322842,3,-93.167003,1.198577,2025-03-21T00:09:05Z,-0.318758,-0.948465,0.006054,2025-03-21T00:09:04Z,0.06543,-0.029151,-0.001488,2025-03-21T00:09:04Z
49,263.72783,3.716405,180,44.939772,291.13783,359.6922,2.346249,3,-93.167004,0.805587,2025-03-21T00:09:06Z,-0.322663,-0.948032,0.005089,2025-03-21T00:09:05Z,0.047581,-0.029341,7.42e-4,2025-03-21T00:09:05Z
50,263.796201,3.744135,180,44.939776,291.2062,359.6922,2.311624,3,-93.167005,0.355515,2025-03-21T00:09:07Z,-0.277119,-0.959485,0.016743,2025-03-21T00:09:06Z,0.496813,-0.145479,0.116345,2025-03-21T00:09:06Z
51,263.811819,3.756161,180,44.939776,291.221819,359.6922,2.418239,3,-93.167004,0,2025-03-21T00:09:08Z,-0.277304,-0.959951,0.016366,2025-03-21T00:09:07Z,0.497707,-0.151682,0.117297,2025-03-21T00:09:07Z
52,263.822805,3.743699,180,44.939777,291.232805,359.6922,2.507659,3,-93.167003,0.017125,2025-03-21T00:09:09Z,-0.272904,-0.961169,0.019075,2025-03-21T00:09:08Z,0.546452,-0.162993,0.138581,2025-03-21T00:09:08Z
53,263.84025,3.746059,180,44.939777,291.25025,359.6922,2.636194,3,-93.167003,0,2025-03-21T00:09:10Z,-0.219789,-0.974961,0.032107,2025-03-21T00:09:09Z,1.043329,-0.288528,0.26142,2025-03-21T00:09:09Z
54,263.736342,3.749145,180,44.939776,291.146342,359.6922,2.677978,3,-93.167003,0.211833,2025-03-21T00:09:11Z,-0.165943,-0.988081,0.048262,2025-03-21T00:09:10Z,1.501847,-0.398831,0.403757,2025-03-21T00:09:10Z
55,263.832913,3.742685,180,44.939784,291.242913,359.6922,2.687634,3,-93.167002,0.822481,2025-03-21T00:09:12Z,-0.109664,-1.003309,0.062461,2025-03-21T00:09:11Z,1.950655,-0.511435,0.507794,2025-03-21T00:09:11Z
56,263.919676,3.114214,109.999861,44.939808,291.329676,0,2.765547,3,-93.167002,2.293875,2025-03-21T00:09:13Z,-0.164661,-0.991375,0.050916,2025-03-21T00:09:12Z,1.377207,-0.384791,0.36483,2025-03-21T00:09:12Z
57,263.853203,2.391125,51.686692,44.939847,291.263203,0,2.76294,3,-93.167002,3.742969,2025-03-21T00:09:14Z,-0.183491,-0.981889,0.045367,2025-03-21T00:09:13Z,1.123919,-0.269617,0.273894,2025-03-21T00:09:13Z
58,263.811143,2.250859,36.906651,44.939894,291.221143,0,2.720554,3,-93.167003,4.914724,2025-03-21T00:09:15Z,-0.215454,-0.981428,0.039398,2025-03-21T00:09:14Z,0.732744,-0.242917,0.209335,2025-03-21T00:09:14Z
59,263.737232,2.17029,29.732909,44.939948,291.147232,0,2.68263,3,-93.167003,5.811625,2025-03-21T00:09:16Z,-0.231569,-0.975449,0.017145,2025-03-21T00:09:15Z,0.445829,-0.140546,0.062221,2025-03-21T00:09:15Z
60,263.727358,2.109446,26.915918,44.940007,291.137358,0,2.692289,3,-93.167003,6.326446,2025-03-21T00:09:17Z,-0.28581,-0.959445,-0.001268,2025-03-21T00:09:16Z,-0.192816,0.039791,-0.063175,2025-03-21T00:09:16Z
61,263.712825,2.077661,25.844394,44.940068,291.122825,0,2.632313,3,-93.167002,6.507654,2025-03-21T00:09:18Z,-0.216522,-0.969665,0.013031,2025-03-21T00:09:17Z,0.414339,-0.034168,0.086979,2025-03-21T00:09:17Z
62,263.73336,2.088836,26.545456,44.940124,291.14336,0,2.568487,3,-93.167001,6.372121,2025-03-21T00:09:19Z,-0.193016,-0.976096,0.02482,2025-03-21T00:09:18Z,0.704753,-0.11203,0.175925,2025-03-21T00:09:18Z
63,263.652917,2.051232,23.020858,44.94019,291.062916,0.195513,2.521262,3,-93.167,7.123391,2025-03-21T00:09:20Z,-0.225594,-0.973728,0.040428,2025-03-21T00:09:19Z,0.431333,-0.113256,0.181296,2025-03-21T00:09:19Z
64,263.548568,1.999083,19.894218,44.940262,290.958568,0.195513,2.431908,3,-93.166999,7.983561,2025-03-21T00:09:21Z,-0.280278,-0.961378,0.024864,2025-03-21T00:09:20Z,-0.111782,0.013369,-0.02488,2025-03-21T00:09:20Z
65,263.460985,1.965127,19.355873,44.940335,290.870985,0.195513,2.3281520000000002,3,-93.166998,8.157493,2025-03-21T00:09:22Z,-0.282982,-0.958618,0.023307,2025-03-21T00:09:21Z,-0.200014,0.062029,-0.042906,2025-03-21T00:09:21Z
66,263.262616,1.991823,19.281862,44.940408,290.672616,0.195513,2.433921,3,-93.166995,8.138532,2025-03-21T00:09:23Z,-0.359737,-0.937052,-0.001094,2025-03-21T00:09:22Z,-0.954256,0.265924,-0.258794,2025-03-21T00:09:22Z
67,263.189854,2.056015,20.235152,44.940478,290.599854,0.195513,2.676791,3,-93.166993,7.734489,2025-03-21T00:09:24Z,-0.360502,-0.942617,-0.003579,2025-03-21T00:09:23Z,-0.94359,0.212713,-0.270678,2025-03-21T00:09:23Z
68,263.316111,2.16622,23.356305,44.940539,290.726111,0.195513,2.799023,3,-93.166991,6.843019,2025-03-21T00:09:25Z,-0.29393,-0.954219,0.021195,2025-03-21T00:09:24Z,-0.283387,0.09089,-0.074148,2025-03-21T00:09:24Z
69,263.512906,2.256439,26.059708,44.940596,290.922905,0.195513,3.460623,3.280951,-93.166989,6.232393,2025-03-21T00:09:26Z,-0.266725,-0.958123,0.026524,2025-03-21T00:09:25Z,-0.025907,0.063682,0.006819,2025-03-21T00:09:25Z
70,263.669183,2.116745,27.704368,44.940653,291.079183,0.195513,3.417442,3.24844,-93.166988,6.110333,2025-03-21T00:09:27Z,-0.205499,-0.980079,0.053651,2025-03-21T00:09:26Z,0.601778,-0.167214,0.21491,2025-03-21T00:09:26Z
71,263.614486,2.102002,26.17687,44.940711,291.024486,359.438263,3.405113,3.21198,-93.166988,6.42339,2025-03-21T00:09:28Z,-0.219196,-0.968701,0.061084,2025-03-21T00:09:27Z,0.488552,-0.061153,0.261181,2025-03-21T00:09:27Z
72,263.692491,2.015103,22.818234,44.940779,291.102491,359.438263,3.351178,3.114816,-93.166989,7.138605,2025-03-21T00:09:29Z,-0.232213,-0.975222,0.068521,2025-03-21T00:09:28Z,0.344615,-0.121756,0.298636,2025-03-21T00:09:28Z
73,263.534462,2.0082,20.94702,44.94085,290.944462,359.107117,3.039391,3,-93.166994,7.741092,2025-03-21T00:09:30Z,-0.284957,-0.95459,0.071909,2025-03-21T00:09:29Z,-0.194129,0.087466,0.290689,2025-03-21T00:09:29Z
74,263.461322,1.966265,19.863658,44.940923,290.871321,359.107117,2.755106,3,-93.167,8.012632,2025-03-21T00:09:31Z,-0.287259,-0.956281,0.013594,2025-03-21T00:09:30Z,-0.182397,0.062528,-0.14129,2025-03-21T00:09:30Z
75,263.209979,1.982749,19.863466,44.940994,290.619979,359.107117,2.538272,3,-93.167012,7.981921,2025-03-21T00:09:32Z,-0.284551,-0.958353,-0.004823,2025-03-21T00:09:31Z,-0.21563,0.063394,-0.259094,2025-03-21T00:09:31Z
76,263.064072,1.973846,20.245088,44.941066,290.474072,0.206416,2.364512,3,-93.166993,7.878964,2025-03-21T00:09:33Z,-0.305407,-0.95302,-0.030684,2025-03-21T00:09:32Z,-0.412318,0.115934,-0.440097,2025-03-21T00:09:32Z
77,262.839954,1.982326,20.82836,44.941135,290.249953,0.206416,2.248776,3,-93.166993,7.676977,2025-03-21T00:09:34Z,-0.368903,-0.935545,-0.037176,2025-03-21T00:09:33Z,-1.030816,0.27704,-0.404527,2025-03-21T00:09:33Z
