seconds_elapsed,location_altitude,location_speedAccuracy,location_bearingAccuracy,location_latitude,location_altitudeAboveMeanSeaLevel,location_bearing,location_horizontalAccuracy,location_verticalAccuracy,location_longitude,location_speed,location_local_time,accelerometerUncalibrated_z,accelerometerUncalibrated_y,accelerometerUncalibrated_x,accelerometerUncalibrated_local_time,accelerometer_z,accelerometer_y,accelerometer_x,accelerometer_local_time
0.000000,254.375965,0.977412,180.000000,44.941285,281.785965,109.138036,5.193365,3.415792,-93.174003,0.000000,2025-03-27T21:44:40.000-05:00,-0.206883,-0.978615,0.007668,2025-03-27T21:44:39.922-05:00,0.123153,-0.029460,0.042473,2025-03-27T21:44:39.930-05:00
1.000000,254.375965,0.921562,180.000000,44.941285,281.785965,109.138036,5.153049,3.420060,-93.174003,0.000000,2025-03-27T21:44:41.000-05:00,-0.182742,-0.984379,0.014816,2025-03-27T21:44:40.907-05:00,0.337829,-0.082659,0.129796,2025-03-27T21:44:40.915-05:00
2.000000,254.375965,1.289461,180.000000,44.941285,281.785965,109.138036,5.040157,3.497407,-93.174003,0.000000,2025-03-27T21:44:42.000-05:00,-0.116621,-1.001623,0.019782,2025-03-27T21:44:41.912-05:00,0.941215,-0.239005,0.273736,2025-03-27T21:44:41.910-05:00
3.000000,254.375965,3.752680,180.000000,44.941285,281.785965,109.138036,4.933673,3.486745,-93.174003,0.000000,2025-03-27T21:44:43.000-05:00,-0.104792,-1.002620,-0.016635,2025-03-27T21:44:42.907-05:00,1.084996,-0.259604,0.039910,2025-03-27T21:44:42.914-05:00
4.000000,254.375965,3.916912,180.000000,44.941285,281.785965,109.138036,4.860495,3.537664,-93.174003,0.000000,2025-03-27T21:44:44.000-05:00,-0.120108,-0.997764,-0.014969,2025-03-27T21:44:43.912-05:00,0.935108,-0.211532,0.146400,2025-03-27T21:44:43.909-05:00
5.000000,253.901001,2.721717,69.322650,44.941287,281.311001,86.152853,4.750432,3.580612,-93.173921,3.179469,2025-03-27T21:44:45.000-05:00,-0.125932,-1.000255,-0.024938,2025-03-27T21:44:44.907-05:00,0.816354,-0.217344,0.112941,2025-03-27T21:44:44.914-05:00
6.000000,253.937601,2.712414,53.852256,44.941286,281.347601,87.100964,4.530230,3.572134,-93.173867,4.048433,2025-03-27T21:44:46.000-05:00,-0.139597,-0.990806,-0.027476,2025-03-27T21:44:45.912-05:00,0.647144,-0.136898,0.119097,2025-03-27T21:44:45.909-05:00
7.000000,254.096427,2.713975,43.480685,44.941289,281.506427,87.509251,4.335597,3.418716,-93.173798,5.018529,2025-03-27T21:44:47.000-05:00,-0.143620,-0.990114,-0.061009,2025-03-27T21:44:46.907-05:00,0.539500,-0.110094,-0.062639,2025-03-27T21:44:46.914-05:00
8.000000,254.026515,2.695751,37.333503,44.941292,281.436515,87.142167,4.168769,3.225915,-93.173720,5.844209,2025-03-27T21:44:48.000-05:00,-0.153735,-0.989734,-0.043742,2025-03-27T21:44:47.912-05:00,0.449876,-0.114905,0.111212,2025-03-27T21:44:47.909-05:00
9.000000,254.191711,2.712953,33.443991,44.941294,281.601711,87.813754,4.004677,3.000000,-93.173633,6.567800,2025-03-27T21:44:49.000-05:00,-0.159978,-0.994003,-0.081782,2025-03-27T21:44:48.916-05:00,0.275977,-0.156935,-0.158726,2025-03-27T21:44:48.914-05:00
10.000000,254.250038,2.697228,30.327615,44.941298,281.660038,86.943850,3.974513,3.016677,-93.173538,7.203426,2025-03-27T21:44:50.000-05:00,-0.164343,-0.980350,-0.042730,2025-03-27T21:44:49.911-05:00,0.267675,0.025915,0.114619,2025-03-27T21:44:49.909-05:00
11.000000,254.408905,2.713918,28.903751,44.941301,281.818905,87.600056,3.628722,3.000000,-93.173442,7.604062,2025-03-27T21:44:51.000-05:00,-0.170731,-0.983849,-0.053037,2025-03-27T21:44:50.916-05:00,0.241748,-0.088858,-0.043038,2025-03-27T21:44:50.914-05:00
12.000000,254.758486,2.706899,26.344402,44.941295,282.168486,90.552807,3.374057,3.000000,-93.173328,8.320379,2025-03-27T21:44:52.000-05:00,-0.178797,-0.983960,-0.056039,2025-03-27T21:44:51.911-05:00,0.090223,0.003621,0.016457,2025-03-27T21:44:51.909-05:00
13.000000,254.771767,2.703812,24.343221,44.941295,282.181766,91.129979,2.930021,3.000000,-93.173207,8.997351,2025-03-27T21:44:53.000-05:00,-0.190649,-0.980957,-0.026231,2025-03-27T21:44:52.916-05:00,-0.073487,-0.001728,0.097875,2025-03-27T21:44:52.914-05:00
14.000000,254.558604,2.701854,23.025987,44.941298,281.968603,90.251913,2.586750,3.000000,-93.173082,9.507447,2025-03-27T21:44:54.000-05:00,-0.231216,-0.973326,-0.054157,2025-03-27T21:44:53.911-05:00,-0.465823,0.084916,-0.073112,2025-03-27T21:44:53.908-05:00
15.000000,254.673023,2.702573,22.099089,44.941300,282.083023,89.181235,2.451972,3.000000,-93.172952,9.909019,2025-03-27T21:44:55.000-05:00,-0.257611,-0.960709,-0.053690,2025-03-27T21:44:54.916-05:00,-0.573211,0.207414,-0.107840,2025-03-27T21:44:54.913-05:00
16.000000,255.006408,2.703883,22.277540,44.941297,282.416408,90.674516,2.274956,3.000000,-93.172827,9.832372,2025-03-27T21:44:56.000-05:00,-0.229598,-0.964442,-0.058250,2025-03-27T21:44:55.911-05:00,-0.527286,0.173095,-0.067083,2025-03-27T21:44:55.908-05:00
17.000000,255.000509,2.702277,22.848797,44.941299,282.410509,89.634336,2.374754,3.000000,-93.172707,9.581354,2025-03-27T21:44:57.000-05:00,-0.129261,-0.987686,-0.047689,2025-03-27T21:44:56.916-05:00,-0.508037,0.076258,-0.143561,2025-03-27T21:44:56.913-05:00
18.000000,255.077016,2.708308,23.275474,44.941300,282.487016,89.092047,2.234345,3.000000,-93.172589,9.428182,2025-03-27T21:44:58.000-05:00,-0.230793,-0.972812,-0.054208,2025-03-27T21:44:57.911-05:00,-0.540168,0.111402,-0.237649,2025-03-27T21:44:57.908-05:00
19.000000,254.938064,2.703912,23.589086,44.941300,282.348064,89.666623,2.147840,3.000000,-93.172472,9.287772,2025-03-27T21:44:59.000-05:00,-0.218873,-0.969427,-0.048655,2025-03-27T21:44:58.915-05:00,-0.353701,0.109131,-0.099977,2025-03-27T21:44:58.913-05:00
20.000000,254.931170,2.701287,24.159315,44.941299,282.341170,90.199844,2.093288,3.000000,-93.172357,9.059905,2025-03-27T21:45:00.000-05:00,-0.210799,-0.982114,-0.037552,2025-03-27T21:44:59.910-05:00,-0.233492,-0.005171,0.015179,2025-03-27T21:44:59.908-05:00
21.000000,255.040161,2.701178,24.257158,44.941298,282.450161,90.192083,2.098990,3.000000,-93.172243,9.022358,2025-03-27T21:45:01.000-05:00,-0.211449,-0.964231,-0.036643,2025-03-27T21:45:00.915-05:00,-0.240634,0.187578,0.098156,2025-03-27T21:45:00.913-05:00
22.000000,255.427634,2.702244,23.904203,44.941297,282.837634,89.891829,2.388699,3.000000,-93.172124,9.159665,2025-03-27T21:45:02.000-05:00,-0.223649,-0.980588,-0.060848,2025-03-27T21:45:01.910-05:00,-0.353861,0.004631,-0.161651,2025-03-27T21:45:01.908-05:00
23.000000,255.721389,2.703396,24.022340,44.941298,283.131389,89.489428,2.351397,3.000000,-93.172008,9.116981,2025-03-27T21:45:03.000-05:00,-0.218859,-0.971511,-0.028835,2025-03-27T21:45:02.915-05:00,-0.236288,0.065415,0.013390,2025-03-27T21:45:02.913-05:00
24.000000,256.104993,2.695066,24.572411,44.941295,283.514993,90.301402,2.226814,3.000000,-93.171898,8.885257,2025-03-27T21:45:04.000-05:00,-0.187321,-0.984599,-0.055053,2025-03-27T21:45:03.910-05:00,0.048119,-0.023135,-0.016847,2025-03-27T21:45:03.908-05:00
25.000000,256.375184,2.706241,24.781591,44.941295,283.785184,90.072171,2.357470,3.000000,-93.171786,8.845067,2025-03-27T21:45:05.000-05:00,-0.200316,-0.971994,-0.046372,2025-03-27T21:45:04.915-05:00,0.025979,0.053987,0.015667,2025-03-27T21:45:04.912-05:00
26.000000,256.520678,1.881421,16.624345,44.941298,283.930678,89.417748,2.229698,3.000000,-93.171668,9.138984,2025-03-27T21:45:06.000-05:00,-0.203699,-0.984419,-0.051096,2025-03-27T21:45:05.910-05:00,-0.094741,-0.045320,0.029702,2025-03-27T21:45:05.907-05:00
27.000000,256.689637,1.921654,16.523833,44.941297,284.099637,89.544720,2.244027,3.000000,-93.171547,9.354359,2025-03-27T21:45:07.000-05:00,-0.196194,-0.971210,-0.057322,2025-03-27T21:45:06.915-05:00,-0.025674,0.066387,-0.063614,2025-03-27T21:45:06.912-05:00
28.000000,256.663888,1.896483,16.394645,44.941294,284.073888,90.382701,2.157086,3.000000,-93.171433,9.333382,2025-03-27T21:45:08.000-05:00,-0.204812,-0.988046,-0.043199,2025-03-27T21:45:07.910-05:00,-0.084780,-0.064460,-0.082436,2025-03-27T21:45:07.907-05:00
29.000000,256.920104,1.890232,16.223303,44.941295,284.330104,90.396760,2.099396,3.000000,-93.171315,9.392072,2025-03-27T21:45:09.000-05:00,-0.215971,-0.963274,-0.020874,2025-03-27T21:45:08.915-05:00,-0.140246,0.152007,0.056769,2025-03-27T21:45:08.912-05:00
30.000000,256.795698,1.893045,16.397690,44.941295,284.205698,90.698383,2.063240,3.000000,-93.171199,9.327358,2025-03-27T21:45:10.000-05:00,-0.261069,-0.968553,-0.040554,2025-03-27T21:45:09.909-05:00,-0.493138,0.087308,-0.089698,2025-03-27T21:45:09.907-05:00
31.000000,257.070972,1.909959,16.858229,44.941294,284.480972,90.634559,2.039735,3.000000,-93.171083,9.107951,2025-03-27T21:45:11.000-05:00,-0.320869,-0.946810,-0.026742,2025-03-27T21:45:10.914-05:00,-1.094223,0.304892,-0.116124,2025-03-27T21:45:10.912-05:00
32.000000,257.118279,1.918864,18.273746,44.941293,284.528279,90.436888,2.025420,3.000000,-93.170976,8.430755,2025-03-27T21:45:12.000-05:00,-0.332427,-0.951363,-0.041933,2025-03-27T21:45:11.909-05:00,-1.117494,0.246642,-0.219674,2025-03-27T21:45:11.907-05:00
33.000000,257.004220,2.006004,22.054005,44.941295,284.414220,89.590952,2.016958,3.000000,-93.170885,7.337611,2025-03-27T21:45:13.000-05:00,-0.346918,-0.947782,-0.040963,2025-03-27T21:45:12.914-05:00,-1.154358,0.228511,-0.125356,2025-03-27T21:45:12.912-05:00
34.000000,256.897498,2.095165,27.082463,44.941295,284.307498,89.445716,2.011994,3.000000,-93.170809,6.227804,2025-03-27T21:45:14.000-05:00,-0.359206,-0.942877,-0.053647,2025-03-27T21:45:13.909-05:00,-1.303150,0.298031,-0.168886,2025-03-27T21:45:13.907-05:00
35.000000,256.690497,2.208132,36.616872,44.941294,284.100497,89.472759,2.008995,3.000000,-93.170753,4.860013,2025-03-27T21:45:15.000-05:00,-0.372102,-0.937959,-0.077998,2025-03-27T21:45:14.914-05:00,-1.410880,0.339459,-0.296662,2025-03-27T21:45:14.911-05:00
36.000000,256.491120,2.377655,56.826198,44.941294,283.901120,88.837151,2.007196,3.000000,-93.170716,3.389680,2025-03-27T21:45:16.000-05:00,-0.333512,-0.947578,-0.080812,2025-03-27T21:45:15.909-05:00,-0.999915,0.231308,-0.216014,2025-03-27T21:45:15.916-05:00
37.000000,256.613936,2.533058,113.964269,44.941293,284.023936,88.952547,2.005997,3.000000,-93.170699,1.797067,2025-03-27T21:45:17.000-05:00,-0.169271,-0.983770,-0.049507,2025-03-27T21:45:16.914-05:00,0.605651,-0.127184,0.130609,2025-03-27T21:45:16.911-05:00
38.000000,256.364535,3.728690,180.000000,44.941293,283.774535,88.879546,2.005140,3.000000,-93.170695,0.877197,2025-03-27T21:45:18.000-05:00,-0.105652,-0.997227,-0.045095,2025-03-27T21:45:17.909-05:00,1.254131,-0.269855,0.247903,2025-03-27T21:45:17.916-05:00
39.000000,256.162166,3.745404,180.000000,44.941295,283.572166,88.879559,2.083873,3.000000,-93.170678,1.343493,2025-03-27T21:45:19.000-05:00,-0.109211,-0.997620,-0.061175,2025-03-27T21:45:18.914-05:00,1.255701,-0.287820,0.170888,2025-03-27T21:45:18.911-05:00
40.000000,255.893054,2.603316,90.171064,44.941296,283.303054,88.957565,2.078544,3.000000,-93.170644,2.307790,2025-03-27T21:45:20.000-05:00,-0.107128,-0.998084,-0.062706,2025-03-27T21:45:19.908-05:00,1.105313,-0.243235,0.099173,2025-03-27T21:45:19.916-05:00
41.000000,255.904432,2.478209,61.542906,44.941295,283.314432,87.995934,2.116213,3.000000,-93.170599,3.197612,2025-03-27T21:45:21.000-05:00,-0.127382,-0.997343,-0.038877,2025-03-27T21:45:20.913-05:00,0.942280,-0.243821,0.200984,2025-03-27T21:45:20.911-05:00
42.000000,255.872514,2.370763,46.094092,44.941294,283.282514,87.995934,2.105648,3.000000,-93.170543,4.072300,2025-03-27T21:45:22.000-05:00,-0.134666,-0.992019,-0.020928,2025-03-27T21:45:21.908-05:00,0.914545,-0.184664,0.220935,2025-03-27T21:45:21.916-05:00
43.000000,255.933146,2.254460,35.641049,44.941292,283.343146,87.995934,2.096844,3.000000,-93.170475,5.027248,2025-03-27T21:45:23.000-05:00,-0.136273,-0.969146,-0.010385,2025-03-27T21:45:22.913-05:00,0.840599,0.041260,0.271785,2025-03-27T21:45:22.911-05:00
44.000000,256.140829,2.148010,29.788194,44.941294,283.550829,87.995934,2.100074,3.000000,-93.170399,5.833560,2025-03-27T21:45:24.000-05:00,-0.176049,-1.015158,-0.029101,2025-03-27T21:45:23.908-05:00,0.456311,-0.408913,0.173576,2025-03-27T21:45:23.916-05:00
45.000000,256.173144,2.081434,25.612055,44.941298,283.583144,91.171257,2.092926,3.000000,-93.170316,6.541369,2025-03-27T21:45:25.000-05:00,-0.183671,-0.973873,-0.055571,2025-03-27T21:45:24.913-05:00,0.226293,0.028046,-0.034560,2025-03-27T21:45:24.910-05:00
46.000000,256.408141,2.043625,23.616951,44.941299,283.818141,91.171257,2.083177,3.000000,-93.170226,6.992291,2025-03-27T21:45:26.000-05:00,-0.234117,-0.965019,-0.052254,2025-03-27T21:45:25.908-05:00,-0.250240,0.125116,-0.016601,2025-03-27T21:45:25.915-05:00
47.000000,256.228758,2.016932,22.347264,44.941310,283.638757,91.171257,2.144392,3.000000,-93.170129,7.302449,2025-03-27T21:45:27.000-05:00,-0.236930,-0.973101,-0.060060,2025-03-27T21:45:26.913-05:00,-0.335932,0.041038,-0.065762,2025-03-27T21:45:26.910-05:00
48.000000,256.291703,2.020941,23.373553,44.941296,283.701703,91.171257,2.177187,3.000000,-93.170045,7.005925,2025-03-27T21:45:28.000-05:00,-0.273449,-0.960871,-0.060575,2025-03-27T21:45:27.908-05:00,-0.691383,0.162276,-0.106492,2025-03-27T21:45:27.915-05:00
49.000000,256.375100,2.044452,23.993721,44.941305,283.785100,91.171257,2.190423,3.000000,-93.169953,6.886903,2025-03-27T21:45:29.000-05:00,-0.336821,-0.947500,-0.085281,2025-03-27T21:45:28.913-05:00,-1.247013,0.285961,-0.252075,2025-03-27T21:45:28.910-05:00
50.000000,256.245120,2.130685,29.800335,44.941301,283.655120,91.171257,2.150531,3.000000,-93.169889,5.774506,2025-03-27T21:45:30.000-05:00,-0.326531,-0.948099,-0.087147,2025-03-27T21:45:29.907-05:00,-1.117775,0.271982,-0.211761,2025-03-27T21:45:29.915-05:00
51.000000,256.106889,2.284537,41.309945,44.941301,283.516889,91.171257,2.125442,3.000000,-93.169842,4.409631,2025-03-27T21:45:31.000-05:00,-0.337934,-0.944404,-0.086165,2025-03-27T21:45:30.912-05:00,-1.124676,0.267433,-0.222700,2025-03-27T21:45:30.910-05:00
52.000000,256.282567,2.430587,58.872517,44.941298,283.692567,91.171257,2.535225,3.000000,-93.169802,3.278760,2025-03-27T21:45:32.000-05:00,-0.318919,-0.952166,-0.070782,2025-03-27T21:45:31.907-05:00,-0.904157,0.202769,-0.140922,2025-03-27T21:45:31.915-05:00
53.000000,256.486726,2.619727,122.643238,44.941300,283.896726,91.171257,2.543783,3.000000,-93.169796,1.643638,2025-03-27T21:45:33.000-05:00,-0.230668,-0.971844,-0.051709,2025-03-27T21:45:32.912-05:00,-0.012134,-0.005221,0.020120,2025-03-27T21:45:32.910-05:00
54.000000,256.908602,3.742843,180.000000,44.941297,284.318602,91.171257,2.610569,3.000000,-93.169800,0.189770,2025-03-27T21:45:34.000-05:00,-0.151626,-0.990820,-0.034381,2025-03-27T21:45:33.907-05:00,0.740596,-0.180037,0.148912,2025-03-27T21:45:33.914-05:00
55.000000,256.985933,3.734294,180.000000,44.941298,284.395933,91.171257,2.582784,3.000000,-93.169789,0.318343,2025-03-27T21:45:35.000-05:00,-0.053946,-1.013454,-0.011999,2025-03-27T21:45:34.912-05:00,1.648581,-0.386688,0.331762,2025-03-27T21:45:34.909-05:00
56.000000,257.396835,3.760581,180.000000,44.941303,284.806835,93.634094,2.614865,3.000000,-93.169753,1.581526,2025-03-27T21:45:36.000-05:00,-0.079581,-1.006738,-0.012182,2025-03-27T21:45:35.907-05:00,1.314692,-0.302016,0.295001,2025-03-27T21:45:35.914-05:00
57.000000,257.097775,2.453810,60.886400,44.941298,284.507775,93.634094,2.583499,3.000000,-93.169697,3.255291,2025-03-27T21:45:36.999-05:00,-0.108674,-0.999716,-0.016747,2025-03-27T21:45:36.912-05:00,0.967152,-0.217428,0.216490,2025-03-27T21:45:36.909-05:00
58.000000,256.702957,2.248550,36.842783,44.941288,284.112957,93.634094,2.538614,3.000000,-93.169621,4.932164,2025-03-27T21:45:37.999-05:00,-0.163424,-0.982675,-0.023083,2025-03-27T21:45:37.907-05:00,0.474320,-0.067247,0.164614,2025-03-27T21:45:37.914-05:00
59.000000,257.295859,2.205939,33.529652,44.941293,284.705859,93.634094,2.500142,3.000000,-93.169556,5.295042,2025-03-27T21:45:38.999-05:00,-0.221621,-0.953231,-0.051915,2025-03-27T21:45:38.911-05:00,-0.048795,0.203351,-0.065259,2025-03-27T21:45:38.909-05:00
60.000000,257.264669,2.165396,31.436653,44.941295,284.674669,93.634094,2.466799,3.000000,-93.169482,5.572723,2025-03-27T21:45:39.999-05:00,-0.254233,-0.958741,-0.058020,2025-03-27T21:45:39.916-05:00,-0.334386,0.157421,0.143060,2025-03-27T21:45:39.914-05:00
61.000000,257.468244,2.194714,32.667672,44.941276,284.878244,93.634094,2.437624,3.000000,-93.169411,5.422099,2025-03-27T21:45:40.999-05:00,-0.247137,-0.990964,-0.137852,2025-03-27T21:45:40.911-05:00,-0.622319,-0.141509,-0.519835,2025-03-27T21:45:40.909-05:00
62.000000,257.434605,2.251399,36.982374,44.941282,284.844605,90.253952,2.429512,3.000000,-93.169351,4.850918,2025-03-27T21:45:41.999-05:00,-0.136927,-0.984465,-0.072351,2025-03-27T21:45:41.916-05:00,0.460143,-0.023877,0.074676,2025-03-27T21:45:41.914-05:00
63.000000,257.568364,2.327008,38.885995,44.941281,284.978364,90.253952,2.459146,3.000000,-93.169293,4.635786,2025-03-27T21:45:42.999-05:00,-0.141934,-0.984357,-0.062327,2025-03-27T21:45:42.911-05:00,0.459263,-0.050782,0.142292,2025-03-27T21:45:42.909-05:00
64.000000,257.512484,2.224040,32.716790,44.941297,284.922484,90.253952,2.434981,3.000000,-93.169221,5.399932,2025-03-27T21:45:43.999-05:00,-0.177226,-0.981797,-0.075776,2025-03-27T21:45:43.916-05:00,0.063139,-0.019839,-0.011805,2025-03-27T21:45:43.913-05:00
65.000000,257.660824,2.203219,29.898908,44.941281,285.070824,90.253952,2.413684,3.000000,-93.169146,5.742794,2025-03-27T21:45:44.999-05:00,-0.192998,-0.976290,-0.071847,2025-03-27T21:45:44.911-05:00,-0.055731,0.026573,-0.017410,2025-03-27T21:45:44.908-05:00
66.000000,257.728928,2.196022,29.486211,44.941281,285.138928,90.253952,2.392999,3.000000,-93.169074,5.751695,2025-03-27T21:45:45.999-05:00,-0.198347,-0.979803,-0.070735,2025-03-27T21:45:45.916-05:00,-0.077003,0.005739,0.044902,2025-03-27T21:45:45.913-05:00
67.000000,257.511528,2.137641,30.130936,44.941289,284.921528,90.253952,2.373349,3.000000,-93.169004,5.710900,2025-03-27T21:45:46.999-05:00,-0.188071,-0.968826,-0.063833,2025-03-27T21:45:46.911-05:00,-0.025226,0.090981,0.047877,2025-03-27T21:45:46.908-05:00
68.000000,257.770269,2.175519,29.549900,44.941289,285.180269,90.253952,2.354682,3.000000,-93.168929,5.806512,2025-03-27T21:45:47.999-05:00,-0.174242,-0.987319,-0.070484,2025-03-27T21:45:47.915-05:00,0.040515,-0.060707,-0.039346,2025-03-27T21:45:47.913-05:00
69.000000,257.884098,2.149289,29.327202,44.941291,285.294098,90.253952,2.336948,3.000000,-93.168854,5.868196,2025-03-27T21:45:48.999-05:00,-0.181119,-0.980985,-0.055846,2025-03-27T21:45:48.910-05:00,0.082784,-0.003392,0.099265,2025-03-27T21:45:48.908-05:00
70.000000,257.920936,2.147222,28.967730,44.941291,285.330936,90.253952,2.320100,3.000000,-93.168779,5.944155,2025-03-27T21:45:49.999-05:00,-0.187617,-0.975151,-0.071881,2025-03-27T21:45:49.915-05:00,-0.029534,0.066810,-0.052029,2025-03-27T21:45:49.913-05:00
71.000000,258.180348,2.135327,27.746659,44.941291,285.590348,90.253952,2.298977,3.000000,-93.168698,6.156808,2025-03-27T21:45:50.999-05:00,-0.205553,-0.985110,-0.053659,2025-03-27T21:45:50.910-05:00,-0.246007,-0.030816,0.063068,2025-03-27T21:45:50.908-05:00
72.000000,258.627717,2.188592,27.556647,44.941289,286.037716,90.253952,2.277110,3.000000,-93.168620,6.079616,2025-03-27T21:45:51.999-05:00,-0.190618,-0.981752,-0.073568,2025-03-27T21:45:51.915-05:00,-0.077349,-0.013958,-0.106430,2025-03-27T21:45:51.913-05:00
73.000000,258.665359,2.216167,27.965254,44.941287,286.075359,90.253952,2.256784,3.000000,-93.168544,5.993559,2025-03-27T21:45:52.999-05:00,-0.179068,-0.983436,-0.056298,2025-03-27T21:45:52.910-05:00,-0.022985,-0.001218,-0.041077,2025-03-27T21:45:52.907-05:00
74.000000,258.920354,2.255674,28.296977,44.941285,286.330354,90.253952,2.263004,3.000000,-93.168470,5.908995,2025-03-27T21:45:53.999-05:00,-0.168055,-0.984330,-0.048795,2025-03-27T21:45:53.915-05:00,0.093309,-0.011741,0.045342,2025-03-27T21:45:53.912-05:00
75.000000,259.015809,2.235783,27.152412,44.941285,286.425808,90.253952,2.244525,3.000000,-93.168390,6.117169,2025-03-27T21:45:54.999-05:00,-0.156752,-0.985525,-0.043612,2025-03-27T21:45:54.910-05:00,0.181543,-0.041219,0.122909,2025-03-27T21:45:54.907-05:00
76.000000,259.206964,2.293756,25.500973,44.941285,286.616964,89.704323,2.225880,3.000000,-93.168309,6.317882,2025-03-27T21:45:55.999-05:00,-0.158474,-0.987828,-0.054949,2025-03-27T21:45:55.915-05:00,0.111424,-0.024918,-0.000414,2025-03-27T21:45:55.912-05:00
77.000000,259.296041,2.218713,25.147985,44.941286,286.706041,89.704323,2.206810,3.000000,-93.168228,6.463314,2025-03-27T21:45:56.999-05:00,-0.154793,-0.992582,-0.042221,2025-03-27T21:45:56.910-05:00,0.188658,-0.097049,0.053402,2025-03-27T21:45:56.907-05:00
78.000000,259.554466,2.215673,23.640905,44.941287,286.964466,89.704323,2.191438,3.000000,-93.168139,6.830559,2025-03-27T21:45:57.999-05:00,-0.162503,-0.980485,-0.027988,2025-03-27T21:45:57.914-05:00,0.192196,0.036293,0.080974,2025-03-27T21:45:57.912-05:00
79.000000,259.918172,2.167353,22.114149,44.941287,287.328172,89.704323,2.424336,3.000000,-93.168045,7.145364,2025-03-27T21:45:58.999-05:00,-0.175372,-0.988130,-0.028653,2025-03-27T21:45:58.909-05:00,-0.009494,-0.063709,0.009729,2025-03-27T21:45:58.907-05:00
80.000000,260.115364,2.192955,20.773517,44.941287,287.525364,89.704323,2.337396,3.000000,-93.167952,7.338068,2025-03-27T21:45:59.999-05:00,-0.164229,-0.984570,-0.023609,2025-03-27T21:45:59.914-05:00,0.008557,0.030145,0.112122,2025-03-27T21:45:59.912-05:00
81.000000,260.598864,2.124447,20.527579,44.941287,288.008864,89.704323,2.256700,3.000000,-93.167854,7.502154,2025-03-27T21:46:00.999-05:00,-0.177289,-0.985242,-0.042341,2025-03-27T21:46:00.909-05:00,-0.087898,0.010304,-0.044507,2025-03-27T21:46:00.907-05:00
82.000000,260.822596,2.105977,20.445641,44.941287,288.232596,89.704323,2.187356,3.000000,-93.167755,7.674425,2025-03-27T21:46:01.999-05:00,-0.206692,-0.977033,-0.054956,2025-03-27T21:46:01.914-05:00,-0.313718,0.044264,-0.154897,2025-03-27T21:46:01.912-05:00
83.000000,261.163709,2.080288,21.064171,44.941289,288.573709,89.704323,2.367226,3.000000,-93.167663,7.484177,2025-03-27T21:46:02.999-05:00,-0.229778,-0.961333,-0.045346,2025-03-27T21:46:02.909-05:00,-0.527884,0.218372,-0.083089,2025-03-27T21:46:02.916-05:00
84.000000,261.030488,2.144139,24.308947,44.941291,288.440488,89.704323,2.484466,3.000000,-93.167588,6.737337,2025-03-27T21:46:03.999-05:00,-0.250082,-0.975130,-0.054045,2025-03-27T21:46:03.914-05:00,-0.738621,0.087682,-0.175731,2025-03-27T21:46:03.911-05:00
85.000000,261.031274,2.172845,26.705677,44.941294,288.441274,89.704323,2.370820,3.000000,-93.167506,6.244194,2025-03-27T21:46:04.999-05:00,-0.270501,-0.959020,-0.045712,2025-03-27T21:46:04.909-05:00,-0.929666,0.248048,-0.155141,2025-03-27T21:46:04.916-05:00
86.000000,261.340093,2.294488,30.156672,44.941295,288.750093,89.704323,2.336522,3.000000,-93.167429,5.607961,2025-03-27T21:46:05.999-05:00,-0.300735,-0.958993,-0.065051,2025-03-27T21:46:05.914-05:00,-1.138049,0.228051,-0.303254,2025-03-27T21:46:05.911-05:00
87.000000,261.124103,2.308706,38.879387,44.941292,288.534103,89.704323,2.300792,3.000000,-93.167371,4.597744,2025-03-27T21:46:06.999-05:00,-0.250967,-0.961038,-0.065197,2025-03-27T21:46:06.909-05:00,-0.623596,0.198041,-0.222017,2025-03-27T21:46:06.916-05:00
88.000000,261.433206,2.451045,52.799004,44.941293,288.843205,89.704323,2.782759,3.000000,-93.167327,3.569567,2025-03-27T21:46:07.999-05:00,-0.280290,-0.961808,-0.052283,2025-03-27T21:46:07.913-05:00,-0.841953,0.182807,-0.121755,2025-03-27T21:46:07.911-05:00
89.000000,261.565200,2.603752,64.581824,44.941291,288.975199,89.704323,2.840240,3.000000,-93.167286,2.981361,2025-03-27T21:46:08.999-05:00,-0.267619,-0.963097,-0.044465,2025-03-27T21:46:08.908-05:00,-0.735531,0.172059,-0.102306,2025-03-27T21:46:08.916-05:00
90.000000,261.738779,2.737681,113.559255,44.941287,289.148779,89.704323,2.752510,3.000000,-93.167272,1.735469,2025-03-27T21:46:09.999-05:00,-0.244450,-0.958739,-0.047556,2025-03-27T21:46:09.913-05:00,-0.455470,0.200100,-0.127220,2025-03-27T21:46:09.911-05:00
