seconds_elapsed,location_altitude,location_speedAccuracy,location_bearingAccuracy,location_latitude,location_altitudeAboveMeanSeaLevel,location_bearing,location_horizontalAccuracy,location_verticalAccuracy,location_longitude,location_speed,location_local_time,accelerometerUncalibrated_z,accelerometerUncalibrated_y,accelerometerUncalibrated_x,accelerometerUncalibrated_local_time,accelerometer_z,accelerometer_y,accelerometer_x,accelerometer_local_time
0.000000,255.914687,2.273844,40.425911,44.934275,283.324687,121.859546,2.178105,3.000000,-93.177115,4.542848,2025-03-27T21:29:13.999-05:00,-0.232594,-0.967050,0.108209,2025-03-27T21:29:13.629-05:00,0.112753,0.018783,0.786474,2025-03-27T21:29:13.627-05:00
1.000000,255.931300,2.215924,35.790670,44.934274,283.341300,101.062427,2.152662,3.000000,-93.177044,5.001419,2025-03-27T21:29:14.999-05:00,-0.144390,-0.998469,0.045384,2025-03-27T21:29:14.614-05:00,0.908930,-0.269984,0.153995,2025-03-27T21:29:14.612-05:00
2.000000,255.853957,2.152227,29.726789,44.934277,283.263957,92.319746,2.133579,3.000000,-93.176968,5.848383,2025-03-27T21:29:15.999-05:00,-0.145457,-0.993912,0.039077,2025-03-27T21:29:15.609-05:00,0.775663,-0.197783,0.177713,2025-03-27T21:29:15.617-05:00
3.000000,255.824861,2.077470,24.055554,44.934279,283.234861,90.275871,2.118737,3.000000,-93.176878,6.914565,2025-03-27T21:29:16.999-05:00,-0.150459,-0.989690,-0.016947,2025-03-27T21:29:16.614-05:00,0.678649,-0.135903,-0.381213,2025-03-27T21:29:16.611-05:00
4.000000,255.778418,2.022150,21.466020,44.934283,283.188418,90.358215,2.129768,3.000000,-93.176781,7.585770,2025-03-27T21:29:17.999-05:00,-0.152093,-0.987227,-0.053793,2025-03-27T21:29:17.609-05:00,0.664001,-0.122071,-0.698015,2025-03-27T21:29:17.616-05:00
5.000000,255.753567,1.951646,18.884999,44.934289,283.163567,90.358215,2.152708,3.000000,-93.176674,8.347348,2025-03-27T21:29:18.999-05:00,-0.159210,-0.992356,-0.023835,2025-03-27T21:29:18.614-05:00,0.568856,-0.154606,-0.403291,2025-03-27T21:29:18.611-05:00
6.000000,255.803364,1.909072,17.039738,44.934287,283.213364,90.358215,2.106290,3.000000,-93.176558,9.060097,2025-03-27T21:29:19.999-05:00,-0.181328,-0.979188,-0.004526,2025-03-27T21:29:19.608-05:00,0.322661,-0.031837,-0.248611,2025-03-27T21:29:19.616-05:00
7.000000,255.696391,1.881994,15.991187,44.934286,283.106391,90.358215,2.068282,3.000000,-93.176437,9.528520,2025-03-27T21:29:20.999-05:00,-0.174986,-0.991113,-0.023195,2025-03-27T21:29:20.613-05:00,0.349353,-0.127115,-0.385684,2025-03-27T21:29:20.611-05:00
8.000000,255.698137,1.853041,14.855863,44.934287,283.108137,90.358215,2.042657,3.000000,-93.176308,10.100516,2025-03-27T21:29:21.999-05:00,-0.179178,-0.982258,-0.027667,2025-03-27T21:29:21.608-05:00,0.284238,-0.048712,-0.453808,2025-03-27T21:29:21.615-05:00
9.000000,255.883244,1.832007,13.972580,44.934283,283.293243,90.358215,2.025589,3.000000,-93.176173,10.610690,2025-03-27T21:29:22.999-05:00,-0.221179,-0.971180,-0.031548,2025-03-27T21:29:22.613-05:00,-0.168149,0.079656,-0.483598,2025-03-27T21:29:22.610-05:00
10.000000,255.897330,1.825585,13.842769,44.934284,283.307329,90.358215,2.014308,3.000000,-93.176038,10.679297,2025-03-27T21:29:23.999-05:00,-0.228910,-0.974451,-0.038255,2025-03-27T21:29:23.608-05:00,-0.229601,0.043375,-0.481813,2025-03-27T21:29:23.615-05:00
11.000000,255.838892,1.845403,13.950841,44.934283,283.248892,90.199402,2.007942,3.000000,-93.175902,10.718169,2025-03-27T21:29:24.999-05:00,-0.225229,-0.971798,-0.039044,2025-03-27T21:29:24.612-05:00,-0.244879,0.062806,-0.473544,2025-03-27T21:29:24.610-05:00
12.000000,255.961310,1.823352,13.787000,44.934285,283.371310,90.199402,2.108385,3.000000,-93.175767,10.714528,2025-03-27T21:29:25.999-05:00,-0.218832,-0.974100,-0.039899,2025-03-27T21:29:25.617-05:00,-0.234631,0.084044,-0.405771,2025-03-27T21:29:25.615-05:00
13.000000,256.093681,1.823039,13.757541,44.934284,283.503681,90.199402,2.159407,3.000000,-93.175632,10.733725,2025-03-27T21:29:26.999-05:00,-0.212338,-0.973898,-0.041684,2025-03-27T21:29:26.612-05:00,-0.142782,0.049366,-0.389535,2025-03-27T21:29:26.610-05:00
14.000000,256.208652,1.804957,13.531082,44.934284,283.618652,90.199402,2.088262,3.000000,-93.175495,10.804800,2025-03-27T21:29:27.999-05:00,-0.216204,-0.977613,-0.038772,2025-03-27T21:29:27.617-05:00,-0.186192,0.035036,-0.351849,2025-03-27T21:29:27.614-05:00
15.000000,256.313743,1.812781,13.331631,44.934279,283.723743,90.199402,2.048584,3.000000,-93.175354,11.007734,2025-03-27T21:29:28.999-05:00,-0.213466,-0.971548,-0.034042,2025-03-27T21:29:28.612-05:00,-0.151568,0.086733,-0.275852,2025-03-27T21:29:28.609-05:00
16.000000,256.364131,1.804348,13.193396,44.934279,283.774131,90.199402,2.455058,3.000000,-93.175214,11.081157,2025-03-27T21:29:29.999-05:00,-0.214379,-0.974037,-0.035873,2025-03-27T21:29:29.617-05:00,-0.140822,0.060825,-0.248238,2025-03-27T21:29:29.614-05:00
17.000000,256.346046,1.807549,13.081260,44.934279,283.756046,90.000000,2.248208,3.000000,-93.175072,11.196391,2025-03-27T21:29:30.999-05:00,-0.211084,-0.980301,-0.039964,2025-03-27T21:29:30.611-05:00,-0.113148,-0.007609,-0.233861,2025-03-27T21:29:30.609-05:00
18.000000,256.409004,1.805458,12.943168,44.934279,283.819004,90.408150,2.221042,3.000000,-93.174928,11.301455,2025-03-27T21:29:31.999-05:00,-0.212484,-0.967668,-0.032304,2025-03-27T21:29:31.616-05:00,-0.142128,0.129954,-0.195668,2025-03-27T21:29:31.614-05:00
19.000000,256.328894,1.799104,12.775202,44.934279,283.738894,90.408150,2.520537,3.000000,-93.174784,11.410555,2025-03-27T21:29:32.999-05:00,-0.216970,-0.968906,-0.040902,2025-03-27T21:29:32.611-05:00,-0.100168,0.077696,-0.198890,2025-03-27T21:29:32.609-05:00
20.000000,256.344609,1.793154,12.554273,44.934278,283.754609,90.408150,2.277559,3.000000,-93.174635,11.573406,2025-03-27T21:29:33.999-05:00,-0.240575,-0.981544,-0.031283,2025-03-27T21:29:33.616-05:00,-0.288776,-0.035356,-0.245177,2025-03-27T21:29:33.613-05:00
21.000000,256.281978,1.791847,12.528198,44.934281,283.691978,90.231773,2.148572,3.000000,-93.174489,11.589099,2025-03-27T21:29:34.999-05:00,-0.246116,-0.971261,-0.018512,2025-03-27T21:29:34.611-05:00,-0.390479,0.065973,-0.169533,2025-03-27T21:29:34.608-05:00
22.000000,256.298948,1.796009,12.676432,44.934281,283.708948,90.231773,2.079214,3.000000,-93.174343,11.479652,2025-03-27T21:29:35.999-05:00,-0.246233,-0.967228,-0.020385,2025-03-27T21:29:35.616-05:00,-0.376273,0.111907,-0.120357,2025-03-27T21:29:35.613-05:00
23.000000,256.506782,1.781197,12.757942,44.934283,283.916782,90.231773,2.042684,3.000000,-93.174201,11.312019,2025-03-27T21:29:36.999-05:00,-0.243571,-0.968696,-0.030054,2025-03-27T21:29:36.610-05:00,-0.349223,0.094523,-0.167592,2025-03-27T21:29:36.608-05:00
24.000000,256.605398,1.812615,13.149216,44.934279,284.015398,90.231773,2.023035,3.000000,-93.174060,11.168470,2025-03-27T21:29:37.999-05:00,-0.236749,-0.973059,-0.050969,2025-03-27T21:29:37.615-05:00,-0.273321,0.037964,-0.294437,2025-03-27T21:29:37.613-05:00
25.000000,256.587396,1.809608,13.283254,44.934278,283.997396,90.231773,2.012480,3.000000,-93.173919,11.037579,2025-03-27T21:29:38.999-05:00,-0.241490,-0.970589,-0.039450,2025-03-27T21:29:38.610-05:00,-0.308245,0.065227,-0.219071,2025-03-27T21:29:38.608-05:00
26.000000,256.588312,1.822530,13.568633,44.934278,283.998312,90.231773,2.006825,3.000000,-93.173782,10.871811,2025-03-27T21:29:39.999-05:00,-0.238440,-0.971118,-0.042571,2025-03-27T21:29:39.615-05:00,-0.241360,0.057941,-0.220667,2025-03-27T21:29:39.612-05:00
27.000000,256.677366,1.833103,13.890272,44.934278,284.087366,90.231773,2.003767,3.000000,-93.173647,10.685942,2025-03-27T21:29:40.999-05:00,-0.217526,-0.966609,-0.026110,2025-03-27T21:29:40.610-05:00,-0.035357,0.103016,-0.060598,2025-03-27T21:29:40.617-05:00
28.000000,256.775575,1.810303,13.763288,44.934277,284.185574,90.231773,2.002097,3.000000,-93.173513,10.648784,2025-03-27T21:29:41.999-05:00,-0.227487,-0.991705,-0.027159,2025-03-27T21:29:41.614-05:00,-0.090943,-0.156928,-0.087796,2025-03-27T21:29:41.612-05:00
29.000000,256.980976,1.797857,13.475569,44.934276,284.390976,90.231773,2.229712,3.000000,-93.173376,10.792200,2025-03-27T21:29:42.999-05:00,-0.214923,-0.959652,-0.005254,2025-03-27T21:29:42.609-05:00,0.089838,0.138438,0.067658,2025-03-27T21:29:42.617-05:00
30.000000,257.281325,1.824045,13.571545,44.934273,284.691325,90.310272,2.127179,3.000000,-93.173239,10.848681,2025-03-27T21:29:43.999-05:00,-0.202465,-0.980571,-0.029211,2025-03-27T21:29:43.614-05:00,0.094983,-0.026969,-0.020618,2025-03-27T21:29:43.612-05:00
31.000000,257.305667,1.819576,13.335029,44.934273,284.715667,90.310272,2.601725,3.000000,-93.173100,11.008295,2025-03-27T21:29:44.999-05:00,-0.200281,-0.981243,-0.028833,2025-03-27T21:29:44.609-05:00,0.129543,-0.044889,-0.067689,2025-03-27T21:29:44.616-05:00
32.000000,257.516373,1.805665,13.028860,44.934276,284.926372,90.310272,2.348015,3.000000,-93.172957,11.225455,2025-03-27T21:29:45.999-05:00,-0.209137,-0.983151,-0.029182,2025-03-27T21:29:45.614-05:00,0.028731,-0.058284,-0.126850,2025-03-27T21:29:45.611-05:00
33.000000,257.862899,1.800559,12.812836,44.934273,285.272899,90.310272,2.366472,3.000000,-93.172813,11.378571,2025-03-27T21:29:46.999-05:00,-0.224240,-0.966571,-0.025232,2025-03-27T21:29:46.609-05:00,-0.084578,0.093827,-0.122179,2025-03-27T21:29:46.616-05:00
34.000000,258.014157,1.817464,13.007175,44.934271,285.424156,90.310272,2.197866,3.000000,-93.172670,11.317281,2025-03-27T21:29:47.999-05:00,-0.228270,-0.976298,-0.019979,2025-03-27T21:29:47.613-05:00,-0.137061,0.005978,-0.020250,2025-03-27T21:29:47.611-05:00
35.000000,258.194527,1.804292,13.006262,44.934271,285.604527,90.310272,2.250858,3.000000,-93.172528,11.233952,2025-03-27T21:29:48.999-05:00,-0.225241,-0.976818,-0.021729,2025-03-27T21:29:48.608-05:00,-0.117717,-0.006635,-0.032839,2025-03-27T21:29:48.616-05:00
36.000000,258.300106,1.817987,13.175461,44.934271,285.710105,90.310272,2.135806,3.000000,-93.172386,11.172965,2025-03-27T21:29:49.999-05:00,-0.210607,-0.973296,-0.024716,2025-03-27T21:29:49.613-05:00,-0.006718,0.045298,-0.048540,2025-03-27T21:29:49.611-05:00
37.000000,258.579952,1.820706,13.196436,44.934269,285.989952,90.310272,2.073814,3.000000,-93.172245,11.170334,2025-03-27T21:29:50.999-05:00,-0.201361,-0.978828,-0.024867,2025-03-27T21:29:50.608-05:00,0.106337,-0.022723,0.004710,2025-03-27T21:29:50.615-05:00
38.000000,258.784232,1.792343,12.875436,44.934268,286.194232,90.310272,2.040223,3.000000,-93.172102,11.273768,2025-03-27T21:29:51.999-05:00,-0.202302,-0.970843,-0.020331,2025-03-27T21:29:51.613-05:00,0.127958,0.055249,0.008540,2025-03-27T21:29:51.610-05:00
39.000000,258.860994,1.800335,12.700154,44.934267,286.270994,90.288551,2.103970,3.000000,-93.171955,11.482616,2025-03-27T21:29:52.999-05:00,-0.209985,-0.985381,-0.003174,2025-03-27T21:29:52.608-05:00,0.059480,-0.090028,0.086055,2025-03-27T21:29:52.615-05:00
40.000000,259.011661,1.780954,12.375616,44.934267,286.421660,90.288551,2.055676,3.000000,-93.171807,11.656032,2025-03-27T21:29:53.999-05:00,-0.208553,-0.980080,-0.003818,2025-03-27T21:29:53.612-05:00,0.033687,-0.030122,0.092709,2025-03-27T21:29:53.610-05:00
41.000000,259.205414,1.762035,12.124586,44.934269,286.615414,90.288551,2.029602,3.000000,-93.171658,11.769791,2025-03-27T21:29:54.999-05:00,-0.202111,-0.980482,-0.021526,2025-03-27T21:29:54.617-05:00,0.066617,-0.019318,-0.118279,2025-03-27T21:29:54.615-05:00
42.000000,259.415209,1.768625,12.052379,44.934269,286.825208,90.288551,2.015632,3.000000,-93.171506,11.883810,2025-03-27T21:29:55.999-05:00,-0.203945,-0.975791,-0.016586,2025-03-27T21:29:55.612-05:00,0.067906,0.016099,-0.026097,2025-03-27T21:29:55.610-05:00
43.000000,259.745773,1.777438,12.030072,44.934270,287.155773,90.288551,2.008224,3.000000,-93.171354,11.964937,2025-03-27T21:29:56.999-05:00,-0.203532,-0.973364,-0.017004,2025-03-27T21:29:56.617-05:00,0.082062,0.030571,-0.028233,2025-03-27T21:29:56.614-05:00
44.000000,259.984298,1.772935,11.859563,44.934270,287.394298,90.288551,2.004305,3.000000,-93.171200,12.107473,2025-03-27T21:29:57.999-05:00,-0.207240,-0.976025,-0.006950,2025-03-27T21:29:57.612-05:00,0.072255,0.011168,-0.020798,2025-03-27T21:29:57.609-05:00
45.000000,260.048895,1.743474,11.520240,44.934267,287.458895,90.288551,2.002237,3.000000,-93.171044,12.259927,2025-03-27T21:29:58.999-05:00,-0.206555,-0.975374,-0.001788,2025-03-27T21:29:58.617-05:00,0.071154,0.012814,0.012552,2025-03-27T21:29:58.614-05:00
46.000000,260.246190,1.764947,11.520744,44.934266,287.656190,90.303329,2.001156,3.000000,-93.170886,12.407964,2025-03-27T21:29:59.999-05:00,-0.220620,-0.976884,-0.007470,2025-03-27T21:29:59.611-05:00,-0.045631,-0.009547,0.026461,2025-03-27T21:29:59.609-05:00
47.000000,260.460742,1.759384,11.417806,44.934267,287.870742,90.303329,2.000595,3.000000,-93.170728,12.482479,2025-03-27T21:30:00.999-05:00,-0.222322,-0.971735,-0.015975,2025-03-27T21:30:00.616-05:00,-0.067762,0.052744,-0.033966,2025-03-27T21:30:00.614-05:00
48.000000,260.640477,1.764328,11.484979,44.934267,288.050477,90.303329,2.000306,3.000000,-93.170571,12.443894,2025-03-27T21:30:01.999-05:00,-0.229397,-0.972694,-0.022904,2025-03-27T21:30:01.611-05:00,-0.137406,0.029886,-0.070266,2025-03-27T21:30:01.609-05:00
49.000000,260.783588,1.742468,11.428889,44.934266,288.193588,90.303329,2.000157,3.000000,-93.170415,12.350311,2025-03-27T21:30:02.999-05:00,-0.229406,-0.972845,-0.019485,2025-03-27T21:30:02.616-05:00,-0.153301,0.047277,-0.011918,2025-03-27T21:30:02.613-05:00
50.000000,261.157967,1.770944,11.695272,44.934263,288.567966,90.303329,2.000081,3.000000,-93.170260,12.262934,2025-03-27T21:30:03.999-05:00,-0.230137,-0.970583,-0.018765,2025-03-27T21:30:03.611-05:00,-0.135749,0.048885,-0.026215,2025-03-27T21:30:03.608-05:00
51.000000,261.403406,1.763959,11.758804,44.934264,288.813406,90.000000,2.000042,3.000000,-93.170106,12.149561,2025-03-27T21:30:04.999-05:00,-0.232830,-0.972583,-0.016618,2025-03-27T21:30:04.615-05:00,-0.148349,0.034168,0.009132,2025-03-27T21:30:04.613-05:00
52.000000,261.618233,1.771854,11.890874,44.934263,289.028233,90.248398,2.000022,3.000000,-93.169953,12.068922,2025-03-27T21:30:05.999-05:00,-0.229298,-0.973139,-0.019552,2025-03-27T21:30:05.610-05:00,-0.126746,0.027589,0.013905,2025-03-27T21:30:05.608-05:00
53.000000,261.751584,1.796176,12.102575,44.934261,289.161583,90.248398,2.167289,3.000000,-93.169800,12.021235,2025-03-27T21:30:06.999-05:00,-0.222851,-0.964666,-0.019276,2025-03-27T21:30:06.615-05:00,-0.039987,0.108536,0.037376,2025-03-27T21:30:06.613-05:00
54.000000,262.014591,1.749982,11.761636,44.934262,289.424591,90.248398,2.086983,3.000000,-93.169646,12.053185,2025-03-27T21:30:07.999-05:00,-0.222829,-0.963501,-0.033997,2025-03-27T21:30:07.610-05:00,-0.006725,0.114542,-0.071549,2025-03-27T21:30:07.608-05:00
55.000000,262.188852,1.777567,12.011989,44.934260,289.598852,90.248398,2.045738,3.000000,-93.169496,11.989796,2025-03-27T21:30:08.999-05:00,-0.218286,-0.980551,-0.032234,2025-03-27T21:30:08.615-05:00,0.096946,-0.075570,-0.061665,2025-03-27T21:30:08.612-05:00
56.000000,262.266376,1.773159,11.863905,44.934260,289.676376,90.364525,2.023885,3.000000,-93.169342,12.107575,2025-03-27T21:30:09.999-05:00,-0.217901,-0.975243,-0.027691,2025-03-27T21:30:09.610-05:00,0.086845,-0.015371,-0.002135,2025-03-27T21:30:09.617-05:00
57.000000,262.463143,1.777363,11.773494,44.934258,289.873142,90.364525,2.012481,3.000000,-93.169187,12.229581,2025-03-27T21:30:11.000-05:00,-0.218483,-0.972745,-0.017637,2025-03-27T21:30:10.614-05:00,0.073147,0.007198,0.074936,2025-03-27T21:30:10.612-05:00
58.000000,262.430493,1.772714,11.657346,44.934259,289.840493,90.364525,2.006486,3.000000,-93.169032,12.319974,2025-03-27T21:30:12.000-05:00,-0.225287,-0.973162,-0.026289,2025-03-27T21:30:11.609-05:00,0.043066,-0.012913,0.011340,2025-03-27T21:30:11.617-05:00
59.000000,262.547233,1.763206,11.530409,44.934257,289.957233,90.313034,2.071319,3.000000,-93.168875,12.388908,2025-03-27T21:30:13.000-05:00,-0.248938,-0.967191,-0.025173,2025-03-27T21:30:12.614-05:00,-0.233234,0.076610,0.016496,2025-03-27T21:30:12.612-05:00
60.000000,262.633001,1.743712,11.540481,44.934257,290.043000,90.313034,2.036818,3.000000,-93.168720,12.239875,2025-03-27T21:30:14.000-05:00,-0.244780,-0.969529,-0.030849,2025-03-27T21:30:13.609-05:00,-0.187909,0.034478,-0.001082,2025-03-27T21:30:13.616-05:00
61.000000,262.571550,1.758665,11.942974,44.934258,289.981550,90.313034,2.019147,3.000000,-93.168571,11.929159,2025-03-27T21:30:15.000-05:00,-0.234533,-0.971773,-0.032721,2025-03-27T21:30:14.614-05:00,-0.075315,0.021489,0.024615,2025-03-27T21:30:14.611-05:00
62.000000,262.550444,1.772311,12.121269,44.934259,289.960444,90.332481,2.122789,3.000000,-93.168421,11.845504,2025-03-27T21:30:16.000-05:00,-0.231881,-0.970698,-0.042505,2025-03-27T21:30:15.609-05:00,-0.053788,0.033622,-0.067821,2025-03-27T21:30:15.616-05:00
63.000000,262.805549,1.784143,12.044407,44.934257,290.215549,90.332481,2.063788,3.000000,-93.168264,12.000065,2025-03-27T21:30:17.000-05:00,-0.252944,-0.963228,-0.041735,2025-03-27T21:30:16.613-05:00,-0.234880,0.088516,-0.088244,2025-03-27T21:30:16.611-05:00
64.000000,262.750932,1.774502,12.186680,44.934257,290.160932,90.332481,2.033478,3.000000,-93.168115,11.796129,2025-03-27T21:30:18.000-05:00,-0.287825,-0.962004,-0.042875,2025-03-27T21:30:17.608-05:00,-0.570119,0.101738,-0.061171,2025-03-27T21:30:17.616-05:00
65.000000,262.813919,1.790533,12.819617,44.934257,290.223919,90.332481,2.017739,3.000000,-93.167973,11.315442,2025-03-27T21:30:19.000-05:00,-0.331260,-0.947434,-0.052432,2025-03-27T21:30:18.613-05:00,-0.977479,0.242085,-0.131107,2025-03-27T21:30:18.611-05:00
66.000000,262.810876,1.825452,14.233761,44.934257,290.220876,90.332481,2.009639,3.000000,-93.167843,10.371465,2025-03-27T21:30:20.000-05:00,-0.344878,-0.943550,-0.056844,2025-03-27T21:30:19.608-05:00,-1.091887,0.274220,-0.162241,2025-03-27T21:30:19.615-05:00
67.000000,263.037272,1.907232,16.610423,44.934257,290.447272,90.332481,2.005464,3.000000,-93.167730,9.200038,2025-03-27T21:30:21.000-05:00,-0.356314,-0.939516,-0.074373,2025-03-27T21:30:20.613-05:00,-1.141886,0.295690,-0.282347,2025-03-27T21:30:20.610-05:00
68.000000,263.013010,1.969652,20.024915,44.934252,290.423010,90.332481,2.262346,3.000000,-93.167632,7.909577,2025-03-27T21:30:22.000-05:00,-0.381705,-0.932342,-0.068324,2025-03-27T21:30:21.608-05:00,-1.271791,0.338135,-0.217085,2025-03-27T21:30:21.615-05:00
69.000000,263.020619,2.072625,25.493221,44.934254,290.430619,90.332481,2.163661,3.000000,-93.167552,6.511388,2025-03-27T21:30:23.000-05:00,-0.379500,-0.934635,-0.063732,2025-03-27T21:30:22.612-05:00,-1.154014,0.289470,-0.180907,2025-03-27T21:30:22.610-05:00
70.000000,263.067401,2.230362,35.150929,44.934255,290.477401,90.332481,2.121130,3.000000,-93.167493,5.018805,2025-03-27T21:30:24.000-05:00,-0.354867,-0.940997,-0.066405,2025-03-27T21:30:23.617-05:00,-0.882971,0.212124,-0.163016,2025-03-27T21:30:23.615-05:00
71.000000,263.102844,2.451158,49.739884,44.934255,290.512844,90.332481,2.096904,3.000000,-93.167450,3.721634,2025-03-27T21:30:25.000-05:00,-0.341291,-0.944555,-0.064385,2025-03-27T21:30:24.612-05:00,-0.734724,0.176102,-0.140019,2025-03-27T21:30:24.610-05:00
72.000000,263.155434,2.936848,70.153436,44.934256,290.565434,90.332481,2.080753,3.000000,-93.167423,2.571580,2025-03-27T21:30:26.000-05:00,-0.305807,-0.952448,-0.057834,2025-03-27T21:30:25.617-05:00,-0.387092,0.099215,-0.063157,2025-03-27T21:30:25.614-05:00
73.000000,263.158458,3.130188,109.867086,44.934256,290.568458,90.332481,2.095237,3.000000,-93.167407,1.612537,2025-03-27T21:30:27.000-05:00,-0.274511,-0.961197,-0.049821,2025-03-27T21:30:26.612-05:00,-0.065897,0.009416,-0.007399,2025-03-27T21:30:26.609-05:00
74.000000,,,,,,,,,,,,-0.287789,-0.955798,-0.054932,2025-03-27T21:30:27.617-05:00,-0.185788,0.063526,-0.042829,2025-03-27T21:30:27.614-05:00
