seconds_elapsed,location_altitude,location_speedAccuracy,location_bearingAccuracy,location_latitude,location_altitudeAboveMeanSeaLevel,location_bearing,location_horizontalAccuracy,location_verticalAccuracy,location_longitude,location_speed,location_local_time,accelerometerUncalibrated_z,accelerometerUncalibrated_y,accelerometerUncalibrated_x,accelerometerUncalibrated_local_time,accelerometer_z,accelerometer_y,accelerometer_x,accelerometer_local_time
0.000000,259.733252,0.296121,7.535898,44.934341,287.143252,301.808646,2.416469,3.000000,-93.171030,4.374505,2025-03-27T21:36:14.000-05:00,-0.209374,-0.978051,-0.225766,2025-03-27T21:36:13.603-05:00,-0.145444,0.015710,-1.711794,2025-03-27T21:36:13.611-05:00
1.000000,259.573527,0.306163,7.509649,44.934375,286.983526,322.310832,2.453815,3.000000,-93.171068,4.553658,2025-03-27T21:36:15.000-05:00,-0.189629,-0.978376,-0.229772,2025-03-27T21:36:14.588-05:00,-0.077488,0.029451,-1.676060,2025-03-27T21:36:14.586-05:00
2.000000,259.593358,0.312070,7.324332,44.934419,287.003358,344.057092,2.397088,3.000000,-93.171087,4.776612,2025-03-27T21:36:16.000-05:00,-0.142447,-0.971763,-0.117923,2025-03-27T21:36:15.593-05:00,0.316967,0.108430,-0.603238,2025-03-27T21:36:15.590-05:00
3.000000,259.705846,0.309285,7.357181,44.934466,287.115846,359.913300,4.106411,3.000000,-93.171044,5.270628,2025-03-27T21:36:17.000-05:00,-0.133595,-0.997590,-0.070136,2025-03-27T21:36:16.588-05:00,0.478528,-0.159661,-0.239184,2025-03-27T21:36:16.585-05:00
4.000000,259.798716,0.316474,7.258792,44.934518,287.208716,359.913300,4.341491,3.000000,-93.171044,5.876055,2025-03-27T21:36:18.000-05:00,-0.126371,-1.003932,-0.057789,2025-03-27T21:36:17.593-05:00,0.474254,-0.169700,-0.117814,2025-03-27T21:36:17.590-05:00
5.000000,259.961747,0.328664,7.257478,44.934578,287.371746,359.913300,4.815792,3.000000,-93.171044,6.626633,2025-03-27T21:36:19.000-05:00,-0.152115,-0.980032,-0.047256,2025-03-27T21:36:18.587-05:00,0.231564,0.019972,0.007969,2025-03-27T21:36:18.585-05:00
6.000000,259.943448,0.292136,7.258774,44.934648,287.353448,359.913300,2.334294,3.000000,-93.171050,7.629511,2025-03-27T21:36:20.000-05:00,-0.167014,-0.989713,-0.034700,2025-03-27T21:36:19.592-05:00,0.094515,-0.076274,0.036957,2025-03-27T21:36:19.590-05:00
7.000000,260.074037,0.299017,7.258862,44.934725,287.484037,359.913300,2.249198,3.000000,-93.171049,8.185919,2025-03-27T21:36:21.000-05:00,-0.184476,-0.988377,-0.042462,2025-03-27T21:36:20.587-05:00,-0.137307,-0.044324,0.078153,2025-03-27T21:36:20.585-05:00
8.000000,260.176256,0.292596,7.258555,44.934808,287.586256,359.913300,2.171252,3.000000,-93.171047,8.643404,2025-03-27T21:36:22.000-05:00,-0.194986,-0.974572,-0.047946,2025-03-27T21:36:21.592-05:00,-0.301870,0.112321,0.014366,2025-03-27T21:36:21.589-05:00
9.000000,260.220707,0.303314,7.258892,44.934888,287.630707,359.913300,2.112303,3.000000,-93.171048,8.944382,2025-03-27T21:36:23.000-05:00,-0.208668,-0.978185,-0.047565,2025-03-27T21:36:22.587-05:00,-0.410712,0.043229,-0.104685,2025-03-27T21:36:22.594-05:00
10.000000,260.405317,0.308979,7.258968,44.934969,287.815317,359.913300,2.072261,3.000000,-93.171047,8.979741,2025-03-27T21:36:24.000-05:00,-0.223216,-0.961120,-0.033236,2025-03-27T21:36:23.592-05:00,-0.540901,0.260635,0.008804,2025-03-27T21:36:23.589-05:00
11.000000,260.490970,0.301719,7.258665,44.935050,287.900970,359.913300,2.103731,3.000000,-93.171047,9.020224,2025-03-27T21:36:25.000-05:00,-0.212777,-0.978624,-0.051776,2025-03-27T21:36:24.587-05:00,-0.395645,0.035990,-0.059330,2025-03-27T21:36:24.594-05:00
12.000000,260.540830,0.303661,7.258796,44.935130,287.950830,359.913300,2.066755,3.000000,-93.171045,8.882684,2025-03-27T21:36:26.000-05:00,-0.237635,-0.960812,-0.038464,2025-03-27T21:36:25.591-05:00,-0.564309,0.223470,0.053725,2025-03-27T21:36:25.589-05:00
13.000000,260.754223,0.299634,7.258340,44.935214,288.164223,359.913300,2.042571,3.000000,-93.171044,8.994586,2025-03-27T21:36:27.000-05:00,-0.223148,-0.966027,-0.008484,2025-03-27T21:36:26.586-05:00,-0.340703,0.157271,0.258083,2025-03-27T21:36:26.594-05:00
14.000000,260.661034,0.298842,7.258295,44.935295,288.071034,359.913300,2.027346,3.000000,-93.171043,9.117957,2025-03-27T21:36:28.000-05:00,-0.228690,-0.973530,-0.033561,2025-03-27T21:36:27.591-05:00,-0.358362,0.064959,0.068014,2025-03-27T21:36:27.589-05:00
15.000000,260.656756,0.303797,7.258844,44.935377,288.066756,359.913300,2.017573,3.000000,-93.171043,9.140796,2025-03-27T21:36:29.000-05:00,-0.218389,-0.969349,-0.048772,2025-03-27T21:36:28.586-05:00,-0.189769,0.089614,-0.029477,2025-03-27T21:36:28.593-05:00
16.000000,260.792030,0.299053,7.258469,44.935460,288.202030,359.913300,2.011181,3.000000,-93.171043,9.205085,2025-03-27T21:36:30.000-05:00,-0.244757,-0.972571,-0.061365,2025-03-27T21:36:29.591-05:00,-0.421674,0.056243,-0.007653,2025-03-27T21:36:29.588-05:00
17.000000,260.815761,0.303069,7.258824,44.935539,288.225761,359.913300,2.007184,3.000000,-93.171046,8.978284,2025-03-27T21:36:31.000-05:00,-0.248241,-0.967908,-0.058460,2025-03-27T21:36:30.586-05:00,-0.534749,0.101228,-0.018631,2025-03-27T21:36:30.593-05:00
18.000000,260.846395,0.308519,7.258973,44.935617,288.256395,0.248378,2.004642,3.000000,-93.171046,8.642265,2025-03-27T21:36:32.000-05:00,-0.267220,-0.955375,-0.066178,2025-03-27T21:36:31.590-05:00,-0.588220,0.212665,-0.053884,2025-03-27T21:36:31.588-05:00
19.000000,260.722144,0.293794,7.257506,44.935692,288.132144,0.248378,2.003045,3.000000,-93.171047,8.363903,2025-03-27T21:36:33.000-05:00,-0.237527,-0.949254,-0.055871,2025-03-27T21:36:32.585-05:00,-0.282919,0.251944,0.042830,2025-03-27T21:36:32.593-05:00
20.000000,260.724749,0.299112,7.258561,44.935768,288.134749,0.248378,2.001997,3.000000,-93.171047,8.325605,2025-03-27T21:36:34.000-05:00,-0.215699,-0.997794,-0.071384,2025-03-27T21:36:33.590-05:00,-0.079717,-0.197127,-0.001164,2025-03-27T21:36:33.588-05:00
21.000000,260.671224,0.301599,7.258719,44.935845,288.081224,0.248378,2.001330,3.000000,-93.171047,8.471784,2025-03-27T21:36:35.000-05:00,-0.230078,-0.955105,-0.057800,2025-03-27T21:36:34.585-05:00,-0.248197,0.217117,0.154916,2025-03-27T21:36:34.592-05:00
22.000000,261.017684,0.309435,7.258963,44.935921,288.427684,0.248378,2.000881,3.000000,-93.171043,8.461261,2025-03-27T21:36:36.000-05:00,-0.247070,-0.964803,-0.087516,2025-03-27T21:36:35.590-05:00,-0.346764,0.084685,-0.163649,2025-03-27T21:36:35.587-05:00
23.000000,260.514388,0.306248,7.258956,44.935986,287.924387,359.387665,2.000603,3.000000,-93.171057,8.011933,2025-03-27T21:36:37.000-05:00,-0.254326,-0.963734,-0.064007,2025-03-27T21:36:36.585-05:00,-0.348092,0.097814,0.040279,2025-03-27T21:36:36.592-05:00
24.000000,260.353756,0.312683,7.258866,44.936053,287.763756,359.387665,2.765726,3.000000,-93.171062,7.567676,2025-03-27T21:36:38.000-05:00,-0.258345,-0.967948,-0.091455,2025-03-27T21:36:37.589-05:00,-0.422584,0.056411,-0.168119,2025-03-27T21:36:37.587-05:00
25.000000,260.162789,0.306640,7.258965,44.936125,287.572789,357.458069,2.631838,3.000000,-93.171062,7.364629,2025-03-27T21:36:39.000-05:00,-0.248719,-0.966284,-0.060467,2025-03-27T21:36:38.594-05:00,-0.285253,0.074532,0.023428,2025-03-27T21:36:38.592-05:00
26.000000,259.729284,0.298627,7.258465,44.936210,287.139284,0.000000,2.405046,3.000000,-93.171049,7.739115,2025-03-27T21:36:40.000-05:00,-0.272319,-0.952500,-0.068916,2025-03-27T21:36:39.589-05:00,-0.476884,0.201149,-0.035918,2025-03-27T21:36:39.587-05:00
27.000000,259.598216,0.295792,7.258359,44.936277,287.008216,0.000000,2.277801,3.000000,-93.171048,7.398057,2025-03-27T21:36:41.000-05:00,-0.359476,-0.941276,-0.077650,2025-03-27T21:36:40.594-05:00,-1.222087,0.266978,-0.125970,2025-03-27T21:36:40.592-05:00
28.000000,259.672276,0.289307,7.295885,44.936334,287.082275,0.000000,2.193513,3.000000,-93.171047,6.201031,2025-03-27T21:36:42.000-05:00,-0.319931,-0.936619,-0.017949,2025-03-27T21:36:41.589-05:00,-0.831287,0.323700,0.361003,2025-03-27T21:36:41.586-05:00
29.000000,259.769660,0.284448,8.211503,44.936385,287.179660,0.000000,2.141278,3.000000,-93.171048,5.222831,2025-03-27T21:36:43.000-05:00,-0.327315,-0.971277,0.154107,2025-03-27T21:36:42.594-05:00,-0.779703,-0.025770,2.056112,2025-03-27T21:36:42.591-05:00
30.000000,259.688138,0.187156,13.774003,44.936434,287.098138,346.005310,2.113023,3.000000,-93.171066,4.629342,2025-03-27T21:36:44.000-05:00,-0.311917,-0.966048,0.153177,2025-03-27T21:36:43.589-05:00,-0.583971,0.003885,2.066440,2025-03-27T21:36:43.586-05:00
31.000000,259.710227,0.307920,14.727265,44.936495,287.120226,315.160126,2.093066,3.000000,-93.171093,4.524302,2025-03-27T21:36:45.000-05:00,-0.271240,-0.972852,0.149691,2025-03-27T21:36:44.593-05:00,-0.308265,-0.048939,1.891862,2025-03-27T21:36:44.591-05:00
32.000000,259.615736,0.245328,14.376130,44.936522,287.025736,288.345551,2.078772,3.000000,-93.171184,4.956870,2025-03-27T21:36:46.000-05:00,-0.231233,-0.968020,0.064637,2025-03-27T21:36:45.588-05:00,0.044086,0.039907,0.917238,2025-03-27T21:36:45.586-05:00
33.000000,259.563876,0.232459,9.776796,44.936514,286.973876,271.219452,2.066753,3.000000,-93.171280,5.677522,2025-03-27T21:36:47.000-05:00,-0.204637,-0.982462,-0.032347,2025-03-27T21:36:46.593-05:00,0.220521,-0.110700,-0.101116,2025-03-27T21:36:46.591-05:00
34.000000,259.377043,0.290206,7.257150,44.936516,286.787043,271.219452,2.056536,3.000000,-93.171369,6.483509,2025-03-27T21:36:48.000-05:00,-0.212722,-0.969585,-0.046551,2025-03-27T21:36:47.588-05:00,0.196423,0.066181,-0.326654,2025-03-27T21:36:47.585-05:00
35.000000,259.355488,0.299395,7.257850,44.936522,286.765488,269.578369,2.052221,3.000000,-93.171460,7.027636,2025-03-27T21:36:49.000-05:00,-0.228779,-0.965272,-0.032404,2025-03-27T21:36:48.593-05:00,-0.014779,0.063349,-0.267432,2025-03-27T21:36:48.590-05:00
36.000000,259.114995,0.292752,7.256224,44.936524,286.524995,269.578369,2.042094,3.000000,-93.171553,7.272801,2025-03-27T21:36:50.000-05:00,-0.251707,-0.973652,-0.047770,2025-03-27T21:36:49.588-05:00,-0.279339,0.012592,-0.462467,2025-03-27T21:36:49.585-05:00
37.000000,259.015288,0.296482,7.256832,44.936525,286.425288,269.578369,2.051687,3.000000,-93.171650,7.415558,2025-03-27T21:36:51.000-05:00,-0.250879,-0.960763,-0.049080,2025-03-27T21:36:50.592-05:00,-0.300947,0.149625,-0.527419,2025-03-27T21:36:50.590-05:00
38.000000,258.664296,0.295105,7.256420,44.936525,286.074296,269.578369,2.119416,3.000000,-93.171745,7.486161,2025-03-27T21:36:52.000-05:00,-0.249536,-0.966004,-0.063652,2025-03-27T21:36:51.587-05:00,-0.235607,0.081913,-0.639979,2025-03-27T21:36:51.585-05:00
39.000000,258.585258,0.296066,7.256909,44.936529,285.995257,269.578369,2.288402,3.000000,-93.171834,7.345915,2025-03-27T21:36:53.000-05:00,-0.269021,-0.947427,-0.072216,2025-03-27T21:36:52.592-05:00,-0.376221,0.208752,-0.696495,2025-03-27T21:36:52.590-05:00
40.000000,258.523165,0.295164,7.256805,44.936534,285.933164,269.662079,2.285132,3.000000,-93.171928,7.276374,2025-03-27T21:36:54.000-05:00,-0.285043,-0.974786,-0.013699,2025-03-27T21:36:53.587-05:00,-0.538538,0.021418,-0.301010,2025-03-27T21:36:53.585-05:00
41.000000,258.792363,0.298146,7.258198,44.936539,286.202363,269.662079,2.234936,3.000000,-93.172017,6.906135,2025-03-27T21:36:55.000-05:00,-0.300530,-0.945829,-0.019921,2025-03-27T21:36:54.592-05:00,-0.617907,0.246864,-0.295545,2025-03-27T21:36:54.589-05:00
42.000000,258.614551,0.288102,7.257289,44.936540,286.024551,269.599152,2.178107,3.000000,-93.172100,6.540630,2025-03-27T21:36:56.000-05:00,-0.335635,-0.950423,-0.033181,2025-03-27T21:36:55.587-05:00,-0.955583,0.195525,-0.401891,2025-03-27T21:36:55.594-05:00
43.000000,258.386799,0.290904,7.258590,44.936540,285.796799,269.599152,2.137385,3.000000,-93.172176,5.811050,2025-03-27T21:36:57.000-05:00,-0.380858,-0.936293,-0.053741,2025-03-27T21:36:56.592-05:00,-1.307004,0.328123,-0.546863,2025-03-27T21:36:56.589-05:00
44.000000,258.175354,0.283634,8.091598,44.936540,285.585354,268.258850,2.157012,3.000000,-93.172236,4.702898,2025-03-27T21:36:58.000-05:00,-0.383324,-0.934419,-0.051441,2025-03-27T21:36:57.586-05:00,-1.239473,0.312159,-0.495818,2025-03-27T21:36:57.594-05:00
45.000000,257.955576,0.305334,10.159867,44.936540,285.365576,268.258850,2.175911,3.000000,-93.172270,3.117594,2025-03-27T21:36:59.000-05:00,-0.377487,-0.933887,-0.048000,2025-03-27T21:36:58.591-05:00,-1.093946,0.296833,-0.445270,2025-03-27T21:36:58.589-05:00
46.000000,257.779649,0.301878,12.734663,44.936542,285.189649,268.258850,2.189298,3.000000,-93.172299,2.018701,2025-03-27T21:37:00.000-05:00,-0.353973,-0.942598,-0.045478,2025-03-27T21:36:59.586-05:00,-0.814038,0.195675,-0.366760,2025-03-27T21:36:59.594-05:00
47.000000,257.693799,0.303866,21.338328,44.936542,285.103799,268.258850,2.417415,3.000000,-93.172317,1.169413,2025-03-27T21:37:01.000-05:00,-0.315853,-0.951058,-0.042752,2025-03-27T21:37:00.591-05:00,-0.409017,0.103408,-0.298230,2025-03-27T21:37:00.588-05:00
48.000000,257.520380,0.305616,38.554003,44.936543,284.930380,268.258850,2.432427,3.000000,-93.172326,0.647218,2025-03-27T21:37:02.000-05:00,-0.211256,-0.977244,-0.017347,2025-03-27T21:37:01.586-05:00,0.600226,-0.147816,-0.070055,2025-03-27T21:37:01.593-05:00
49.000000,257.626188,0.306596,23.691488,44.936543,285.036188,268.258850,2.389185,3.000000,-93.172342,1.053338,2025-03-27T21:37:03.000-05:00,-0.122360,-0.998558,-0.005040,2025-03-27T21:37:02.591-05:00,1.415257,-0.342277,0.068870,2025-03-27T21:37:02.588-05:00
50.000000,257.605952,0.306080,10.895528,44.936543,285.015952,268.258850,2.353804,3.000000,-93.172372,2.290635,2025-03-27T21:37:04.000-05:00,-0.141561,-0.994075,-0.029251,2025-03-27T21:37:03.586-05:00,1.143739,-0.263062,-0.128949,2025-03-27T21:37:03.593-05:00
51.000000,257.611330,0.306729,9.495197,44.936544,285.021330,268.258850,2.426310,3.000000,-93.172418,3.515163,2025-03-27T21:37:05.000-05:00,-0.198746,-0.972534,-0.188821,2025-03-27T21:37:04.590-05:00,0.467979,-0.053529,-1.464902,2025-03-27T21:37:04.588-05:00
52.000000,257.652697,0.317385,23.173689,44.936531,285.062697,268.258850,2.401326,3.000000,-93.172462,4.531878,2025-03-27T21:37:06.000-05:00,-0.255742,-0.954732,-0.258300,2025-03-27T21:37:05.585-05:00,-0.118992,0.127671,-2.006413,2025-03-27T21:37:05.593-05:00
53.000000,257.562082,0.273415,31.091309,44.936530,284.972081,306.418691,4.887984,3.000000,-93.172490,4.803049,2025-03-27T21:37:07.000-05:00,-0.268192,-0.949382,-0.271295,2025-03-27T21:37:06.590-05:00,-0.355901,0.214785,-2.083863,2025-03-27T21:37:06.588-05:00
54.000000,257.541711,0.215303,38.091806,44.936537,284.951711,338.461626,7.067013,3.000000,-93.172494,4.872712,2025-03-27T21:37:08.000-05:00,-0.219506,-0.967668,-0.272815,2025-03-27T21:37:07.585-05:00,-0.027810,0.075166,-2.044579,2025-03-27T21:37:07.592-05:00
55.000000,257.998862,0.529605,36.998133,44.936594,285.408862,13.283798,9.699737,3.000000,-93.172593,4.819713,2025-03-27T21:37:09.000-05:00,-0.139246,-0.988836,-0.167015,2025-03-27T21:37:08.590-05:00,0.631678,-0.118252,-1.196298,2025-03-27T21:37:08.587-05:00
56.000000,257.633337,0.433237,19.089266,44.936641,285.043337,50.844765,2.353847,3.000000,-93.172440,5.244613,2025-03-27T21:37:10.000-05:00,-0.133153,-0.999314,-0.014698,2025-03-27T21:37:09.585-05:00,0.622548,-0.181532,0.018130,2025-03-27T21:37:09.592-05:00
57.000000,257.630631,0.333230,7.811174,44.936667,285.040631,50.844765,2.362978,3.000000,-93.172388,5.626544,2025-03-27T21:37:11.000-05:00,-0.157968,-0.987332,0.003291,2025-03-27T21:37:10.589-05:00,0.340691,-0.074352,0.230867,2025-03-27T21:37:10.587-05:00
58.000000,257.590266,0.316213,7.258748,44.936700,285.000266,48.821701,2.343874,3.000000,-93.172321,6.248735,2025-03-27T21:37:12.000-05:00,-0.186918,-0.984960,0.010115,2025-03-27T21:37:11.594-05:00,0.071671,-0.021562,0.353052,2025-03-27T21:37:11.592-05:00
59.000000,257.367121,0.312685,7.258792,44.936740,284.777121,47.900291,2.320835,3.000000,-93.172255,6.702120,2025-03-27T21:37:12.999-05:00,-0.190501,-0.975957,0.009515,2025-03-27T21:37:12.589-05:00,0.002698,0.041253,0.322171,2025-03-27T21:37:12.587-05:00
60.000000,257.338073,0.309833,7.258959,44.936786,284.748073,47.900291,2.281436,3.000000,-93.172188,7.177128,2025-03-27T21:37:13.999-05:00,-0.217311,-0.980887,0.004684,2025-03-27T21:37:13.594-05:00,-0.315790,0.015318,0.352098,2025-03-27T21:37:13.591-05:00
61.000000,257.253474,0.307484,7.258972,44.936832,284.663474,45.608593,2.356761,3.000000,-93.172116,7.328928,2025-03-27T21:37:14.999-05:00,-0.211201,-0.967361,-0.007827,2025-03-27T21:37:14.589-05:00,-0.241739,0.089998,0.288250,2025-03-27T21:37:14.586-05:00
62.000000,257.108245,0.310191,7.258930,44.936882,284.518245,42.777004,2.378310,3.000000,-93.172048,7.613519,2025-03-27T21:37:15.999-05:00,-0.218160,-0.968171,0.015545,2025-03-27T21:37:15.594-05:00,-0.374518,0.181859,0.463124,2025-03-27T21:37:15.591-05:00
63.000000,257.157648,0.305930,7.258931,44.936936,284.567648,42.777004,2.581707,3.000000,-93.171980,7.805485,2025-03-27T21:37:16.999-05:00,-0.239096,-0.985203,0.006726,2025-03-27T21:37:16.589-05:00,-0.523622,-0.038303,0.303662,2025-03-27T21:37:16.586-05:00
64.000000,257.680606,0.308175,7.258974,44.936990,285.090606,39.983784,2.418177,3.000000,-93.171917,7.630831,2025-03-27T21:37:17.999-05:00,-0.224149,-0.965585,-0.014994,2025-03-27T21:37:17.593-05:00,-0.448504,0.204332,0.229900,2025-03-27T21:37:17.591-05:00
65.000000,257.884873,0.303428,7.258764,44.937047,285.294873,36.545368,2.301265,3.000000,-93.171856,7.773381,2025-03-27T21:37:18.999-05:00,-0.249344,-0.981831,-0.008284,2025-03-27T21:37:18.588-05:00,-0.531288,-0.028786,0.275682,2025-03-27T21:37:18.586-05:00
66.000000,258.080922,0.302273,7.258671,44.937105,285.490922,34.095852,2.216633,3.000000,-93.171798,7.759004,2025-03-27T21:37:19.999-05:00,-0.235076,-0.970623,0.039515,2025-03-27T21:37:19.593-05:00,-0.433622,0.111332,0.421613,2025-03-27T21:37:19.591-05:00
67.000000,258.371014,0.314788,7.258598,44.937165,285.781014,34.095852,2.155278,3.000000,-93.171745,7.574301,2025-03-27T21:37:20.999-05:00,-0.250340,-0.959790,0.051297,2025-03-27T21:37:20.588-05:00,-0.537866,0.213363,0.520396,2025-03-27T21:37:20.585-05:00
68.000000,258.348503,0.305700,7.258934,44.937218,285.758503,29.048929,2.113585,3.000000,-93.171688,7.605152,2025-03-27T21:37:21.999-05:00,-0.226783,-0.961041,0.035013,2025-03-27T21:37:21.593-05:00,-0.239904,0.157646,0.385468,2025-03-27T21:37:21.590-05:00
69.000000,258.783664,0.313455,7.258839,44.937282,286.193664,27.551493,2.283117,3.000000,-93.171641,7.596234,2025-03-27T21:37:22.999-05:00,-0.247441,-0.966140,0.043096,2025-03-27T21:37:22.588-05:00,-0.414907,0.158950,0.442779,2025-03-27T21:37:22.585-05:00
70.000000,258.784234,0.312506,7.258873,44.937344,286.194234,23.538424,2.207400,3.000000,-93.171604,7.669974,2025-03-27T21:37:23.999-05:00,-0.247092,-0.973343,0.011095,2025-03-27T21:37:23.592-05:00,-0.436519,0.024158,0.069754,2025-03-27T21:37:23.590-05:00
71.000000,258.940931,0.320252,7.258563,44.937405,286.350931,23.538424,2.150583,3.000000,-93.171569,7.112679,2025-03-27T21:37:24.999-05:00,-0.253946,-0.968988,0.025386,2025-03-27T21:37:24.587-05:00,-0.460067,0.112076,0.305399,2025-03-27T21:37:24.585-05:00
72.000000,258.938808,0.311125,7.258946,44.937468,286.348807,17.952246,2.111715,3.000000,-93.171537,6.952107,2025-03-27T21:37:25.999-05:00,-0.239233,-0.977140,0.030784,2025-03-27T21:37:25.592-05:00,-0.315521,-0.004163,0.332167,2025-03-27T21:37:25.590-05:00
73.000000,259.055884,0.328536,7.257784,44.937531,286.465884,17.952246,2.119137,3.000000,-93.171509,7.094153,2025-03-27T21:37:26.999-05:00,-0.241853,-0.954081,0.006421,2025-03-27T21:37:26.587-05:00,-0.322378,0.219718,0.256951,2025-03-27T21:37:26.594-05:00
74.000000,259.320388,0.317595,7.258775,44.937589,286.730387,16.142815,2.089676,3.000000,-93.171486,6.626053,2025-03-27T21:37:27.999-05:00,-0.243621,-0.975743,-0.001040,2025-03-27T21:37:27.592-05:00,-0.314176,0.029718,0.154450,2025-03-27T21:37:27.589-05:00
75.000000,259.383145,0.339081,7.257540,44.937652,286.793145,13.623210,2.067197,3.000000,-93.171469,6.633199,2025-03-27T21:37:28.999-05:00,-0.232376,-0.970861,-0.014707,2025-03-27T21:37:28.587-05:00,-0.250312,0.092103,0.075206,2025-03-27T21:37:28.594-05:00
76.000000,259.588492,0.335160,7.257155,44.937709,286.998492,12.481213,2.059481,3.000000,-93.171462,6.398321,2025-03-27T21:37:29.999-05:00,-0.232587,-0.979774,-0.062984,2025-03-27T21:37:29.591-05:00,-0.191098,-0.056919,-0.335791,2025-03-27T21:37:29.589-05:00
77.000000,259.537794,0.327467,7.256381,44.937767,286.947794,11.058791,2.045433,3.000000,-93.171427,6.479680,2025-03-27T21:37:30.999-05:00,-0.213242,-0.960379,-0.027265,2025-03-27T21:37:30.586-05:00,-0.002105,0.183483,0.024699,2025-03-27T21:37:30.594-05:00
78.000000,259.483966,0.322974,7.257770,44.937824,286.893966,8.879436,2.061130,3.000000,-93.171412,6.367800,2025-03-27T21:37:32.000-05:00,-0.223593,-0.975735,-0.008593,2025-03-27T21:37:31.591-05:00,-0.017919,-0.031251,0.231744,2025-03-27T21:37:31.589-05:00
79.000000,259.434998,0.318194,7.258304,44.937886,286.844998,6.692697,2.049132,3.000000,-93.171398,6.652543,2025-03-27T21:37:33.000-05:00,-0.221135,-0.971720,0.020282,2025-03-27T21:37:32.586-05:00,-0.031847,0.047877,0.410256,2025-03-27T21:37:32.594-05:00
80.000000,259.414809,0.316578,7.258497,44.937950,286.824809,2.274361,2.038969,3.000000,-93.171389,6.695035,2025-03-27T21:37:34.000-05:00,-0.221651,-0.979967,-0.018886,2025-03-27T21:37:33.591-05:00,-0.037440,-0.051052,0.124715,2025-03-27T21:37:33.588-05:00
81.000000,259.334587,0.309243,7.258965,44.938018,286.744587,1.070861,2.222278,3.000000,-93.171386,7.011508,2025-03-27T21:37:35.000-05:00,-0.174806,-0.976263,-0.034960,2025-03-27T21:37:34.586-05:00,0.388329,-0.011403,0.047018,2025-03-27T21:37:34.593-05:00
82.000000,259.437565,0.311891,7.258892,44.938087,286.847565,358.442596,2.172917,3.000000,-93.171387,7.386150,2025-03-27T21:37:36.000-05:00,-0.178488,-0.965559,-0.011418,2025-03-27T21:37:35.591-05:00,0.477763,0.085527,0.119111,2025-03-27T21:37:35.588-05:00
83.000000,259.322092,0.284552,7.258414,44.938160,286.732092,355.715698,2.131625,3.000000,-93.171391,8.027450,2025-03-27T21:37:37.000-05:00,-0.191163,-0.990090,-0.030716,2025-03-27T21:37:36.585-05:00,0.430055,-0.186513,0.017299,2025-03-27T21:37:36.593-05:00
84.000000,259.170637,0.284150,7.258215,44.938238,286.580637,352.446136,2.094070,3.000000,-93.171402,8.527732,2025-03-27T21:37:38.000-05:00,-0.195851,-0.982085,-0.016004,2025-03-27T21:37:37.590-05:00,0.465053,-0.122509,0.165378,2025-03-27T21:37:37.588-05:00
85.000000,259.209771,0.266819,7.257341,44.938323,286.619771,354.089935,2.063275,3.000000,-93.171414,9.116937,2025-03-27T21:37:39.000-05:00,-0.211156,-0.950421,-0.036377,2025-03-27T21:37:38.585-05:00,0.266733,0.200751,0.056333,2025-03-27T21:37:38.593-05:00
86.000000,258.925167,0.221439,7.256085,44.938414,286.335167,357.279816,2.039733,3.000000,-93.171426,9.988172,2025-03-27T21:37:40.000-05:00,-0.246261,-0.975239,-0.072015,2025-03-27T21:37:39.590-05:00,-0.084418,-0.054729,-0.197028,2025-03-27T21:37:39.587-05:00
87.000000,258.786638,0.267691,7.256787,44.938500,286.196638,358.654480,2.024472,3.000000,-93.171438,9.654577,2025-03-27T21:37:41.000-05:00,-0.246939,-0.967596,-0.072547,2025-03-27T21:37:40.585-05:00,-0.070502,0.032940,-0.294424,2025-03-27T21:37:40.592-05:00
88.000000,258.519285,0.262268,7.254449,44.938587,285.929285,357.329132,2.388584,3.000000,-93.171450,9.818860,2025-03-27T21:37:42.000-05:00,-0.236035,-0.966495,-0.062609,2025-03-27T21:37:41.590-05:00,0.037702,0.017054,-0.198313,2025-03-27T21:37:41.587-05:00
89.000000,258.399444,0.272944,7.256448,44.938674,285.809443,357.039703,2.395200,3.000000,-93.171461,9.963941,2025-03-27T21:37:43.000-05:00,-0.243734,-0.964263,-0.096522,2025-03-27T21:37:42.585-05:00,-0.122627,0.080250,-0.430263,2025-03-27T21:37:42.592-05:00
90.000000,258.085019,0.281025,7.257048,44.938763,285.495019,357.039703,2.240792,3.000000,-93.171454,9.886685,2025-03-27T21:37:44.000-05:00,-0.255220,-0.957531,-0.087924,2025-03-27T21:37:43.589-05:00,-0.121719,0.096011,-0.455056,2025-03-27T21:37:43.587-05:00
91.000000,257.607064,0.270208,7.255448,44.938853,285.017064,356.274811,2.174399,3.000000,-93.171457,9.867507,2025-03-27T21:37:45.000-05:00,-0.251000,-0.961463,-0.082032,2025-03-27T21:37:44.594-05:00,-0.169613,0.084495,-0.275455,2025-03-27T21:37:44.592-05:00
92.000000,257.265188,0.279368,7.256575,44.938939,284.675188,356.274811,2.441824,3.000000,-93.171458,9.695191,2025-03-27T21:37:46.000-05:00,-0.262186,-0.980940,-0.068775,2025-03-27T21:37:45.589-05:00,-0.330265,-0.068492,-0.281221,2025-03-27T21:37:45.587-05:00
93.000000,257.243731,0.300289,7.258901,44.939024,284.653731,356.274811,2.273190,3.000000,-93.171453,9.448926,2025-03-27T21:37:47.000-05:00,-0.250937,-0.946507,-0.068436,2025-03-27T21:37:46.594-05:00,-0.144997,0.245511,-0.215312,2025-03-27T21:37:46.591-05:00
94.000000,256.992464,0.270094,7.255682,44.939113,284.402464,356.737976,2.431965,3.000000,-93.171455,9.662713,2025-03-27T21:37:48.000-05:00,-0.252954,-0.970974,-0.043084,2025-03-27T21:37:47.589-05:00,-0.261727,0.037468,-0.172486,2025-03-27T21:37:47.586-05:00
95.000000,256.952549,0.290345,7.258202,44.939198,284.362548,359.175873,2.269106,3.000000,-93.171454,9.675604,2025-03-27T21:37:49.000-05:00,-0.265741,-0.965616,-0.014507,2025-03-27T21:37:48.594-05:00,-0.229091,0.035293,0.036325,2025-03-27T21:37:48.591-05:00
96.000000,256.881699,0.285959,7.258270,44.939278,284.291699,359.175873,2.259981,3.000000,-93.171455,9.431216,2025-03-27T21:37:50.000-05:00,-0.264705,-0.967933,-0.019541,2025-03-27T21:37:49.588-05:00,-0.279933,0.010098,-0.020680,2025-03-27T21:37:49.586-05:00
97.000000,256.741294,0.289386,7.258210,44.939361,284.151294,359.175873,2.164335,3.000000,-93.171453,9.298847,2025-03-27T21:37:51.000-05:00,-0.240484,-0.966040,-0.028636,2025-03-27T21:37:50.593-05:00,-0.029916,0.009625,-0.111147,2025-03-27T21:37:50.591-05:00
98.000000,256.522520,0.289936,7.258109,44.939438,283.932520,0.331670,2.201830,3.000000,-93.171455,9.026549,2025-03-27T21:37:52.000-05:00,-0.230439,-0.972064,-0.016890,2025-03-27T21:37:51.588-05:00,0.102139,0.039125,0.163172,2025-03-27T21:37:51.586-05:00
99.000000,256.532021,0.289313,7.257984,44.939525,283.942021,0.331670,2.127300,3.000000,-93.171454,9.288517,2025-03-27T21:37:53.000-05:00,-0.255816,-0.958058,-0.023672,2025-03-27T21:37:52.593-05:00,-0.171511,0.108353,0.017456,2025-03-27T21:37:52.591-05:00
100.000000,256.498720,0.292335,7.258198,44.939606,283.908720,0.000000,2.080617,3.000000,-93.171456,9.009654,2025-03-27T21:37:54.000-05:00,-0.295492,-0.962149,-0.037916,2025-03-27T21:37:53.588-05:00,-0.518734,0.084462,-0.079201,2025-03-27T21:37:53.585-05:00
101.000000,256.552204,0.291740,7.258362,44.939687,283.962204,0.000000,2.050986,3.000000,-93.171458,8.725092,2025-03-27T21:37:55.000-05:00,-0.339964,-0.939649,-0.061234,2025-03-27T21:37:54.593-05:00,-0.976350,0.292843,-0.332255,2025-03-27T21:37:54.590-05:00
102.000000,256.518252,0.259590,7.258188,44.939758,283.928252,0.000000,2.032884,3.000000,-93.171457,7.801384,2025-03-27T21:37:56.000-05:00,-0.373881,-0.944523,-0.059200,2025-03-27T21:37:55.588-05:00,-1.280101,0.258372,-0.265489,2025-03-27T21:37:55.585-05:00
103.000000,256.590503,0.284823,7.258713,44.939816,284.000503,0.000000,2.022596,3.000000,-93.171457,6.536042,2025-03-27T21:37:57.000-05:00,-0.334409,-0.939716,-0.048330,2025-03-27T21:37:56.592-05:00,-0.814364,0.267246,-0.133417,2025-03-27T21:37:56.590-05:00
104.000000,256.568581,0.298662,7.258916,44.939864,283.978581,0.766423,2.026165,3.000000,-93.171456,5.345766,2025-03-27T21:37:58.000-05:00,-0.341420,-0.944861,-0.046917,2025-03-27T21:37:57.587-05:00,-0.836093,0.211573,-0.103739,2025-03-27T21:37:57.585-05:00
105.000000,256.434245,0.299957,7.258900,44.939901,283.844245,0.766423,2.020932,3.000000,-93.171457,4.293918,2025-03-27T21:37:59.000-05:00,-0.353560,-0.940475,-0.053816,2025-03-27T21:37:58.592-05:00,-0.852879,0.233229,-0.126702,2025-03-27T21:37:58.590-05:00
106.000000,256.585106,0.299403,7.611133,44.939932,283.995106,0.766423,2.017444,3.000000,-93.171458,3.341048,2025-03-27T21:38:00.000-05:00,-0.349921,-0.946854,-0.069036,2025-03-27T21:37:59.587-05:00,-0.802373,0.139403,-0.220363,2025-03-27T21:37:59.585-05:00
107.000000,256.696318,0.307276,12.981190,44.939948,284.106318,0.766423,2.218395,3.000000,-93.171458,1.922630,2025-03-27T21:38:01.000-05:00,-0.290937,-0.955511,-0.053516,2025-03-27T21:38:00.592-05:00,-0.203006,0.049064,0.011302,2025-03-27T21:38:00.589-05:00
108.000000,256.818165,0.306233,15.426828,44.939966,284.228165,0.766423,2.191096,3.000000,-93.171460,1.617734,2025-03-27T21:38:02.000-05:00,-0.269018,-0.956428,-0.057156,2025-03-27T21:38:01.587-05:00,0.030532,0.042665,0.029936,2025-03-27T21:38:01.594-05:00
109.000000,256.813614,0.306288,19.580055,44.939980,284.223614,0.766423,2.296363,3.000000,-93.171459,1.274520,2025-03-27T21:38:03.000-05:00,-0.247924,-0.970276,-0.059017,2025-03-27T21:38:02.592-05:00,0.252692,-0.106056,0.015763,2025-03-27T21:38:02.589-05:00
110.000000,256.912838,0.307113,20.642316,44.939992,284.322838,0.766423,2.304374,3.000000,-93.171460,1.209041,2025-03-27T21:38:04.000-05:00,-0.150602,-0.991554,-0.037657,2025-03-27T21:38:03.586-05:00,1.107078,-0.284662,0.206007,2025-03-27T21:38:03.594-05:00
111.000000,256.892924,0.308642,13.580784,44.940009,284.302924,0.766423,2.329336,3.000000,-93.171462,1.837730,2025-03-27T21:38:05.000-05:00,-0.108506,-1.001282,-0.030805,2025-03-27T21:38:04.591-05:00,1.326840,-0.321603,0.223827,2025-03-27T21:38:04.589-05:00
112.000000,257.063524,0.317292,8.632458,44.940037,284.473524,0.766423,2.301892,3.000000,-93.171464,2.890122,2025-03-27T21:38:06.000-05:00,-0.116032,-0.994281,-0.059928,2025-03-27T21:38:05.586-05:00,1.115544,-0.202663,0.060659,2025-03-27T21:38:05.594-05:00
113.000000,257.342977,0.327651,7.257957,44.940074,284.752977,0.766423,2.278669,3.000000,-93.171465,3.918308,2025-03-27T21:38:07.000-05:00,-0.118285,-0.980414,-0.056008,2025-03-27T21:38:06.591-05:00,1.068029,-0.112059,0.093075,2025-03-27T21:38:06.588-05:00
114.000000,257.372452,0.307664,7.258974,44.940115,284.782452,0.766423,2.258764,3.000000,-93.171467,4.705941,2025-03-27T21:38:08.000-05:00,-0.163131,-0.980937,-0.052726,2025-03-27T21:38:07.586-05:00,0.979298,-0.174340,0.119770,2025-03-27T21:38:07.593-05:00
115.000000,257.239659,0.237846,7.256623,44.940164,284.649659,0.792686,2.241513,3.000000,-93.171465,5.620511,2025-03-27T21:38:09.000-05:00,-0.161392,-1.009342,-0.045998,2025-03-27T21:38:08.591-05:00,0.892958,-0.431179,0.149816,2025-03-27T21:38:08.588-05:00
116.000000,257.168593,0.304013,7.258946,44.940222,284.578593,0.792686,2.260699,3.000000,-93.171462,6.326150,2025-03-27T21:38:10.000-05:00,-0.189326,-0.983101,-0.054942,2025-03-27T21:38:09.586-05:00,0.357612,-0.094858,-0.045696,2025-03-27T21:38:09.593-05:00
117.000000,257.243937,0.298055,7.258901,44.940283,284.653937,2.715416,2.239073,3.000000,-93.171459,6.937744,2025-03-27T21:38:11.000-05:00,-0.185127,-0.969522,-0.110265,2025-03-27T21:38:10.590-05:00,0.303749,0.050027,-0.593260,2025-03-27T21:38:10.588-05:00
118.000000,257.296067,0.300396,7.258945,44.940344,284.706067,11.287860,2.214572,3.000000,-93.171448,7.140303,2025-03-27T21:38:12.000-05:00,-0.167746,-0.969831,-0.125775,2025-03-27T21:38:11.585-05:00,0.514880,0.039723,-0.699945,2025-03-27T21:38:11.593-05:00
119.000000,257.381456,0.251258,7.258418,44.940408,284.791456,14.105471,2.395446,3.000000,-93.171426,7.696116,2025-03-27T21:38:13.000-05:00,-0.158214,-0.986357,-0.133925,2025-03-27T21:38:12.590-05:00,0.586077,-0.119317,-0.811663,2025-03-27T21:38:12.588-05:00
120.000000,257.294489,0.286716,7.258880,44.940476,284.704489,20.918800,2.469702,3.000000,-93.171391,8.362094,2025-03-27T21:38:14.000-05:00,-0.202343,-0.981725,-0.126021,2025-03-27T21:38:13.585-05:00,0.099253,-0.045822,-0.839509,2025-03-27T21:38:13.592-05:00
121.000000,257.177537,0.287402,7.258864,44.940542,284.587537,30.510941,2.347031,3.000000,-93.171341,8.668409,2025-03-27T21:38:15.000-05:00,-0.230091,-0.959779,-0.145990,2025-03-27T21:38:14.590-05:00,-0.219927,0.161813,-0.937421,2025-03-27T21:38:14.587-05:00
122.000000,257.252901,0.278618,7.258743,44.940603,284.662901,30.510941,2.279662,3.000000,-93.171283,8.619088,2025-03-27T21:38:16.000-05:00,-0.240287,-0.968183,-0.173368,2025-03-27T21:38:15.585-05:00,-0.380114,0.085799,-1.061027,2025-03-27T21:38:15.592-05:00
123.000000,257.303706,0.278910,7.258713,44.940657,284.713705,43.928574,2.573180,3.000000,-93.171217,8.498960,2025-03-27T21:38:17.000-05:00,-0.204976,-0.961789,-0.107236,2025-03-27T21:38:16.590-05:00,-0.109271,0.155760,-0.492005,2025-03-27T21:38:16.587-05:00
124.000000,256.872553,0.290527,7.258782,44.940700,284.282552,51.639099,2.446644,3.000000,-93.171144,8.156390,2025-03-27T21:38:18.000-05:00,-0.221322,-0.982416,-0.082520,2025-03-27T21:38:17.594-05:00,-0.257200,-0.018882,-0.210910,2025-03-27T21:38:17.592-05:00
125.000000,256.838078,0.286654,7.258541,44.940745,284.248078,53.994267,2.304818,3.000000,-93.171066,8.149103,2025-03-27T21:38:19.000-05:00,-0.217833,-0.965472,-0.074661,2025-03-27T21:38:18.589-05:00,-0.203812,0.119545,0.017491,2025-03-27T21:38:18.587-05:00
126.000000,256.804731,0.286117,7.258131,44.940791,284.214731,53.994267,2.497753,3.000000,-93.170985,8.133535,2025-03-27T21:38:20.000-05:00,-0.234274,-0.971139,-0.045661,2025-03-27T21:38:19.594-05:00,-0.296767,0.040967,0.339339,2025-03-27T21:38:19.592-05:00
127.000000,256.607516,0.293508,7.258256,44.940837,284.017516,52.686302,2.340956,3.000000,-93.170904,8.088771,2025-03-27T21:38:21.000-05:00,-0.255212,-0.967406,-0.042086,2025-03-27T21:38:20.589-05:00,-0.516925,0.088265,0.455070,2025-03-27T21:38:20.586-05:00
128.000000,256.578139,0.291700,7.257911,44.940885,283.988138,47.670883,2.293147,3.000000,-93.170827,7.787829,2025-03-27T21:38:22.000-05:00,-0.272851,-0.953672,-0.023473,2025-03-27T21:38:21.594-05:00,-0.602701,0.174301,0.541131,2025-03-27T21:38:21.591-05:00
129.000000,256.188761,0.286592,7.258038,44.940935,283.598761,44.542931,2.199158,3.000000,-93.170760,7.514904,2025-03-27T21:38:23.000-05:00,-0.301351,-0.966418,-0.025429,2025-03-27T21:38:22.589-05:00,-0.837368,0.083181,0.504962,2025-03-27T21:38:22.586-05:00
130.000000,256.146703,0.272341,7.258214,44.940986,283.556703,39.291096,2.134923,3.000000,-93.170692,7.161503,2025-03-27T21:38:24.000-05:00,-0.321645,-0.947934,-0.011815,2025-03-27T21:38:23.593-05:00,-0.969935,0.251612,0.388786,2025-03-27T21:38:23.591-05:00
131.000000,256.250849,0.281917,7.258648,44.941031,283.660849,35.530674,2.094097,3.000000,-93.170638,6.340292,2025-03-27T21:38:25.000-05:00,-0.318053,-0.948659,-0.044782,2025-03-27T21:38:24.588-05:00,-0.880259,0.228042,0.133650,2025-03-27T21:38:24.586-05:00
132.000000,256.153121,0.282289,7.258556,44.941070,283.563121,35.530674,2.068552,3.000000,-93.170591,5.542219,2025-03-27T21:38:26.000-05:00,-0.319724,-0.947233,-0.031920,2025-03-27T21:38:25.593-05:00,-0.873762,0.240424,0.211359,2025-03-27T21:38:25.591-05:00
133.000000,256.210383,0.286340,7.258618,44.941105,283.620383,35.098206,2.059187,3.000000,-93.170553,4.682104,2025-03-27T21:38:27.000-05:00,-0.307187,-0.956187,-0.031187,2025-03-27T21:38:26.588-05:00,-0.647067,0.120209,0.234925,2025-03-27T21:38:26.586-05:00
134.000000,256.325756,0.287387,7.258617,44.941139,283.735756,29.604933,2.049322,3.000000,-93.170524,3.943520,2025-03-27T21:38:28.000-05:00,-0.257770,-0.966483,0.008571,2025-03-27T21:38:27.593-05:00,-0.119341,0.027284,0.542424,2025-03-27T21:38:27.590-05:00
135.000000,256.409419,0.285570,7.261979,44.941174,283.819419,24.616198,2.042276,3.000000,-93.170500,3.735512,2025-03-27T21:38:29.000-05:00,-0.246487,-0.965142,-0.001764,2025-03-27T21:38:28.588-05:00,0.032119,0.010313,0.390936,2025-03-27T21:38:28.585-05:00
136.000000,256.520423,0.285978,7.258545,44.941211,283.930423,19.460333,2.036992,3.000000,-93.170481,3.747720,2025-03-27T21:38:30.000-05:00,-0.227157,-0.974429,-0.016574,2025-03-27T21:38:29.593-05:00,0.273085,-0.068822,0.222807,2025-03-27T21:38:29.590-05:00
137.000000,256.535537,0.301317,7.258836,44.941248,283.945537,19.460333,2.054221,3.000000,-93.170465,3.962060,2025-03-27T21:38:31.000-05:00,-0.230637,-0.970637,-0.025662,2025-03-27T21:38:30.587-05:00,0.234667,-0.060523,0.189998,2025-03-27T21:38:30.585-05:00
138.000000,256.433321,0.296693,7.257918,44.941287,283.843321,19.460333,2.048799,3.000000,-93.170452,4.067886,2025-03-27T21:38:32.000-05:00,-0.270681,-0.965772,-0.049557,2025-03-27T21:38:31.592-05:00,-0.174734,0.010598,-0.030577,2025-03-27T21:38:31.590-05:00
139.000000,256.362278,0.301147,7.258742,44.941321,283.772278,10.037981,2.044363,3.000000,-93.170449,3.890270,2025-03-27T21:38:33.000-05:00,-0.341918,-0.943987,-0.052090,2025-03-27T21:38:32.587-05:00,-0.802110,0.213057,-0.164918,2025-03-27T21:38:32.585-05:00
140.000000,256.170826,0.279073,8.331028,44.941349,283.580825,10.037981,2.040666,3.000000,-93.170439,2.993704,2025-03-27T21:38:34.000-05:00,-0.342765,-0.943076,-0.061212,2025-03-27T21:38:33.592-05:00,-0.722058,0.192323,-0.329213,2025-03-27T21:38:33.590-05:00
141.000000,256.016499,0.296665,11.336112,44.941369,283.426499,10.037981,2.037538,3.000000,-93.170435,2.200344,2025-03-27T21:38:35.000-05:00,-0.323635,-0.948313,-0.059968,2025-03-27T21:38:34.587-05:00,-0.502728,0.125324,-0.302845,2025-03-27T21:38:34.594-05:00
