seconds_elapsed,location_altitude,location_speedAccuracy,location_bearingAccuracy,location_latitude,location_altitudeAboveMeanSeaLevel,location_bearing,location_horizontalAccuracy,location_verticalAccuracy,location_longitude,location_speed,location_local_time,accelerometerUncalibrated_z,accelerometerUncalibrated_y,accelerometerUncalibrated_x,accelerometerUncalibrated_local_time,accelerometer_z,accelerometer_y,accelerometer_x,accelerometer_local_time
0.000000,259.974815,-1.000000,-1.000000,44.941526,287.384815,-1.000000,26.241531,29.999976,-93.167100,-1.000000,2025-03-27T21:18:10.396-05:00,-0.164366,-0.966370,-0.022530,2025-03-27T21:18:10.394-05:00,0.536530,0.076427,0.104130,2025-03-27T21:18:10.417-05:00
1.000000,,,,,,,,,,,,-0.202868,-0.976226,-0.029268,2025-03-27T21:18:11.389-05:00,0.299885,-0.037396,-0.004546,2025-03-27T21:18:11.382-05:00
2.000000,,,,,,,,,,,,-0.205605,-0.984452,-0.013515,2025-03-27T21:18:12.384-05:00,0.200783,-0.102260,0.021412,2025-03-27T21:18:12.386-05:00
3.000000,258.058105,1.390000,10.102564,44.941501,285.468105,272.109375,14.000000,4.000000,-93.167547,8.950000,2025-03-27T21:18:14.193-05:00,-0.198702,-0.971313,-0.006274,2025-03-27T21:18:13.388-05:00,0.279737,0.020882,0.081235,2025-03-27T21:18:13.381-05:00
4.000000,260.119812,0.640000,4.099401,44.941488,287.529812,270.351562,4.403571,3.000000,-93.167676,10.080000,2025-03-27T21:18:15.190-05:00,-0.195907,-0.986510,-0.007976,2025-03-27T21:18:14.383-05:00,0.252144,-0.105606,0.065843,2025-03-27T21:18:14.386-05:00
5.000000,259.286865,0.600000,3.612075,44.941480,286.696865,267.890625,4.730385,3.000000,-93.167803,10.080000,2025-03-27T21:18:16.190-05:00,-0.204553,-0.969528,-0.011592,2025-03-27T21:18:15.388-05:00,0.133187,0.054512,0.030092,2025-03-27T21:18:15.380-05:00
6.000000,259.554810,0.660000,3.760399,44.941514,286.964809,269.648438,5.504186,3.000000,-93.167908,10.780000,2025-03-27T21:18:17.195-05:00,-0.215091,-0.979986,-0.017143,2025-03-27T21:18:16.382-05:00,0.035103,-0.046247,-0.002858,2025-03-27T21:18:16.385-05:00
7.000000,259.174072,1.160000,6.342981,44.941526,286.584072,271.757812,5.931837,3.000000,-93.168073,11.880000,2025-03-27T21:18:18.195-05:00,-0.215066,-0.971780,-0.032537,2025-03-27T21:18:17.387-05:00,-0.029535,0.052865,-0.091772,2025-03-27T21:18:17.380-05:00
8.000000,258.711304,0.530000,2.753842,44.941518,286.121304,270.000000,4.553215,3.000000,-93.168249,12.470000,2025-03-27T21:18:19.195-05:00,-0.232007,-0.969208,-0.030946,2025-03-27T21:18:18.382-05:00,-0.163689,0.069096,-0.072844,2025-03-27T21:18:18.384-05:00
9.000000,258.361450,0.510000,2.602578,44.941489,285.771450,269.296875,3.950822,3.000000,-93.168439,12.470000,2025-03-27T21:18:20.177-05:00,-0.248295,-0.967197,-0.031152,2025-03-27T21:18:19.386-05:00,-0.331382,0.090421,-0.055424,2025-03-27T21:18:19.389-05:00
10.000000,257.881042,1.050000,4.398601,44.941501,285.291042,268.945312,3.535534,3.000000,-93.168543,12.720000,2025-03-27T21:18:20.978-05:00,-0.253831,-0.966461,-0.035856,2025-03-27T21:18:20.381-05:00,-0.387943,0.096783,-0.068589,2025-03-27T21:18:20.384-05:00
11.000000,257.748108,0.830000,4.027744,44.941505,285.158108,268.593750,3.535534,3.000000,-93.168715,12.970000,2025-03-27T21:18:21.979-05:00,-0.256505,-0.960488,-0.043059,2025-03-27T21:18:21.386-05:00,-0.414859,0.154800,-0.114118,2025-03-27T21:18:21.388-05:00
12.000000,257.646362,1.650000,6.345953,44.941505,285.056362,268.242188,3.535534,3.000000,-93.168884,13.040000,2025-03-27T21:18:22.980-05:00,-0.262664,-0.982496,-0.046420,2025-03-27T21:18:22.381-05:00,-0.493909,-0.056803,-0.210589,2025-03-27T21:18:22.383-05:00
13.000000,257.889526,0.950000,3.918885,44.941511,285.299526,270.000000,3.535534,3.000000,-93.169061,13.470000,2025-03-27T21:18:23.982-05:00,-0.253983,-0.970295,-0.039778,2025-03-27T21:18:23.385-05:00,-0.474302,0.077479,-0.117507,2025-03-27T21:18:23.388-05:00
14.000000,257.501465,1.220000,5.126046,44.941511,284.911465,270.351562,3.535534,3.000000,-93.169231,13.040000,2025-03-27T21:18:24.983-05:00,-0.254756,-0.971790,-0.039471,2025-03-27T21:18:24.380-05:00,-0.435803,0.055834,-0.141104,2025-03-27T21:18:24.382-05:00
15.000000,258.149841,2.020000,5.886370,44.941511,285.559841,269.648438,3.535534,3.000000,-93.169404,13.280000,2025-03-27T21:18:25.984-05:00,-0.246355,-0.966994,-0.027383,2025-03-27T21:18:25.385-05:00,-0.361008,0.107290,-0.101886,2025-03-27T21:18:25.387-05:00
16.000000,258.149855,2.020000,12.325114,44.941510,285.559855,269.648319,4.748652,4.029364,-93.169572,13.280000,2025-03-27T21:18:26.985-05:00,-0.241925,-0.971059,-0.010713,2025-03-27T21:18:26.389-05:00,-0.257925,0.051230,-0.005883,2025-03-27T21:18:26.382-05:00
17.000000,257.210218,2.440000,15.267141,44.941515,284.620218,270.703009,4.748652,4.029364,-93.169731,12.950000,2025-03-27T21:18:27.986-05:00,-0.237474,-0.968606,-0.018521,2025-03-27T21:18:27.384-05:00,-0.188247,0.061389,-0.068618,2025-03-27T21:18:27.386-05:00
18.000000,257.269850,1.700000,10.443397,44.941514,284.679850,270.351444,4.748652,4.029364,-93.169904,13.190000,2025-03-27T21:18:28.987-05:00,-0.229656,-0.972816,-0.011894,2025-03-27T21:18:28.389-05:00,-0.128340,0.037628,-0.035780,2025-03-27T21:18:28.381-05:00
19.000000,256.932875,1.220000,7.494673,44.941512,284.342875,269.999882,4.748652,4.029364,-93.170079,13.190000,2025-03-27T21:18:29.988-05:00,-0.229357,-0.969017,-0.000806,2025-03-27T21:18:29.383-05:00,-0.120208,0.059574,0.070451,2025-03-27T21:18:29.386-05:00
20.000000,256.561415,1.750000,10.750555,44.941510,283.971415,269.648319,4.748652,4.029364,-93.170242,13.190000,2025-03-27T21:18:30.989-05:00,-0.225176,-0.976588,-0.010858,2025-03-27T21:18:30.388-05:00,-0.068607,0.007057,0.016448,2025-03-27T21:18:30.380-05:00
21.000000,256.842056,2.520000,14.937216,44.941513,284.252056,270.351440,4.748652,4.029364,-93.170420,13.670000,2025-03-27T21:18:31.989-05:00,-0.220545,-0.972680,-0.005913,2025-03-27T21:18:31.383-05:00,-0.029615,0.029976,-0.005615,2025-03-27T21:18:31.385-05:00
22.000000,256.643691,2.920000,17.308203,44.941522,284.053691,271.406128,4.748652,4.029364,-93.170588,13.670000,2025-03-27T21:18:32.990-05:00,-0.232352,-0.969888,-0.019472,2025-03-27T21:18:32.387-05:00,-0.117015,0.053413,-0.086778,2025-03-27T21:18:32.380-05:00
23.000000,256.409744,1.560000,9.246848,44.941511,283.819744,268.945190,4.748652,4.029364,-93.170772,13.670000,2025-03-27T21:18:33.991-05:00,-0.237326,-0.976020,-0.030040,2025-03-27T21:18:33.382-05:00,-0.213756,0.001243,-0.013868,2025-03-27T21:18:33.384-05:00
24.000000,256.300064,1.070000,7.258975,44.941524,283.710063,269.999877,4.748652,4.029364,-93.170950,13.720000,2025-03-27T21:18:34.991-05:00,-0.228390,-0.959816,-0.042947,2025-03-27T21:18:34.387-05:00,-0.059039,0.142574,-0.139955,2025-03-27T21:18:34.389-05:00
25.000000,256.484512,1.690000,10.032097,44.941524,283.894512,268.945190,4.748652,4.029364,-93.171119,13.650000,2025-03-27T21:18:35.992-05:00,-0.230762,-0.974210,-0.030765,2025-03-27T21:18:35.381-05:00,-0.065603,0.002203,-0.106435,2025-03-27T21:18:35.384-05:00
26.000000,256.080338,1.150000,7.258975,44.941525,283.490338,270.702998,4.748652,4.029364,-93.171306,14.140000,2025-03-27T21:18:36.992-05:00,-0.234119,-0.970664,-0.018416,2025-03-27T21:18:36.386-05:00,-0.109356,0.039250,-0.006704,2025-03-27T21:18:36.389-05:00
27.000000,255.836808,1.530000,8.767578,44.941533,283.246808,271.406123,4.748652,4.029364,-93.171484,14.140000,2025-03-27T21:18:37.993-05:00,-0.237666,-0.967718,-0.018443,2025-03-27T21:18:37.381-05:00,-0.140067,0.067289,0.020624,2025-03-27T21:18:37.383-05:00
28.000000,255.906388,1.090000,7.258975,44.941533,283.316388,271.054561,4.748652,4.029364,-93.171665,14.160000,2025-03-27T21:18:38.993-05:00,-0.236998,-0.974802,-0.018596,2025-03-27T21:18:38.385-05:00,-0.124474,-0.004910,0.011898,2025-03-27T21:18:38.388-05:00
29.000000,255.724870,1.670000,9.268324,44.941534,283.134870,271.054557,4.748652,4.029364,-93.171852,14.600000,2025-03-27T21:18:39.994-05:00,-0.239813,-0.965444,-0.020771,2025-03-27T21:18:39.380-05:00,-0.146447,0.086043,0.003200,2025-03-27T21:18:39.383-05:00
30.000000,255.506120,0.760000,7.258975,44.941527,282.916120,268.945182,4.748652,4.029364,-93.172032,14.600000,2025-03-27T21:18:40.994-05:00,-0.243364,-0.963078,-0.026753,2025-03-27T21:18:40.385-05:00,-0.165160,0.093968,-0.052366,2025-03-27T21:18:40.387-05:00
31.000000,254.967546,1.660000,9.314907,44.941527,282.377546,269.999871,4.748652,4.029364,-93.172208,14.440000,2025-03-27T21:18:41.995-05:00,-0.251463,-0.972412,-0.028021,2025-03-27T21:18:41.389-05:00,-0.230375,0.020702,-0.098983,2025-03-27T21:18:41.382-05:00
32.000000,255.484635,0.830000,7.258975,44.941528,282.894635,269.999871,4.748652,4.029364,-93.172395,14.390000,2025-03-27T21:18:42.995-05:00,-0.252981,-0.962695,-0.032536,2025-03-27T21:18:42.384-05:00,-0.251254,0.101367,-0.078310,2025-03-27T21:18:42.387-05:00
33.000000,255.925553,0.390000,7.258975,44.941529,283.335553,269.999872,4.748652,4.029364,-93.172580,14.280000,2025-03-27T21:18:43.995-05:00,-0.245449,-0.972290,-0.031496,2025-03-27T21:18:43.389-05:00,-0.158262,0.012340,-0.054365,2025-03-27T21:18:43.381-05:00
34.000000,255.664567,0.370000,7.258975,44.941530,283.074567,269.999872,4.748652,4.029364,-93.172758,14.280000,2025-03-27T21:18:44.996-05:00,-0.240249,-0.955980,-0.027673,2025-03-27T21:18:44.384-05:00,-0.090166,0.163196,-0.071741,2025-03-27T21:18:44.386-05:00
35.000000,255.761185,0.308016,7.258975,44.941533,283.171185,270.703000,4.748652,4.029364,-93.172932,13.990000,2025-03-27T21:18:45.996-05:00,-0.238412,-0.980073,-0.025701,2025-03-27T21:18:45.388-05:00,-0.050082,-0.074203,-0.021787,2025-03-27T21:18:45.381-05:00
36.000000,254.037524,1.155259,7.258962,44.941523,281.447524,270.072108,2.000000,3.000000,-93.173109,14.037946,2025-03-27T21:18:46.996-05:00,-0.251570,-0.965695,-0.012835,2025-03-27T21:18:46.383-05:00,-0.176541,0.057090,0.048290,2025-03-27T21:18:46.385-05:00
37.000000,254.016807,1.177839,7.258961,44.941530,281.426807,271.347943,2.000000,3.000000,-93.173289,14.103100,2025-03-27T21:18:47.996-05:00,-0.260708,-0.971043,-0.017492,2025-03-27T21:18:47.388-05:00,-0.289015,0.019811,0.066443,2025-03-27T21:18:47.380-05:00
38.000000,253.828952,1.272373,7.412465,44.941526,281.238952,269.939431,2.000000,3.000000,-93.173460,13.906391,2025-03-27T21:18:48.997-05:00,-0.301135,-0.933559,-0.056202,2025-03-27T21:18:48.382-05:00,-0.589232,0.357451,-0.208768,2025-03-27T21:18:48.385-05:00
39.000000,253.898028,1.283404,7.593496,44.941520,281.308028,268.374209,2.000000,3.000000,-93.173629,13.694494,2025-03-27T21:18:49.997-05:00,-0.363917,-0.943132,-0.055085,2025-03-27T21:18:49.387-05:00,-1.138057,0.249394,-0.363374,2025-03-27T21:18:49.389-05:00
40.000000,253.632832,0.664430,7.258404,44.941515,281.042832,268.168070,2.000000,3.000000,-93.173778,12.712599,2025-03-27T21:18:50.997-05:00,-0.350719,-0.939365,-0.069838,2025-03-27T21:18:50.382-05:00,-0.991368,0.282548,-0.473171,2025-03-27T21:18:50.384-05:00
41.000000,253.506665,0.654353,7.257707,44.941525,280.916665,271.842210,2.000000,3.000000,-93.173910,11.151573,2025-03-27T21:18:51.997-05:00,-0.265595,-0.958291,-0.094716,2025-03-27T21:18:51.386-05:00,-0.121997,0.085507,-0.656683,2025-03-27T21:18:51.389-05:00
42.000000,253.026121,0.731486,7.251675,44.941539,280.436121,278.375027,2.000000,3.000000,-93.174031,9.980489,2025-03-27T21:18:52.997-05:00,-0.226341,-0.973017,-0.149304,2025-03-27T21:18:52.381-05:00,0.238953,-0.054941,-1.013913,2025-03-27T21:18:52.384-05:00
43.000000,252.915088,0.684401,7.254022,44.941552,280.325088,280.336830,2.137030,3.000000,-93.174167,10.166813,2025-03-27T21:18:53.998-05:00,-0.218135,-0.963852,-0.113747,2025-03-27T21:18:53.386-05:00,0.314551,0.024600,-0.583930,2025-03-27T21:18:53.388-05:00
44.000000,253.091142,0.685139,7.258295,44.941581,280.501141,284.912542,2.076340,3.000000,-93.174301,10.589096,2025-03-27T21:18:54.998-05:00,-0.227393,-0.969461,-0.054441,2025-03-27T21:18:54.380-05:00,0.232768,-0.047310,0.226837,2025-03-27T21:18:54.383-05:00
45.000000,252.370077,0.685292,7.252024,44.941605,279.780077,284.125392,2.042326,3.000000,-93.174440,11.174326,2025-03-27T21:18:55.998-05:00,-0.233612,-0.973678,-0.019299,2025-03-27T21:18:55.385-05:00,0.131216,-0.096326,0.773221,2025-03-27T21:18:55.388-05:00
46.000000,253.668368,0.676755,7.255748,44.941623,281.078367,280.362746,2.124540,3.000000,-93.174588,11.667706,2025-03-27T21:18:56.998-05:00,-0.232530,-0.970010,-0.008888,2025-03-27T21:18:56.380-05:00,0.143275,-0.059678,0.858705,2025-03-27T21:18:56.382-05:00
47.000000,253.317340,0.667542,7.258790,44.941642,280.727340,280.056650,2.401567,3.000000,-93.174715,10.973816,2025-03-27T21:18:57.998-05:00,-0.230682,-0.977563,-0.007375,2025-03-27T21:18:57.384-05:00,0.161038,-0.125426,0.779048,2025-03-27T21:18:57.387-05:00
48.000000,252.761757,0.680560,7.256596,44.941648,280.171757,275.679267,2.218974,3.000000,-93.174855,10.915592,2025-03-27T21:18:58.998-05:00,-0.234991,-0.966296,-0.006815,2025-03-27T21:18:58.389-05:00,0.161879,-0.015675,0.705027,2025-03-27T21:18:58.382-05:00
49.000000,252.360531,0.676602,7.253467,44.941653,279.770531,273.527148,2.117271,3.000000,-93.175007,11.414673,2025-03-27T21:18:59.998-05:00,-0.230489,-0.975911,-0.032521,2025-03-27T21:18:59.384-05:00,0.188175,-0.094411,0.441443,2025-03-27T21:18:59.386-05:00
50.000000,252.675919,0.695478,7.258654,44.941649,280.085919,270.025831,2.062793,3.000000,-93.175157,11.718083,2025-03-27T21:19:00.999-05:00,-0.229506,-0.972728,-0.066943,2025-03-27T21:19:00.389-05:00,0.173920,-0.076007,0.093183,2025-03-27T21:19:00.381-05:00
51.000000,252.233184,0.676065,7.257411,44.941650,279.643183,270.419736,2.033243,3.000000,-93.175305,11.718101,2025-03-27T21:19:01.999-05:00,-0.234444,-0.964949,-0.074879,2025-03-27T21:19:01.383-05:00,0.092742,0.012141,0.005582,2025-03-27T21:19:01.386-05:00
52.000000,251.075857,0.687133,7.243569,44.941649,278.485857,269.666578,2.017934,3.000000,-93.175448,11.517680,2025-03-27T21:19:02.999-05:00,-0.250201,-0.967263,-0.074540,2025-03-27T21:19:02.388-05:00,-0.039972,0.000612,-0.045778,2025-03-27T21:19:02.380-05:00
53.000000,251.101724,0.685529,7.253848,44.941655,278.511724,271.190906,2.009558,3.000000,-93.175591,11.305823,2025-03-27T21:19:03.999-05:00,-0.251769,-0.961987,-0.074356,2025-03-27T21:19:03.383-05:00,-0.045124,0.044650,-0.052491,2025-03-27T21:19:03.385-05:00
54.000000,250.868952,0.686329,7.254770,44.941653,278.278952,270.402255,2.119105,3.000000,-93.175739,11.383667,2025-03-27T21:19:04.999-05:00,-0.246790,-0.963917,-0.082195,2025-03-27T21:19:04.387-05:00,-0.019543,0.028203,-0.114806,2025-03-27T21:19:04.380-05:00
55.000000,252.309803,0.677827,7.251550,44.941649,279.719803,269.195118,2.063529,3.000000,-93.175883,11.269652,2025-03-27T21:19:05.999-05:00,-0.246597,-0.961455,-0.067912,2025-03-27T21:19:05.382-05:00,-0.003780,0.051667,0.012043,2025-03-27T21:19:05.385-05:00
56.000000,251.732894,0.728352,7.258934,44.941655,279.142894,271.144203,2.033977,3.000000,-93.176031,11.444283,2025-03-27T21:19:06.999-05:00,-0.266541,-0.955704,-0.069124,2025-03-27T21:19:06.387-05:00,-0.199602,0.109326,0.011417,2025-03-27T21:19:06.389-05:00
57.000000,251.711357,0.672580,7.258894,44.941651,279.121357,269.833633,2.018514,3.000000,-93.176171,11.253931,2025-03-27T21:19:07.999-05:00,-0.318416,-0.949767,-0.088631,2025-03-27T21:19:07.381-05:00,-0.663415,0.152113,-0.154896,2025-03-27T21:19:07.384-05:00
58.000000,251.599118,0.673855,7.258386,44.941653,279.009118,270.469177,2.046359,3.000000,-93.176304,10.679180,2025-03-27T21:19:08.999-05:00,-0.258341,-0.971578,-0.111664,2025-03-27T21:19:08.386-05:00,-0.146865,-0.057491,-0.216793,2025-03-27T21:19:08.389-05:00
59.000000,250.880620,0.694240,7.248862,44.941649,278.290620,268.854657,2.026101,3.000000,-93.176430,10.289272,2025-03-27T21:19:09.999-05:00,-0.264978,-0.952133,-0.119334,2025-03-27T21:19:09.381-05:00,-0.260477,0.141547,-0.250053,2025-03-27T21:19:09.383-05:00
60.000000,251.451116,0.663072,7.258598,44.941654,278.861116,270.776686,2.014968,3.000000,-93.176548,9.740946,2025-03-27T21:19:10.999-05:00,-0.295667,-0.944388,-0.137404,2025-03-27T21:19:10.386-05:00,-0.471050,0.195905,-0.426763,2025-03-27T21:19:10.388-05:00
61.000000,250.800982,0.715416,7.255877,44.941658,278.210982,272.524943,2.264589,3.000000,-93.176661,9.094572,2025-03-27T21:19:11.999-05:00,-0.319705,-0.945192,-0.133792,2025-03-27T21:19:11.380-05:00,-0.681383,0.184268,-0.464060,2025-03-27T21:19:11.383-05:00
62.000000,250.971780,0.707387,7.258266,44.941659,278.381780,272.054132,2.777550,3.000000,-93.176767,8.424802,2025-03-27T21:19:13.000-05:00,-0.357674,-0.939738,-0.058871,2025-03-27T21:19:12.385-05:00,-0.881869,0.220246,-0.116740,2025-03-27T21:19:12.387-05:00
63.000000,250.548206,0.722355,8.305470,44.941671,277.958206,275.399948,2.745678,3.000000,-93.176846,7.002669,2025-03-27T21:19:14.000-05:00,-0.392565,-0.934016,-0.049930,2025-03-27T21:19:13.380-05:00,-1.128823,0.261341,-0.289122,2025-03-27T21:19:13.382-05:00
