seconds_elapsed,location_altitude,location_speedAccuracy,location_bearingAccuracy,location_latitude,location_altitudeAboveMeanSeaLevel,location_bearing,location_horizontalAccuracy,location_verticalAccuracy,location_longitude,location_speed,location_local_time,accelerometerUncalibrated_z,accelerometerUncalibrated_y,accelerometerUncalibrated_x,accelerometerUncalibrated_local_time,accelerometer_z,accelerometer_y,accelerometer_x,accelerometer_local_time
0,246.703258,1.678303,112.570862,44.941663,274.113257,255.650023,4.76774,7.5,-93.177021,1.561735,2025-04-04T03:11:31Z,-0.323128,-0.950411,0.050265,2025-04-04T03:11:31Z,-0.590435,0.132184,0.235292,2025-04-04T03:11:31Z
1,247.505188,1.28,26.576007,44.941646,274.915188,221.132812,5.85356,4,-93.177045,3.09,2025-04-04T03:11:32Z,-0.408378,-0.923266,-0.032875,2025-04-04T03:11:32Z,-1.546578,0.435895,-0.604474,2025-04-04T03:11:32Z
2,243.1875,0.53,12.540351,44.941615,270.5975,180,3.683434,4,-93.177078,3.04,2025-04-04T03:11:33Z,-0.384493,-0.928825,-0.039392,2025-04-04T03:11:33Z,-1.317595,0.380617,-0.658219,2025-04-04T03:11:33Z
3,241.738281,0.06,6.609159,44.94159,269.148281,180,3.535534,3,-93.177106,2.3,2025-04-04T03:11:34Z,-0.326389,-0.946511,-0.023646,2025-04-04T03:11:34Z,-0.746874,0.209947,-0.497216,2025-04-04T03:11:34Z
4,241.496887,0.93,7.878224,44.941572,268.906887,180,3.535534,3,-93.177128,0.45,2025-04-04T03:11:35Z,-0.283373,-0.957606,-0.011093,2025-04-04T03:11:35Z,-0.306534,0.098438,-0.365742,2025-04-04T03:11:35Z
5,241.275879,1,8.28361,44.941558,268.685879,180,3.535534,3,-93.177148,0,2025-04-04T03:11:36Z,-0.258443,-0.964626,-0.004328,2025-04-04T03:11:36Z,-0.047109,0.020133,-0.293153,2025-04-04T03:11:36Z
6,241.835754,1,8.497518,44.941548,269.245754,180,3.535534,3,-93.177167,0,2025-04-04T03:11:37Z,-0.258236,-0.964416,-0.004068,2025-04-04T03:11:37Z,-0.024489,0.019224,-0.276832,2025-04-04T03:11:37Z
7,242.377197,1.14,13.633142,44.941539,269.787197,180,3.535534,3,-93.177183,0,2025-04-04T03:11:38Z,-0.258464,-0.964355,-0.004177,2025-04-04T03:11:38Z,-0.007463,0.016301,-0.263163,2025-04-04T03:11:38Z
8,242.861206,0.99,13.640717,44.941533,270.271206,180,3.535534,3,-93.177197,0,2025-04-04T03:11:39Z,-0.258526,-0.964567,-0.003699,2025-04-04T03:11:39Z,0.009542,0.01013,-0.250472,2025-04-04T03:11:39Z
9,243.140686,1,13.739727,44.941527,270.550686,180,3.535534,3,-93.177209,0,2025-04-04T03:11:40Z,-0.258261,-0.964437,-0.004254,2025-04-04T03:11:40Z,0.022234,0.006759,-0.237594,2025-04-04T03:11:40Z
10,243.623413,1.01,14.183847,44.941522,271.033413,180,3.535534,3,-93.17722,0,2025-04-04T03:11:41Z,-0.258306,-0.964191,-0.004425,2025-04-04T03:11:41Z,0.033161,0.005235,-0.225422,2025-04-04T03:11:41Z
11,243.623413,0.07,14.183847,44.941522,271.033413,180,3.535534,3,-93.17722,0,2025-04-04T03:11:42Z,-0.25853,-0.964763,-0.003689,2025-04-04T03:11:42Z,0.043314,0.001748,-0.211247,2025-04-04T03:11:42Z
12,243.623413,0.07,14.183847,44.941522,271.033413,180,3.535534,3,-93.17722,0,2025-04-04T03:11:43Z,-0.258131,-0.964509,-0.004188,2025-04-04T03:11:43Z,0.052557,-2.7e-4,-0.200761,2025-04-04T03:11:43Z
13,243.623413,0.308016,-1,44.941522,271.033413,-1,4.748652,4.029364,-93.17722,0,2025-04-04T03:11:44Z,-0.258181,-0.964413,-0.004189,2025-04-04T03:11:44Z,0.057896,-5.3e-5,-0.189666,2025-04-04T03:11:44Z
14,243.623413,0.308016,-1,44.941522,271.033413,-1,4.748652,4.029364,-93.17722,0,2025-04-04T03:11:45Z,-0.25821,-0.964443,-0.004238,2025-04-04T03:11:45Z,0.063393,-0.001188,-0.179475,2025-04-04T03:11:45Z
15,243.623413,0.308016,-1,44.941522,271.033413,-1,4.748652,4.029364,-93.17722,0,2025-04-04T03:11:46Z,-0.258523,-0.964422,-0.003614,2025-04-04T03:11:46Z,0.062166,-0.003092,-0.162623,2025-04-04T03:11:46Z
16,243.623413,0.308016,-1,44.941522,271.033413,-1,4.748652,4.029364,-93.17722,0,2025-04-04T03:11:47Z,-0.258226,-0.964481,-0.00416,2025-04-04T03:11:47Z,0.068911,-0.003587,-0.15718,2025-04-04T03:11:47Z
17,243.623413,0.308016,-1,44.941522,271.033413,-1,4.748652,4.029364,-93.17722,0,2025-04-04T03:11:48Z,-0.258566,-0.964515,-0.003865,2025-04-04T03:11:48Z,0.071607,-0.00304,-0.146802,2025-04-04T03:11:48Z
18,243.623413,0.308016,-1,44.941522,271.033413,-1,4.748652,4.029364,-93.17722,0,2025-04-04T03:11:49Z,-0.258183,-0.964311,-0.004204,2025-04-04T03:11:49Z,0.069228,-0.003669,-0.135363,2025-04-04T03:11:49Z
19,243.623413,0.308016,-1,44.941522,271.033413,-1,4.748652,4.029364,-93.17722,0,2025-04-04T03:11:50Z,-0.253856,-0.9657,-0.002548,2025-04-04T03:11:50Z,0.118054,-0.016462,-0.113318,2025-04-04T03:11:50Z
20,243.623413,0.827345,-1,44.941522,271.033413,-1,4.748652,4.029364,-93.17722,0,2025-04-04T03:11:51Z,-0.215718,-0.975696,0.007796,2025-04-04T03:11:51Z,0.469959,-0.108913,-0.00953,2025-04-04T03:11:51Z
21,244.385864,0.816165,-1,44.941495,271.795864,-1,4.748652,4.029364,-93.177273,0,2025-04-04T03:11:52Z,-0.114591,-1.003359,0.037868,2025-04-04T03:11:52Z,1.413637,-0.365437,0.275053,2025-04-04T03:11:52Z
22,244.788818,0.771443,-1,44.941492,272.198818,-1,4.748652,4.029364,-93.177273,0,2025-04-04T03:11:53Z,-0.071511,-1.012259,0.054756,2025-04-04T03:11:53Z,1.76157,-0.437351,0.427416,2025-04-04T03:11:53Z
23,244.954712,0.308016,59.42391,44.941474,272.364712,180,4.748652,4.029364,-93.177272,0.42,2025-04-04T03:11:54Z,-0.113488,-1.000306,0.021416,2025-04-04T03:11:54Z,1.320444,-0.307749,0.15946,2025-04-04T03:11:54Z
24,244.999513,0.308016,7.258975,44.941403,272.409513,177.187502,4.748652,4.029364,-93.177267,4.64,2025-04-04T03:11:55Z,-0.14429,-0.984294,0.002876,2025-04-04T03:11:55Z,1.005856,-0.15285,0.032007,2025-04-04T03:11:55Z
25,245.049746,0.308016,7.258975,44.94134,272.459746,177.187503,4.748652,4.029364,-93.177258,5.86,2025-04-04T03:11:56Z,-0.166653,-0.992952,0.001671,2025-04-04T03:11:56Z,0.813633,-0.241779,0.004225,2025-04-04T03:11:56Z
26,245.139407,0.308016,7.258975,44.941286,272.549407,180.800751,4.748652,4.029364,-93.177256,5.86,2025-04-04T03:11:57Z,-0.165558,-0.99896,0.021734,2025-04-04T03:11:57Z,0.687586,-0.268777,-0.023938,2025-04-04T03:11:57Z
27,245.062748,0.308016,7.258975,44.941212,272.472748,180.800751,4.748652,4.029364,-93.177256,6.8,2025-04-04T03:11:58Z,-0.178844,-0.979127,0.040588,2025-04-04T03:11:58Z,0.529176,-0.052076,0.109446,2025-04-04T03:11:58Z
28,244.949224,1.1,11.311081,44.941135,272.359224,180.800751,4.748652,4.029364,-93.177251,7.88,2025-04-04T03:11:59Z,-0.184096,-0.983951,0.043111,2025-04-04T03:11:59Z,0.251438,-0.088677,-0.029233,2025-04-04T03:11:59Z
29,244.745247,0.57,7.258975,44.941037,272.155246,179.816467,4.748652,4.029364,-93.177255,9.64,2025-04-04T03:12:00Z,-0.182059,-0.983646,0.036454,2025-04-04T03:12:00Z,0.252873,-0.058129,0.015176,2025-04-04T03:12:00Z
30,244.741279,1.28,10.703451,44.940953,272.151279,179.816467,4.748652,4.029364,-93.177267,9.69,2025-04-04T03:12:01Z,-0.222984,-0.970817,0.032323,2025-04-04T03:12:01Z,-0.12667,0.057905,-0.058,2025-04-04T03:12:01Z
31,244.868538,1.29,10.787072,44.940861,272.278538,179.816467,4.748652,4.029364,-93.177266,9.69,2025-04-04T03:12:02Z,-0.228397,-0.971834,0.025993,2025-04-04T03:12:02Z,-0.199343,0.055575,-0.109296,2025-04-04T03:12:02Z
32,245.171883,2.14,17.000092,44.940759,272.581883,179.816467,4.748652,4.029364,-93.177269,10.2,2025-04-04T03:12:03Z,-0.253547,-0.96877,0.024589,2025-04-04T03:12:03Z,-0.473024,0.090926,-0.093591,2025-04-04T03:12:03Z
33,249.163866,1.27425,9.313686,44.940656,276.573866,180.465057,2.762839,3,-93.17726,11.085625,2025-04-04T03:12:04Z,-0.245562,-0.963401,0.023509,2025-04-04T03:12:04Z,-0.381048,0.143345,-0.06645,2025-04-04T03:12:04Z
34,248.882702,1.266681,9.085022,44.940549,276.292702,180.465057,2.691538,3,-93.17726,11.296676,2025-04-04T03:12:05Z,-0.239858,-0.968941,0.009125,2025-04-04T03:12:05Z,-0.351939,0.092178,-0.099322,2025-04-04T03:12:05Z
35,249.458041,1.270126,9.119693,44.940438,276.868041,179.867538,2.772303,3,-93.17726,11.284074,2025-04-04T03:12:06Z,-0.243129,-0.973563,0.001516,2025-04-04T03:12:06Z,-0.348754,0.047029,-0.137955,2025-04-04T03:12:06Z
36,249.406711,1.268027,8.991308,44.940333,276.816711,179.867538,2.414013,3,-93.177254,11.427209,2025-04-04T03:12:07Z,-0.239059,-0.970755,-0.006021,2025-04-04T03:12:07Z,-0.32473,0.077257,-0.193677,2025-04-04T03:12:07Z
37,249.761599,1.263145,8.86788,44.940225,277.171598,179.867538,2.446882,3,-93.177259,11.539491,2025-04-04T03:12:08Z,-0.238214,-0.972934,0.002009,2025-04-04T03:12:08Z,-0.372729,0.065903,-0.11038,2025-04-04T03:12:08Z
38,249.836448,1.266566,8.818094,44.940112,277.246448,179.867538,2.332169,3,-93.177264,11.637669,2025-04-04T03:12:09Z,-0.229743,-0.931742,-0.014108,2025-04-04T03:12:09Z,-0.133503,0.423688,-0.082342,2025-04-04T03:12:09Z
39,250.239558,1.156967,8.026485,44.939998,277.649558,179.867538,2.180876,3,-93.177264,11.677475,2025-04-04T03:12:10Z,-0.243378,-0.991298,6.13e-4,2025-04-04T03:12:10Z,-0.17455,-0.152642,-0.060748,2025-04-04T03:12:10Z
40,249.99183,1.267825,8.668145,44.939894,277.401829,180.188141,2.185857,3,-93.177265,11.85141,2025-04-04T03:12:11Z,-0.263543,-0.965649,0.003186,2025-04-04T03:12:11Z,-0.445704,0.100235,-0.192321,2025-04-04T03:12:11Z
41,250.100829,1.261089,8.539454,44.939789,277.510829,180.188141,2.099025,3,-93.177264,11.966007,2025-04-04T03:12:12Z,-0.255857,-0.967808,0.013237,2025-04-04T03:12:12Z,-0.308575,0.063622,-0.118056,2025-04-04T03:12:12Z
42,250.101166,1.266548,8.564871,44.939677,277.511166,180.56226,2.124913,3,-93.177267,11.982232,2025-04-04T03:12:13Z,-0.251564,-0.969776,0.015101,2025-04-04T03:12:13Z,-0.304847,0.056411,-0.07683,2025-04-04T03:12:13Z
43,250.304056,1.267942,8.527306,44.939568,277.714056,179.628914,2.065301,3,-93.177261,12.048011,2025-04-04T03:12:14Z,-0.251229,-0.966781,0.014101,2025-04-04T03:12:14Z,-0.306599,0.076964,-0.119415,2025-04-04T03:12:14Z
44,250.371018,1.263884,8.538995,44.939464,277.781018,180.14385,2.173764,3,-93.177264,11.992713,2025-04-04T03:12:15Z,-0.254948,-0.962179,0.017386,2025-04-04T03:12:15Z,-0.297439,0.11288,-0.12722,2025-04-04T03:12:15Z
45,250.273101,0.650459,7.258855,44.939356,277.683101,180.532914,2.192509,3,-93.177263,12.113697,2025-04-04T03:12:16Z,-0.264264,-0.961088,0.011016,2025-04-04T03:12:16Z,-0.354128,0.120159,-0.159081,2025-04-04T03:12:16Z
46,250.180097,0.657187,7.258935,44.939251,277.590097,180.307236,2.101323,3,-93.177263,11.937579,2025-04-04T03:12:17Z,-0.256871,-0.96341,0.017955,2025-04-04T03:12:17Z,-0.273367,0.096015,-0.042686,2025-04-04T03:12:17Z
47,250.239096,0.659765,7.258974,44.939144,277.649096,180.307236,2.053708,3,-93.177268,11.915988,2025-04-04T03:12:18Z,-0.252228,-0.967224,0.008048,2025-04-04T03:12:18Z,-0.26396,0.071849,-0.096265,2025-04-04T03:12:18Z
48,251.426852,0.705662,7.245759,44.939051,278.836852,180.307236,2.088036,3,-93.177235,11.043489,2025-04-04T03:12:19Z,-0.238134,-0.951759,0.002702,2025-04-04T03:12:19Z,-0.024533,0.189477,-0.08076,2025-04-04T03:12:19Z
49,251.180418,0.672684,7.258599,44.938936,278.590418,180.290604,2.6091,3,-93.177267,11.833968,2025-04-04T03:12:20Z,-0.255788,-0.982893,0.029491,2025-04-04T03:12:20Z,-0.128434,-0.11382,0.013434,2025-04-04T03:12:20Z
50,250.633953,0.6589,7.258299,44.938827,278.043953,180.290604,2.513726,3,-93.177268,12.089208,2025-04-04T03:12:21Z,-0.235797,-0.968167,0.015809,2025-04-04T03:12:21Z,-0.015786,0.02081,-0.011911,2025-04-04T03:12:21Z
51,250.707949,0.653985,7.258887,44.938721,278.117949,180.290604,2.270333,3,-93.177268,12.000223,2025-04-04T03:12:22Z,-0.236141,-0.9686,0.023144,2025-04-04T03:12:22Z,0.005861,0.019337,0.00112,2025-04-04T03:12:22Z
52,250.895223,0.656928,7.258696,44.93861,278.305223,180.290604,2.561745,3,-93.177264,12.230419,2025-04-04T03:12:23Z,-0.237632,-0.969388,0.023693,2025-04-04T03:12:23Z,0.023989,0.015896,-0.021871,2025-04-04T03:12:23Z
53,250.091242,0.676642,7.255795,44.938496,277.501242,180.290604,2.289451,3,-93.17727,12.490029,2025-04-04T03:12:24Z,-0.253547,-0.963833,0.015217,2025-04-04T03:12:24Z,-0.09916,0.066556,-0.051513,2025-04-04T03:12:24Z
54,250.099057,0.653436,7.258013,44.938383,277.509057,180,2.339302,3,-93.177259,12.516214,2025-04-04T03:12:25Z,-0.246649,-0.966054,0.015849,2025-04-04T03:12:25Z,-0.09776,0.042353,-0.089661,2025-04-04T03:12:25Z
55,250.293538,0.650585,7.258961,44.93827,277.703538,180,2.172921,3,-93.177258,12.495196,2025-04-04T03:12:26Z,-0.253241,-0.966393,0.018944,2025-04-04T03:12:26Z,-0.096824,0.024308,-0.049382,2025-04-04T03:12:26Z
56,250.347374,0.651023,7.25895,44.938153,277.757374,180,2.225985,3,-93.177265,12.772197,2025-04-04T03:12:27Z,-0.250018,-0.968671,0.017771,2025-04-04T03:12:27Z,-0.06207,0.017316,-0.083011,2025-04-04T03:12:27Z
57,250.332058,0.641671,7.258795,44.938037,277.742058,180,2.11449,3,-93.177261,12.877266,2025-04-04T03:12:28Z,-0.254201,-0.976639,0.023503,2025-04-04T03:12:28Z,-0.142348,-0.06968,-0.066331,2025-04-04T03:12:28Z
58,249.284603,0.660278,7.250816,44.937913,276.694603,180,2.163562,3,-93.17725,13.476426,2025-04-04T03:12:29Z,-0.242414,-0.948265,-0.001793,2025-04-04T03:12:29Z,-0.013578,0.221959,-0.114843,2025-04-04T03:12:29Z
59,250.999322,0.6541,7.254923,44.93781,278.409322,180,2.309334,3,-93.177276,12.429868,2025-04-04T03:12:30Z,-0.260222,-0.967301,0.031079,2025-04-04T03:12:30Z,-0.027365,-0.01153,0.072421,2025-04-04T03:12:30Z
60,250.697176,0.647533,7.258886,44.937691,278.107176,180.258331,2.156365,3,-93.177267,12.745936,2025-04-04T03:12:31Z,-0.254214,-0.967982,0.018783,2025-04-04T03:12:31Z,-0.057329,0.002061,-0.050248,2025-04-04T03:12:31Z
61,251.301837,0.654051,7.256561,44.937575,278.711837,180.258331,2.078692,3,-93.177273,12.840085,2025-04-04T03:12:32Z,-0.251334,-0.962795,0.019513,2025-04-04T03:12:32Z,-0.018873,0.050193,-0.049011,2025-04-04T03:12:32Z
62,250.720833,0.649759,7.257977,44.937458,278.130833,180.258331,2.039553,3,-93.177269,12.889574,2025-04-04T03:12:33Z,-0.256664,-0.962022,0.030903,2025-04-04T03:12:33Z,-0.043062,0.053516,0.049826,2025-04-04T03:12:33Z
63,251.076012,0.656744,7.258973,44.937341,278.486012,180.129593,2.019803,3,-93.177267,12.94935,2025-04-04T03:12:34Z,-0.249956,-0.967388,0.018074,2025-04-04T03:12:34Z,0.010828,0.006575,-0.007813,2025-04-04T03:12:34Z
64,251.179853,0.653028,7.258931,44.937224,278.589853,180.129593,2.197664,3,-93.177269,12.988976,2025-04-04T03:12:35Z,-0.250268,-0.965929,0.014822,2025-04-04T03:12:35Z,0.007907,0.015077,-0.023551,2025-04-04T03:12:35Z
65,251.270361,0.658484,7.258954,44.937109,278.680361,180.129593,2.155248,3,-93.177262,12.923376,2025-04-04T03:12:36Z,-0.245933,-0.962743,0.025002,2025-04-04T03:12:36Z,0.042422,0.05348,0.073932,2025-04-04T03:12:36Z
66,251.822655,0.657039,7.257065,44.936988,279.232655,180.129593,2.095149,3,-93.17727,13.251027,2025-04-04T03:12:37Z,-0.240201,-0.962894,0.001363,2025-04-04T03:12:37Z,0.166514,0.016775,-0.052337,2025-04-04T03:12:37Z
67,250.545975,0.655461,7.251269,44.936872,277.955975,180,2.047402,3,-93.177275,13.121107,2025-04-04T03:12:38Z,-0.254475,-0.975927,6.35e-4,2025-04-04T03:12:38Z,-0.012511,-0.066453,-0.114075,2025-04-04T03:12:38Z
68,250.863049,0.68781,7.258673,44.936745,278.273049,180,3.119308,3.401247,-93.177279,13.725281,2025-04-04T03:12:39Z,-0.24327,-0.963712,0.008411,2025-04-04T03:12:39Z,0.027906,0.063362,-0.066603,2025-04-04T03:12:39Z
69,250.996961,0.671857,7.258946,44.936629,278.406961,180,2.553474,3,-93.177269,13.369005,2025-04-04T03:12:40Z,-0.251976,-0.967428,0.013394,2025-04-04T03:12:40Z,0.035752,-0.017753,0.068559,2025-04-04T03:12:40Z
70,251.619242,0.693784,7.257929,44.936503,279.029242,180.115829,2.268079,3,-93.177276,13.59724,2025-04-04T03:12:41Z,-0.252846,-0.971052,0.002905,2025-04-04T03:12:41Z,-0.043029,-0.029052,-0.012325,2025-04-04T03:12:41Z
71,251.28147,0.67479,7.25893,44.936381,278.69147,180.115845,2.130359,3,-93.177275,13.633617,2025-04-04T03:12:42Z,-0.243033,-0.958374,0.01099,2025-04-04T03:12:42Z,0.028131,0.108602,-0.003517,2025-04-04T03:12:42Z
72,252.459243,0.821433,7.25454,44.93626,279.869243,180.115845,2.523454,3,-93.177274,13.562997,2025-04-04T03:12:43Z,-0.25683,-0.977219,-1.85e-4,2025-04-04T03:12:43Z,-0.132753,-0.05053,-0.051733,2025-04-04T03:12:43Z
73,250.505266,0.933594,7.252916,44.936162,277.915265,180.115845,2.611968,3,-93.177267,12.310589,2025-04-04T03:12:44Z,-0.245837,-0.929231,-0.014177,2025-04-04T03:12:44Z,0.076753,0.348874,-0.149924,2025-04-04T03:12:44Z
74,251.625339,0.667264,7.258949,44.936017,279.035339,180.115845,2.327736,3,-93.177272,13.660647,2025-04-04T03:12:45Z,-0.279509,-0.988882,0.025197,2025-04-04T03:12:45Z,-0.176584,-0.234201,0.031792,2025-04-04T03:12:45Z
75,251.518519,0.655258,7.258957,44.935897,278.928519,180,2.158643,3,-93.177269,13.413355,2025-04-04T03:12:46Z,-0.267935,-0.963027,-0.007611,2025-04-04T03:12:46Z,-0.20417,0.05899,-0.098124,2025-04-04T03:12:46Z
76,251.868406,0.658081,7.258691,44.935778,279.278406,180,2.077763,3,-93.177276,13.22864,2025-04-04T03:12:47Z,-0.245381,-0.964457,-0.002191,2025-04-04T03:12:47Z,0.025413,0.040954,-0.041168,2025-04-04T03:12:47Z
77,252.038248,0.658311,7.258728,44.935658,279.448248,180,2.191113,3,-93.177266,13.247429,2025-04-04T03:12:48Z,-0.237699,-0.963685,0.002028,2025-04-04T03:12:48Z,0.106078,0.047291,-0.00835,2025-04-04T03:12:48Z
78,252.015906,0.658127,7.258974,44.935539,279.425906,180,2.094418,3,-93.177261,13.236256,2025-04-04T03:12:49Z,-0.255238,-0.969196,0.009243,2025-04-04T03:12:49Z,-0.048466,-0.008264,0.061869,2025-04-04T03:12:49Z
79,252.194977,0.653293,7.258771,44.935417,279.604977,180,2.046486,3,-93.177273,13.406729,2025-04-04T03:12:50Z,-0.254301,-0.968113,0.010743,2025-04-04T03:12:50Z,-0.038235,0.002,0.080702,2025-04-04T03:12:50Z
80,252.384653,0.656554,7.258696,44.935297,279.794653,180,2.022739,3,-93.177271,13.334424,2025-04-04T03:12:51Z,-0.257324,-0.964491,0.025275,2025-04-04T03:12:51Z,-0.135863,0.049521,0.182136,2025-04-04T03:12:51Z
81,252.697646,0.748352,7.25762,44.935182,280.107645,180,3.409793,3.064178,-93.177264,12.86327,2025-04-04T03:12:52Z,-0.268563,-0.949015,0.006729,2025-04-04T03:12:52Z,-0.04651,0.150484,0.118702,2025-04-04T03:12:52Z
82,253.201484,0.884258,7.257688,44.935067,280.611484,180.247818,3.683519,3,-93.177275,12.603832,2025-04-04T03:12:53Z,-0.266487,-0.967734,0.022802,2025-04-04T03:12:53Z,-0.162091,0.008827,0.100405,2025-04-04T03:12:53Z
83,252.86663,0.663978,7.258843,44.934945,280.27663,180.247818,2.828447,3,-93.177257,12.916317,2025-04-04T03:12:54Z,-0.285666,-0.959795,-0.015028,2025-04-04T03:12:54Z,-0.312408,0.070363,-0.112066,2025-04-04T03:12:54Z
84,253.413741,0.667678,7.257731,44.934825,280.823741,180.247818,2.528324,3,-93.177246,13.077554,2025-04-04T03:12:55Z,-0.31565,-0.944695,-0.061871,2025-04-04T03:12:55Z,-0.585104,0.218636,-0.523306,2025-04-04T03:12:55Z
85,252.744518,0.681868,7.257485,44.934719,280.154518,180.247818,2.308951,3,-93.177248,12.215596,2025-04-04T03:12:56Z,-0.359006,-0.938091,-0.054808,2025-04-04T03:12:56Z,-0.991415,0.270836,-0.427071,2025-04-04T03:12:56Z
86,253.132516,0.664385,7.258973,44.934618,280.542516,180,2.286589,3,-93.177259,11.354144,2025-04-04T03:12:57Z,-0.391919,-0.930411,-0.054612,2025-04-04T03:12:57Z,-1.290625,0.346816,-0.352958,2025-04-04T03:12:57Z
87,253.602844,0.665801,7.256274,44.934531,281.012844,178.859441,2.156973,3,-93.177245,10.040098,2025-04-04T03:12:58Z,-0.400985,-0.928404,-0.062474,2025-04-04T03:12:58Z,-1.372821,0.354378,-0.414217,2025-04-04T03:12:58Z
88,NA,NA,NA,NA,NA,NA,NA,NA,NA,NA,NA,-0.406534,-0.937237,-0.064149,2025-04-04T03:12:59Z,-1.324914,0.268833,-0.382452,2025-04-04T03:12:59Z
