seconds_elapsed,location_altitude,location_speedAccuracy,location_bearingAccuracy,location_latitude,location_altitudeAboveMeanSeaLevel,location_bearing,location_horizontalAccuracy,location_verticalAccuracy,location_longitude,location_speed,location_local_time,accelerometerUncalibrated_z,accelerometerUncalibrated_y,accelerometerUncalibrated_x,accelerometerUncalibrated_local_time,accelerometer_z,accelerometer_y,accelerometer_x,accelerometer_local_time
0,263.140856,0.307923,26.341536,44.940104,290.550856,314.410063,3.439698,3,-93.167147,6.177073,2025-04-04T03:47:30Z,-0.285201,-0.943223,0.162346,2025-04-04T03:47:29Z,-0.445625,0.264386,1.288939,2025-04-04T03:47:29Z
1,263.044314,0.307971,23.350648,44.94011,290.454314,292.092412,3.367713,3,-93.167196,5.847876,2025-04-04T03:47:31Z,-0.247805,-0.975247,0.112389,2025-04-04T03:47:30Z,-0.125385,-0.044947,0.64429,2025-04-04T03:47:30Z
2,262.892569,0.200893,14.975454,44.940112,290.302569,278.834574,3.299328,3,-93.167258,5.925603,2025-04-04T03:47:32Z,-0.231611,-0.96774,0.069753,2025-04-04T03:47:31Z,0.005362,0.0377,0.07059,2025-04-04T03:47:31Z
3,262.890276,0.266054,9.295718,44.940112,290.300276,272.498339,3.266905,3,-93.167328,5.983465,2025-04-04T03:47:33Z,-0.197065,-0.973136,0.069468,2025-04-04T03:47:32Z,0.356712,-0.040121,0.018814,2025-04-04T03:47:32Z
4,262.630764,0.269226,7.345848,44.940114,290.040764,271.412072,3.20356,3,-93.167411,6.57466,2025-04-04T03:47:34Z,-0.185291,-0.98287,0.051765,2025-04-04T03:47:33Z,0.419512,-0.114845,-0.109641,2025-04-04T03:47:33Z
5,262.859634,0.278417,7.258316,44.940112,290.269634,271.671254,3.126576,3,-93.167498,7.15291,2025-04-04T03:47:35Z,-0.195206,-0.979026,0.065358,2025-04-04T03:47:34Z,0.368983,-0.084042,-0.051424,2025-04-04T03:47:34Z
6,262.477696,0.231237,7.256599,44.940115,289.887695,269.802124,2.948748,3,-93.167607,8.167472,2025-04-04T03:47:36Z,-0.206533,-0.962008,0.054677,2025-04-04T03:47:35Z,0.272478,0.088474,-0.1183,2025-04-04T03:47:35Z
7,262.173698,0.23754,7.256059,44.940118,289.583698,269.802124,2.719218,3,-93.167716,8.728735,2025-04-04T03:47:37Z,-0.237556,-0.973262,0.060863,2025-04-04T03:47:36Z,0.010332,-0.055137,-0.10321,2025-04-04T03:47:36Z
8,261.925669,0.217342,7.254892,44.940121,289.335668,269.802124,2.540853,3,-93.167844,9.494492,2025-04-04T03:47:38Z,-0.272597,-0.962035,0.049426,2025-04-04T03:47:37Z,-0.349448,0.063144,-0.212836,2025-04-04T03:47:37Z
9,261.429839,0.204256,7.253313,44.940121,288.839839,270.143555,2.3325,3,-93.167974,9.933807,2025-04-04T03:47:39Z,-0.285329,-0.951984,0.039977,2025-04-04T03:47:38Z,-0.471634,0.169091,-0.288325,2025-04-04T03:47:38Z
10,261.462302,0.263941,7.253466,44.94012,288.872302,270.143555,2.204073,3,-93.168097,9.7103370000000009,2025-04-04T03:47:40Z,-0.28406,-0.960489,0.039682,2025-04-04T03:47:39Z,-0.430648,0.076742,-0.294111,2025-04-04T03:47:39Z
11,261.14733,0.279466,7.254558,44.940119,288.55733,270.143555,2.126063,3,-93.168219,9.599699,2025-04-04T03:47:41Z,-0.279675,-0.953318,0.041675,2025-04-04T03:47:40Z,-0.369158,0.139462,-0.263472,2025-04-04T03:47:40Z
12,260.594246,0.280582,7.254507,44.940116,288.004246,270.143555,2.102166,3,-93.168341,9.646355,2025-04-04T03:47:42Z,-0.270664,-0.962176,0.055275,2025-04-04T03:47:41Z,-0.244403,0.044406,-0.183986,2025-04-04T03:47:41Z
13,260.215702,0.295918,7.251319,44.940114,287.625702,270.150787,2.062464,3,-93.168468,9.763218,2025-04-04T03:47:43Z,-0.252204,-0.960852,0.050899,2025-04-04T03:47:42Z,-0.060378,0.058272,-0.15466,2025-04-04T03:47:42Z
14,259.889764,0.295432,7.249556,44.940116,287.299764,270.150787,2.047269,3,-93.168594,9.973466,2025-04-04T03:47:44Z,-0.258071,-0.967388,0.056388,2025-04-04T03:47:43Z,-0.086995,-0.007524,-0.115159,2025-04-04T03:47:43Z
15,259.595779,0.24125,7.2522,44.940116,287.005779,270.150787,2.053953,3,-93.168725,10.288219,2025-04-04T03:47:45Z,-0.254538,-0.956743,0.050324,2025-04-04T03:47:44Z,-0.006057,0.081844,-0.142087,2025-04-04T03:47:44Z
16,259.285123,0.241557,7.254286,44.940116,286.695123,270.150787,2.799771,3,-93.168858,10.519632,2025-04-04T03:47:46Z,-0.261508,-0.964372,0.042062,2025-04-04T03:47:45Z,-0.15686,0.029952,-0.175667,2025-04-04T03:47:45Z
17,259.088741,0.240995,7.253994,44.940117,286.498741,270.460693,2.738827,3,-93.168997,10.745277,2025-04-04T03:47:47Z,-0.274322,-0.955553,0.047365,2025-04-04T03:47:46Z,-0.226132,0.099556,-0.135053,2025-04-04T03:47:46Z
18,258.828933,0.265868,7.255672,44.940118,286.238933,270.460693,2.410513,3,-93.169132,10.770801,2025-04-04T03:47:48Z,-0.275611,-0.959844,0.042464,2025-04-04T03:47:47Z,-0.21717,0.063523,-0.096411,2025-04-04T03:47:47Z
19,258.426091,0.264774,7.253458,44.940118,285.836091,270.375916,2.435393,3,-93.169273,10.909587,2025-04-04T03:47:49Z,-0.274492,-0.96828,0.033628,2025-04-04T03:47:48Z,-0.205163,-0.014814,-0.111233,2025-04-04T03:47:48Z
20,258.001003,0.253393,7.252424,44.940119,285.411003,270.375916,2.236505,3,-93.169417,11.093042,2025-04-04T03:47:50Z,-0.273297,-0.960781,0.043704,2025-04-04T03:47:49Z,-0.241031,0.051981,-0.129394,2025-04-04T03:47:49Z
21,257.95869,0.275408,7.256836,44.940116,285.36869,270,2.129071,3,-93.169556,11.03717,2025-04-04T03:47:51Z,-0.284975,-0.953327,0.025602,2025-04-04T03:47:50Z,-0.373225,0.166702,-0.147997,2025-04-04T03:47:50Z
22,257.784501,0.287535,7.257847,44.940115,285.194501,270.187958,2.228051,3,-93.169696,10.956013,2025-04-04T03:47:52Z,-0.280727,-0.971012,0.053058,2025-04-04T03:47:51Z,-0.277863,-0.072153,-0.138348,2025-04-04T03:47:51Z
23,257.395687,0.273119,7.255549,44.940116,284.805687,270.187958,2.124375,3,-93.169835,10.829138,2025-04-04T03:47:53Z,-0.267386,-0.954965,0.034979,2025-04-04T03:47:52Z,-0.131107,0.109656,-0.225178,2025-04-04T03:47:52Z
24,257.331222,0.281527,7.256943,44.940117,284.741222,270.187958,2.068296,3,-93.169973,10.795683,2025-04-04T03:47:54Z,-0.27271,-0.960535,0.058873,2025-04-04T03:47:53Z,-0.144237,0.030135,-0.050151,2025-04-04T03:47:53Z
25,257.349083,0.278002,7.256486,44.940118,284.759083,270.339111,2.044805,3,-93.170109,10.780721,2025-04-04T03:47:55Z,-0.26388,-0.964562,0.052003,2025-04-04T03:47:54Z,-0.09902,0.017957,-0.04863,2025-04-04T03:47:54Z
26,257.207248,0.282827,7.257297,44.940118,284.617248,270.339111,2.05007,3,-93.170246,10.806333,2025-04-04T03:47:56Z,-0.263218,-0.962206,0.054112,2025-04-04T03:47:55Z,-0.061258,0.016657,-0.01264,2025-04-04T03:47:55Z
27,256.959237,0.281078,7.25711,44.940118,284.369237,270.339111,2.068014,3,-93.170384,10.836178,2025-04-04T03:47:57Z,-0.264133,-0.958129,0.048826,2025-04-04T03:47:56Z,-0.04873,0.063247,-0.049183,2025-04-04T03:47:56Z
28,256.716104,0.283203,7.256499,44.940118,284.126103,270.141266,2.110549,3,-93.170522,10.909523,2025-04-04T03:47:58Z,-0.266775,-0.966623,0.053868,2025-04-04T03:47:57Z,-0.069568,-0.031146,-0.072812,2025-04-04T03:47:57Z
29,256.636957,0.28344,7.257093,44.940118,284.046956,270.141266,2.058965,3,-93.170661,10.908372,2025-04-04T03:47:59Z,-0.255621,-0.965132,0.043831,2025-04-04T03:47:58Z,0.036074,-0.01251,-0.130522,2025-04-04T03:47:58Z
30,256.505511,0.282406,7.257,44.940119,283.91551,270.141266,2.042754,3,-93.170799,10.892094,2025-04-04T03:48:00Z,-0.267702,-0.949503,0.05572,2025-04-04T03:47:59Z,-0.069102,0.142603,5.3e-5,2025-04-04T03:47:59Z
31,256.29179799999997,0.278167,7.256426,44.94012,283.701798,270.141266,2.034837,3,-93.170938,10.95868,2025-04-04T03:48:01Z,-0.267713,-0.968688,0.051606,2025-04-04T03:48:00Z,-0.046186,-0.05853,-0.070665,2025-04-04T03:48:00Z
32,256.184762,0.283836,7.257425,44.940119,283.594762,270.141266,2.026777,3,-93.171076,10.95349,2025-04-04T03:48:02Z,-0.262276,-0.958479,0.038152,2025-04-04T03:48:01Z,-0.038773,0.06338,-0.134066,2025-04-04T03:48:01Z
33,256.017121,0.307674,7.253956,44.940118,283.427121,270.141266,2.255097,3,-93.171214,10.961939,2025-04-04T03:48:03Z,-0.266819,-0.96662,0.046489,2025-04-04T03:48:02Z,-0.085894,-0.016726,0.008797,2025-04-04T03:48:02Z
34,256.268959,0.306021,7.255626,44.94012,283.678959,270.141266,2.192094,3,-93.171354,10.882332,2025-04-04T03:48:04Z,-0.262932,-0.958125,0.075167,2025-04-04T03:48:03Z,-0.051611,0.028509,0.183764,2025-04-04T03:48:03Z
35,256.155996,0.29393,7.254699,44.940122,283.565996,270.141266,2.403553,3,-93.171494,10.940099,2025-04-04T03:48:05Z,-0.261508,-0.964433,0.04434,2025-04-04T03:48:04Z,0.022299,0.021983,-0.049571,2025-04-04T03:48:04Z
36,256.140773,0.292337,7.25681,44.94012,283.550773,270.147034,2.22163,3,-93.171634,11.022356,2025-04-04T03:48:06Z,-0.251363,-0.969251,0.066039,2025-04-04T03:48:05Z,0.04785,-0.045429,1.81e-4,2025-04-04T03:48:05Z
37,256.031308,0.295575,7.258054,44.940118,283.441308,270.147034,2.121661,3,-93.171773,11.020639,2025-04-04T03:48:07Z,-0.255244,-0.963825,0.050627,2025-04-04T03:48:06Z,0.028572,0.001137,-0.090927,2025-04-04T03:48:06Z
38,256.07656,0.294339,7.258049,44.940119,283.486559,270.147034,2.070592,3,-93.171915,11.14208,2025-04-04T03:48:08Z,-0.247828,-0.961413,0.057003,2025-04-04T03:48:07Z,0.07586,0.045078,-0.020076,2025-04-04T03:48:07Z
39,256.071508,0.291286,7.258002,44.940118,283.481508,270.098969,2.052364,3,-93.172058,11.264074,2025-04-04T03:48:09Z,-0.256734,-0.977274,0.064977,2025-04-04T03:48:08Z,0.007885,-0.138328,-0.001891,2025-04-04T03:48:08Z
40,255.96364,0.282037,7.257631,44.940118,283.373639,270.098969,2.213022,3,-93.1722,11.408497,2025-04-04T03:48:10Z,-0.23737,-0.951313,0.038204,2025-04-04T03:48:09Z,0.110634,0.16102,-0.126765,2025-04-04T03:48:09Z
41,255.740695,0.288647,7.258289,44.940118,283.150695,270.098969,2.632383,3,-93.172344,11.467622,2025-04-04T03:48:11Z,-0.241992,-0.974927,0.046588,2025-04-04T03:48:10Z,0.112308,-0.090448,-0.009443,2025-04-04T03:48:10Z
42,255.704102,0.264497,7.256365,44.940119,283.114102,270.098969,2.341035,3,-93.172489,11.553366,2025-04-04T03:48:12Z,-0.249078,-0.962654,0.052313,2025-04-04T03:48:11Z,0.036387,0.031713,0.048739,2025-04-04T03:48:11Z
43,255.832403,0.290935,7.258724,44.940119,283.242402,270.098969,2.183358,3,-93.172634,11.607193,2025-04-04T03:48:13Z,-0.237525,-0.968701,0.040646,2025-04-04T03:48:12Z,0.087166,0.005184,-0.020235,2025-04-04T03:48:12Z
44,255.76438,0.27391,7.258299,44.940119,283.17438,270,2.097809,3,-93.172783,11.827423,2025-04-04T03:48:14Z,-0.238976,-0.975768,0.03573,2025-04-04T03:48:13Z,0.140472,-0.11741,-0.030428,2025-04-04T03:48:13Z
45,255.764264,0.285254,7.258574,44.940119,283.174263,270,2.052093,3,-93.172931,11.787542,2025-04-04T03:48:15Z,-0.232218,-0.956617,0.036593,2025-04-04T03:48:14Z,0.095664,0.149819,-0.048027,2025-04-04T03:48:14Z
46,255.789078,0.289477,7.258766,44.940121,283.199078,270,2.027494,3,-93.173083,12.019058,2025-04-04T03:48:16Z,-0.237509,-0.976021,0.042887,2025-04-04T03:48:15Z,0.051877,-0.090055,0.052085,2025-04-04T03:48:15Z
47,255.794158,0.285233,7.25864,44.940121,283.204158,270,2.014436,3,-93.173236,12.110896,2025-04-04T03:48:17Z,-0.246417,-0.966385,0.038783,2025-04-04T03:48:16Z,0.042961,0.028416,-0.072296,2025-04-04T03:48:16Z
48,255.981337,0.299219,7.258907,44.940122,283.391337,270,2.007533,3,-93.17339,12.132863,2025-04-04T03:48:18Z,-0.237192,-0.966715,0.036535,2025-04-04T03:48:17Z,0.081639,0.023665,-0.019636,2025-04-04T03:48:17Z
49,255.948415,0.304012,7.258959,44.940122,283.358414,270,2.003919,3,-93.173544,12.144011,2025-04-04T03:48:19Z,-0.229718,-0.956893,0.045545,2025-04-04T03:48:18Z,0.155579,0.102095,-0.050663,2025-04-04T03:48:18Z
50,255.949148,0.291111,7.258746,44.940123,283.359147,270,2.002024,3,-93.173703,12.43164,2025-04-04T03:48:20Z,-0.253506,-0.974057,0.040119,2025-04-04T03:48:19Z,-0.037369,-0.068402,-0.029297,2025-04-04T03:48:19Z
51,255.914355,0.281117,7.258401,44.940125,283.324355,270,2.001036,3,-93.173861,12.42691,2025-04-04T03:48:21Z,-0.249724,-0.963564,0.051524,2025-04-04T03:48:20Z,-0.009845,0.039613,0.036147,2025-04-04T03:48:20Z
52,255.943176,0.29292,7.258825,44.940127,283.353176,270,2.000532,3,-93.17402,12.474576,2025-04-04T03:48:22Z,-0.271075,-0.958415,0.039724,2025-04-04T03:48:21Z,-0.203127,0.082004,-0.056606,2025-04-04T03:48:21Z
53,255.806508,0.291599,7.258667,44.940127,283.216508,270,2.000272,3,-93.174178,12.409369,2025-04-04T03:48:23Z,-0.277946,-0.938255,0.018287,2025-04-04T03:48:22Z,-0.215193,0.272966,-0.18839,2025-04-04T03:48:22Z
54,255.489499,0.278691,7.257627,44.940127,282.899499,270,2.00014,3,-93.174332,12.156858,2025-04-04T03:48:24Z,-0.275362,-0.960589,0.041485,2025-04-04T03:48:23Z,-0.126806,0.033368,-0.010095,2025-04-04T03:48:23Z
55,254.973762,0.281806,7.257787,44.940132,282.383761,270.142517,2.000073,3,-93.17448,11.895283,2025-04-04T03:48:25Z,-0.277384,-0.951997,0.034213,2025-04-04T03:48:24Z,-0.070082,0.121281,-0.031518,2025-04-04T03:48:24Z
56,254.742906,0.274574,7.257041,44.940131,282.152905,270.142517,2.000038,3,-93.174634,11.905365,2025-04-04T03:48:26Z,-0.281978,-0.956322,0.049625,2025-04-04T03:48:25Z,-0.112302,0.028475,0.040515,2025-04-04T03:48:25Z
57,254.410827,0.27022,7.256499,44.94013,281.820826,270.142517,2.00002,3,-93.174784,11.877917,2025-04-04T03:48:27Z,-0.275631,-0.958473,0.029812,2025-04-04T03:48:26Z,-0.01941,0.034966,-0.119922,2025-04-04T03:48:26Z
58,254.185609,0.273332,7.256916,44.940129,281.595609,270.292633,2.00001,3,-93.174936,11.853352,2025-04-04T03:48:28Z,-0.281466,-0.950666,0.043728,2025-04-04T03:48:27Z,-0.064591,0.082591,-0.072785,2025-04-04T03:48:27Z
59,253.77124800000001,0.269292,7.256464,44.94013,281.181248,270.21167,2.000005,3,-93.175089,11.925487,2025-04-04T03:48:29Z,-0.280031,-0.962775,0.039963,2025-04-04T03:48:28Z,-0.06637,-0.01785,-0.119338,2025-04-04T03:48:28Z
60,253.625623,0.268116,7.256264,44.94013,281.035623,270.21167,2.000003,3,-93.175237,11.737857,2025-04-04T03:48:30Z,-0.282827,-0.958656,0.044141,2025-04-04T03:48:29Z,-0.013074,-0.006339,0.022924,2025-04-04T03:48:29Z
61,253.886859,0.274876,7.257115,44.94013,281.296858,270.21167,2.000002,3,-93.175382,11.572378,2025-04-04T03:48:31Z,-0.279379,-0.956365,0.043267,2025-04-04T03:48:30Z,-0.00824,0.027852,-0.026311,2025-04-04T03:48:30Z
62,253.838829,0.282117,7.257845,44.94013,281.248829,270.21167,2.000001,3,-93.175528,11.480721,2025-04-04T03:48:32Z,-0.278241,-0.952956,0.042406,2025-04-04T03:48:31Z,-0.014892,0.069926,-0.059364,2025-04-04T03:48:31Z
63,253.625293,0.275678,7.257285,44.94013,281.035293,270.21167,2.197739,3,-93.175676,11.454352,2025-04-04T03:48:33Z,-0.282035,-0.962267,0.047928,2025-04-04T03:48:32Z,-0.040287,-0.013477,0.018145,2025-04-04T03:48:32Z
64,253.922603,0.271242,7.256785,44.940126,281.332603,270.21167,2.105401,3,-93.175823,11.470822,2025-04-04T03:48:34Z,-0.283898,-0.95171,0.050056,2025-04-04T03:48:33Z,-0.023108,0.045743,0.030835,2025-04-04T03:48:33Z
65,253.721213,0.272658,7.256947,44.940128,281.131213,270.21167,2.05603,3,-93.175971,11.527476,2025-04-04T03:48:35Z,-0.301414,-0.961057,0.041038,2025-04-04T03:48:34Z,-0.231736,-0.00599,-0.020724,2025-04-04T03:48:34Z
66,253.737259,0.275882,7.257267,44.940129,281.147258,270.21167,2.030039,3,-93.176114,11.300179,2025-04-04T03:48:36Z,-0.299258,-0.948517,0.034857,2025-04-04T03:48:35Z,-0.153061,0.081618,-0.109227,2025-04-04T03:48:35Z
67,253.669085,0.269866,7.25657,44.940128,281.079085,270,2.134578,3,-93.176255,11.126618,2025-04-04T03:48:37Z,-0.317111,-0.946017,0.014403,2025-04-04T03:48:36Z,-0.327239,0.108002,-0.25968,2025-04-04T03:48:36Z
68,253.580434,0.274328,7.257,44.94013,280.990434,270,2.073151,3,-93.176392,10.727443,2025-04-04T03:48:38Z,-0.333758,-0.945188,0.009677,2025-04-04T03:48:37Z,-0.495418,0.129548,-0.36622,2025-04-04T03:48:37Z
69,253.417224,0.318005,7.247889,44.94013,280.827224,270,3.289177,3,-93.176522,10.088015,2025-04-04T03:48:39Z,-0.355772,-0.938634,0.015354,2025-04-04T03:48:38Z,-0.630647,0.169046,-0.360087,2025-04-04T03:48:38Z
70,253.283924,0.377793,7.249019,44.940132,280.693924,270,3.092723,3,-93.176637,9.2665,2025-04-04T03:48:40Z,-0.364528,-0.936899,0.023188,2025-04-04T03:48:39Z,-0.666574,0.160058,-0.287862,2025-04-04T03:48:39Z
71,252.833172,0.483318,7.726318,44.940136,280.243172,270,3.11552,3,-93.176744,8.389308,2025-04-04T03:48:41Z,-0.414259,-0.931203,0.009856,2025-04-04T03:48:40Z,-1.11316,0.215824,-0.300953,2025-04-04T03:48:40Z
72,NA,NA,NA,NA,NA,NA,NA,NA,NA,NA,NA,-0.43149,-0.906889,-0.042521,2025-04-04T03:48:41Z,-1.215589,0.369405,-0.727224,2025-04-04T03:48:41Z
