seconds_elapsed,location_altitude,location_speedAccuracy,location_bearingAccuracy,location_latitude,location_altitudeAboveMeanSeaLevel,location_bearing,location_horizontalAccuracy,location_verticalAccuracy,location_longitude,location_speed,location_local_time,accelerometerUncalibrated_z,accelerometerUncalibrated_y,accelerometerUncalibrated_x,accelerometerUncalibrated_local_time,accelerometer_z,accelerometer_y,accelerometer_x,accelerometer_local_time
0,251.989872,0.55,7.779382,44.940093,279.399872,145.37112,4.748652,4.029364,-93.177157,6.745,2025-04-04T03:49:16Z,-0.31251,-0.942142,0.236014,2025-04-04T03:49:16Z,-1.134532,0.351455,1.602137,2025-04-04T03:49:16Z
1,251.544558,0.81,11.394628,44.940068,278.954558,101.601613,4.748652,4.029364,-93.177003,5.76,2025-04-04T03:49:18Z,-0.239637,-0.966904,0.130439,2025-04-04T03:49:17Z,-0.454803,0.091173,0.57879100000000006,2025-04-04T03:49:17Z
2,251.563601,1.3,18.776649,44.940064,278.973601,90,4.748652,4.029364,-93.176928,5.61,2025-04-04T03:49:19Z,-0.150702,-0.986023,0.097457,2025-04-04T03:49:18Z,0.334546,-0.052745,0.153884,2025-04-04T03:49:18Z
3,251.225344,0.82,11.843733,44.940087,278.635344,90.305824,4.748652,4.029364,-93.176856,5.61,2025-04-04T03:49:20Z,-0.151445,-0.98439,0.08295,2025-04-04T03:49:19Z,0.349564,-0.05691,-0.083177,2025-04-04T03:49:19Z
4,250.974307,0.58,8.187546,44.940088,278.384307,90.305824,4.748652,4.029364,-93.176774,5.74,2025-04-04T03:49:21Z,-0.146593,-0.989341,0.070943,2025-04-04T03:49:20Z,0.352604,-0.101747,-0.165318,2025-04-04T03:49:20Z
5,250.862676,0.308016,7.258975,44.940091,278.272675,90.305824,4.748652,4.029364,-93.176659,7.72,2025-04-04T03:49:22Z,-0.154839,-0.983223,0.070523,2025-04-04T03:49:21Z,0.255564,-0.045299,-0.188534,2025-04-04T03:49:21Z
6,250.756109,0.308016,7.258975,44.940093,278.166109,90,4.748652,4.029364,-93.17655,8.38,2025-04-04T03:49:23Z,-0.174492,-0.983719,0.07558,2025-04-04T03:49:22Z,0.077203,-0.037764,-0.160288,2025-04-04T03:49:22Z
7,250.756475,0.37,7.258975,44.940086,278.166475,90,4.748652,4.029364,-93.176439,8.38,2025-04-04T03:49:24Z,-0.19211,-0.971337,0.051198,2025-04-04T03:49:23Z,-0.147112,0.096376,-0.264016,2025-04-04T03:49:23Z
8,250.520881,0.41,7.258975,44.940094,277.93088,90,4.748652,4.029364,-93.176317,9.08,2025-04-04T03:49:25Z,-0.21171,-0.976871,0.055408,2025-04-04T03:49:24Z,-0.318084,0.040522,-0.223695,2025-04-04T03:49:24Z
9,250.720954,1.78,15.575666,44.940084,278.130954,90,4.748652,4.029364,-93.176191,9.26,2025-04-04T03:49:26Z,-0.201311,-0.977124,0.048424,2025-04-04T03:49:25Z,-0.199144,0.033442,-0.289642,2025-04-04T03:49:25Z
10,251.232978,0.99,8.588671,44.940094,278.642978,90.211678,4.748652,4.029364,-93.176072,9.34,2025-04-04T03:49:27Z,-0.229053,-0.975177,0.039838,2025-04-04T03:49:26Z,-0.422623,0.041909,-0.304132,2025-04-04T03:49:26Z
11,251.469246,1.4,11.658773,44.940087,278.879246,90.211678,4.748652,4.029364,-93.175945,9.73,2025-04-04T03:49:28Z,-0.216035,-0.973136,0.04742,2025-04-04T03:49:27Z,-0.294425,0.053598,-0.266662,2025-04-04T03:49:27Z
12,251.525703,0.49,7.258975,44.940086,278.935703,90.211678,4.748652,4.029364,-93.175824,9.67,2025-04-04T03:49:29Z,-0.229074,-0.969822,0.045783,2025-04-04T03:49:28Z,-0.368364,0.103451,-0.238694,2025-04-04T03:49:28Z
13,252.050056,0.308017,7.258975,44.940087,279.460056,90.211678,4.748652,4.029364,-93.175702,9.67,2025-04-04T03:49:30Z,-0.237839,-0.970545,0.051865,2025-04-04T03:49:29Z,-0.40338,0.062369,-0.190738,2025-04-04T03:49:29Z
14,252.362556,0.67,7.258975,44.940087,279.772556,90.211678,4.748652,4.029364,-93.175579,9.67,2025-04-04T03:49:31Z,-0.22311,-0.961674,0.044191,2025-04-04T03:49:30Z,-0.229036,0.145446,-0.234994,2025-04-04T03:49:30Z
15,252.422737,0.308016,7.258975,44.940085,279.832737,90.211678,4.748652,4.029364,-93.175456,9.57,2025-04-04T03:49:32Z,-0.225348,-0.959443,0.056374,2025-04-04T03:49:31Z,-0.294114,0.192285,-0.157682,2025-04-04T03:49:31Z
16,252.529548,0.308016,7.258975,44.940087,279.939548,90.211678,4.748652,4.029364,-93.175332,9.59,2025-04-04T03:49:33Z,-0.241953,-0.990948,0.051471,2025-04-04T03:49:32Z,-0.359978,-0.128375,-0.119864,2025-04-04T03:49:32Z
17,254.41007,1.264113,10.75289,44.940086,281.820069,90.211678,2,3,-93.175215,9.520608,2025-04-04T03:49:34Z,-0.227336,-0.962596,0.044888,2025-04-04T03:49:33Z,-0.204685,0.118846,-0.144132,2025-04-04T03:49:33Z
18,254.824005,1.267031,10.847962,44.940088,282.234005,90.211678,2,3,-93.175096,9.453761,2025-04-04T03:49:35Z,-0.216907,-0.964857,0.046561,2025-04-04T03:49:34Z,-0.096397,0.143757,-0.219248,2025-04-04T03:49:34Z
19,254.887603,1.267084,10.691624,44.940087,282.297603,90.292641,2,3,-93.174974,9.597638,2025-04-04T03:49:36Z,-0.201081,-0.980209,0.064863,2025-04-04T03:49:35Z,0.089673,-0.077848,-0.014009,2025-04-04T03:49:35Z
20,254.948368,1.265878,10.538315,44.940087,282.358368,90.292641,2,3,-93.174848,9.730004,2025-04-04T03:49:37Z,-0.210931,-0.973532,0.056421,2025-04-04T03:49:36Z,-0.005873,0.017753,-0.142859,2025-04-04T03:49:36Z
21,255.273836,1.390856,13.582179,44.940081,282.683836,90.292641,2.141558,3,-93.174751,8.289749,2025-04-04T03:49:38Z,-0.213705,-0.974227,0.062509,2025-04-04T03:49:37Z,-0.024425,0.008955,-0.030707,2025-04-04T03:49:37Z
22,255.538371,1.266645,10.254493,44.940082,282.948371,90.142525,2.080605,3,-93.174602,10.002225,2025-04-04T03:49:39Z,-0.204148,-0.965341,0.042241,2025-04-04T03:49:38Z,0.061781,0.111026,-0.158592,2025-04-04T03:49:38Z
23,255.763143,0.896776,7.255184,44.940082,283.173142,90.142525,2.044915,3,-93.174467,10.060255,2025-04-04T03:49:40Z,-0.228883,-0.980877,0.056484,2025-04-04T03:49:39Z,-0.134484,-0.066296,-0.058349,2025-04-04T03:49:39Z
24,255.940891,0.895919,7.255612,44.940081,283.350891,90.142525,2.12129,3,-93.174337,10.099275,2025-04-04T03:49:41Z,-0.220862,-0.959103,0.060581,2025-04-04T03:49:40Z,-0.048907,0.137178,-0.024026,2025-04-04T03:49:40Z
25,256.126777,0.895282,7.256646,44.940084,283.536777,90.142525,2.06799,3,-93.174199,10.491903,2025-04-04T03:49:42Z,-0.24381,-0.967141,0.044921,2025-04-04T03:49:41Z,-0.114326,0.043381,-0.085029,2025-04-04T03:49:41Z
26,255.892809,0.894718,7.258883,44.940084,283.302809,90,2.038141,3,-93.174067,10.454406,2025-04-04T03:49:43Z,-0.228039,-0.955679,0.061168,2025-04-04T03:49:42Z,-0.014692,0.176994,-0.023991,2025-04-04T03:49:42Z
27,256.331211,0.89964,7.257157,44.940085,283.741211,90,2.073209,3,-93.173933,10.483297,2025-04-04T03:49:44Z,-0.250861,-0.963206,0.044371,2025-04-04T03:49:43Z,-0.130447,0.057499,-0.16862,2025-04-04T03:49:43Z
28,256.293416,0.952307,7.304711,44.940085,283.703416,90,2.040892,3,-93.173798,10.562437,2025-04-04T03:49:45Z,-0.231385,-0.966724,0.047415,2025-04-04T03:49:44Z,0.02263,0.039274,-0.069829,2025-04-04T03:49:44Z
29,255.813056,0.896672,7.258673,44.940087,283.223056,90,2.438001,3,-93.173667,10.494122,2025-04-04T03:49:46Z,-0.245757,-0.971496,0.043475,2025-04-04T03:49:45Z,-0.064764,-0.046142,-0.105464,2025-04-04T03:49:45Z
30,255.684589,0.646507,7.258383,44.940087,283.094588,90,2.244982,3,-93.173532,10.565479,2025-04-04T03:49:47Z,-0.237271,-0.956186,0.035553,2025-04-04T03:49:46Z,0.030321,0.126256,-0.27004,2025-04-04T03:49:46Z
31,255.760561,0.642831,7.258946,44.940087,283.170561,90,2.136394,3,-93.173397,10.629516,2025-04-04T03:49:48Z,-0.250984,-0.971752,0.061294,2025-04-04T03:49:47Z,-0.09672,-0.030777,0.012044,2025-04-04T03:49:47Z
32,256.045076,0.647089,7.258449,44.940085,283.455076,90,2.075837,3,-93.173262,10.643146,2025-04-04T03:49:49Z,-0.24082,-0.962585,0.053197,2025-04-04T03:49:48Z,-0.004026,0.072829,-0.072215,2025-04-04T03:49:48Z
33,255.981084,0.645859,7.258907,44.940081,283.391084,90,2.041755,3,-93.173122,10.790812,2025-04-04T03:49:50Z,-0.229651,-0.971668,0.047073,2025-04-04T03:49:49Z,0.090183,-0.023007,-0.033975,2025-04-04T03:49:49Z
34,256.137002,0.643201,7.258682,44.940081,283.547002,90,2.023025,3,-93.172983,10.937912,2025-04-04T03:49:51Z,-0.227876,-0.966074,0.044385,2025-04-04T03:49:50Z,0.155411,0.024555,-0.079426,2025-04-04T03:49:50Z
35,256.094815,0.643488,7.258937,44.94008,283.504815,90,2.012574,3,-93.172841,11.104358,2025-04-04T03:49:52Z,-0.229267,-0.978916,0.072837,2025-04-04T03:49:51Z,0.130844,-0.121511,0.158726,2025-04-04T03:49:51Z
36,256.274201,0.646416,7.258547,44.94008,283.684201,90.098969,2.00681,3,-93.172694,11.417539,2025-04-04T03:49:53Z,-0.225643,-0.969855,0.045388,2025-04-04T03:49:52Z,0.111873,0.019376,-0.147749,2025-04-04T03:49:52Z
37,255.941403,0.645221,7.258316,44.940078,283.351403,90.098969,2.00368,3,-93.172552,11.362119,2025-04-04T03:49:54Z,-0.230972,-0.968461,0.059147,2025-04-04T03:49:53Z,0.067103,0.013446,0.028462,2025-04-04T03:49:53Z
38,256.467083,0.699525,7.258237,44.940071,283.877083,90.098969,2.001962,3,-93.172401,11.685525,2025-04-04T03:49:55Z,-0.238195,-0.956629,0.046252,2025-04-04T03:49:54Z,0.049866,0.098259,-0.090088,2025-04-04T03:49:54Z
39,256.367123,0.651215,7.25891,44.940074,283.777122,90.098969,2.001039,3,-93.172249,11.832647,2025-04-04T03:49:56Z,-0.23389,-0.966395,0.06985,2025-04-04T03:49:55Z,0.074217,0.018072,0.082746,2025-04-04T03:49:55Z
40,256.215421,0.642056,7.258905,44.940079,283.625421,90.098969,2.00055,3,-93.172102,11.741619,2025-04-04T03:49:57Z,-0.257448,-0.974448,0.064075,2025-04-04T03:49:56Z,-0.177473,-0.040722,0.020507,2025-04-04T03:49:56Z
41,256.297186,0.644731,7.258897,44.940076,283.707186,90.147049,2.00029,3,-93.171949,11.876655,2025-04-04T03:49:58Z,-0.256182,-0.964062,0.05078,2025-04-04T03:49:57Z,-0.169222,0.044471,-0.086806,2025-04-04T03:49:57Z
42,256.447808,0.656702,7.258804,44.940078,283.857808,90.147049,2.000153,3,-93.171801,11.764725,2025-04-04T03:49:59Z,-0.250914,-0.951075,0.042411,2025-04-04T03:49:58Z,-0.083699,0.168973,-0.1566,2025-04-04T03:49:58Z
43,255.666612,0.771036,7.257025,44.940079,283.076612,90.147049,2.178793,3,-93.171656,11.587825,2025-04-04T03:50:00Z,-0.255721,-0.975951,0.062444,2025-04-04T03:49:59Z,-0.143471,-0.073287,-0.00949,2025-04-04T03:49:59Z
44,256.922935,0.858888,7.256553,44.94007,284.332935,90.147049,2.367112,3,-93.171497,12.042887,2025-04-04T03:50:01Z,-0.243841,-0.944343,0.048465,2025-04-04T03:50:00Z,-0.0275,0.248465,-0.076686,2025-04-04T03:50:00Z
45,256.314406,0.679482,7.258912,44.940072,283.724406,90.141251,3.347177,3.404109,-93.171362,11.496009,2025-04-04T03:50:02Z,-0.260209,-0.997893,0.048,2025-04-04T03:50:01Z,-0.206869,-0.296133,-0.065555,2025-04-04T03:50:01Z
46,256.231358,0.661448,7.258785,44.940069,283.641358,90.141251,2.721937,3,-93.171216,11.492604,2025-04-04T03:50:03Z,-0.240365,-0.953891,0.063497,2025-04-04T03:50:02Z,-0.043605,0.161221,0.041679,2025-04-04T03:50:02Z
47,256.480446,0.646942,7.258608,44.940074,283.890445,90.141251,2.388612,3,-93.171075,11.293567,2025-04-04T03:50:04Z,-0.234491,-0.969281,0.048837,2025-04-04T03:50:03Z,-0.009454,0.022518,-0.027324,2025-04-04T03:50:03Z
48,256.754855,0.641302,7.258181,44.940076,284.164854,90.141251,2.209697,3,-93.17093,11.365544,2025-04-04T03:50:05Z,-0.235871,-0.976494,0.03378,2025-04-04T03:50:04Z,-0.016889,-0.062319,-0.121981,2025-04-04T03:50:04Z
49,257.075436,0.640711,7.257913,44.940076,284.485436,90.141251,2.112871,3,-93.170788,11.237419,2025-04-04T03:50:06Z,-0.242955,-0.950905,0.044806,2025-04-04T03:50:05Z,-0.064288,0.19556,-0.084153,2025-04-04T03:50:05Z
50,257.378324,0.645897,7.257659,44.940074,284.788324,90.141251,2.061086,3,-93.170646,11.144184,2025-04-04T03:50:07Z,-0.248186,-0.974291,0.038374,2025-04-04T03:50:06Z,-0.081689,-0.051078,-0.048271,2025-04-04T03:50:06Z
51,257.129769,0.642776,7.258967,44.940072,284.539769,90.141251,2.033438,3,-93.170509,10.976566,2025-04-04T03:50:08Z,-0.238472,-0.969216,0.046249,2025-04-04T03:50:07Z,-0.033329,0.020929,0.018522,2025-04-04T03:50:07Z
52,257.35244,0.64241,7.258121,44.940072,284.76244,90.141251,2.018294,3,-93.170369,11.000086,2025-04-04T03:50:09Z,-0.239173,-0.963384,0.040149,2025-04-04T03:50:08Z,0.021455,0.062805,0.016523,2025-04-04T03:50:08Z
53,257.493426,0.641384,7.257247,44.940075,284.903426,90.339104,2.010059,3,-93.170231,10.973184,2025-04-04T03:50:10Z,-0.233295,-0.968885,0.041801,2025-04-04T03:50:09Z,0.02135,0.009042,-0.06272,2025-04-04T03:50:09Z
54,257.90427,0.642608,7.252812,44.940077,285.31427,90.339104,2.005541,3,-93.170094,10.963335,2025-04-04T03:50:11Z,-0.231943,-0.974025,0.040913,2025-04-04T03:50:10Z,0.0408,-0.027436,-0.041392,2025-04-04T03:50:10Z
55,258.077597,0.648511,7.254399,44.940075,285.487597,90.339104,2.006688,3,-93.169955,10.923099,2025-04-04T03:50:12Z,-0.2356,-0.976005,0.052831,2025-04-04T03:50:11Z,0.083131,-0.075809,0.01936,2025-04-04T03:50:11Z
56,257.903308,0.646218,7.258353,44.940076,285.313308,90.18795,2.302472,3,-93.169818,10.887515,2025-04-04T03:50:13Z,-0.218265,-0.967377,0.055928,2025-04-04T03:50:12Z,0.148587,0.023558,0.045026,2025-04-04T03:50:12Z
57,258.1777,0.649917,7.256814,44.940076,285.5877,90.18795,2.166323,3,-93.169678,10.988139,2025-04-04T03:50:14Z,-0.221444,-0.96412,0.048652,2025-04-04T03:50:13Z,0.131943,0.077661,-0.073728,2025-04-04T03:50:13Z
58,258.185619,0.649169,7.258545,44.940076,285.595619,90.18795,2.090935,3,-93.169536,11.196274,2025-04-04T03:50:15Z,-0.231302,-0.978184,0.035533,2025-04-04T03:50:14Z,0.043942,-0.095701,-0.092938,2025-04-04T03:50:14Z
59,258.458484,0.651854,7.255686,44.940076,285.868484,90.375908,2.049808,3,-93.169399,10.950638,2025-04-04T03:50:16Z,-0.236836,-0.971401,0.056351,2025-04-04T03:50:15Z,0.012906,-0.001006,0.055234,2025-04-04T03:50:15Z
60,258.484896,0.647413,7.257472,44.940075,285.894895,90.460693,2.027139,3,-93.169257,11.077267,2025-04-04T03:50:17Z,-0.215588,-0.980786,0.047429,2025-04-04T03:50:16Z,0.045766,-0.062733,-0.009803,2025-04-04T03:50:16Z
61,258.78589,0.643451,7.257189,44.940073,286.19589,90.460693,2.014813,3,-93.169116,11.114086,2025-04-04T03:50:18Z,-0.213752,-0.972972,0.05077,2025-04-04T03:50:17Z,0.065361,0.015034,-0.015747,2025-04-04T03:50:17Z
62,259.150736,0.641925,7.256427,44.940076,286.560736,90.460693,2.008087,3,-93.168975,11.168162,2025-04-04T03:50:19Z,-0.22089,-0.966095,0.04615,2025-04-04T03:50:18Z,0.053541,0.039778,-0.014935,2025-04-04T03:50:18Z
63,259.472586,0.645771,7.255129,44.940076,286.882586,90.150787,2.004414,3,-93.168836,11.038808,2025-04-04T03:50:20Z,-0.230436,-0.972366,0.043914,2025-04-04T03:50:19Z,-0.138255,0.045323,-0.084593,2025-04-04T03:50:19Z
64,259.905247,0.652222,7.254577,44.940076,287.315246,90.150787,2.002403,3,-93.168696,11.017732,2025-04-04T03:50:21Z,-0.227174,-0.965782,0.046616,2025-04-04T03:50:20Z,-0.032241,0.072045,-0.033885,2025-04-04T03:50:20Z
65,260.358556,0.661112,7.249667,44.940076,287.768556,90.150787,2.001318,3,-93.16856,10.824441,2025-04-04T03:50:22Z,-0.2236,-0.970248,0.053425,2025-04-04T03:50:21Z,-0.011229,0.034933,0.03039,2025-04-04T03:50:21Z
66,260.640151,0.656681,7.250017,44.940076,288.050151,90.143539,2.000727,3,-93.168424,10.711317,2025-04-04T03:50:23Z,-0.230859,-0.967806,0.055126,2025-04-04T03:50:22Z,-0.070537,0.053928,0.030195,2025-04-04T03:50:22Z
67,261.045956,0.654932,7.25103,44.940078,288.455955,90.143539,2.000401,3,-93.168287,10.722755,2025-04-04T03:50:24Z,-0.214637,-0.983196,0.047622,2025-04-04T03:50:23Z,0.09117,-0.092497,-0.007272,2025-04-04T03:50:23Z
68,261.570884,0.660275,7.246759,44.94008,288.980884,90.143539,2.000223,3,-93.168153,10.588762,2025-04-04T03:50:25Z,-0.218822,-0.968627,0.039685,2025-04-04T03:50:24Z,0.026253,0.057159,-0.064304,2025-04-04T03:50:24Z
69,261.601138,0.646873,7.255664,44.940075,289.011138,90.143539,2.000124,3,-93.168019,10.600736,2025-04-04T03:50:26Z,-0.22068,-0.973725,0.036756,2025-04-04T03:50:25Z,0.022385,0.004888,-0.087435,2025-04-04T03:50:25Z
70,262.110278,0.649354,7.24984,44.940079,289.520278,89.802132,2.000069,3,-93.167884,10.571467,2025-04-04T03:50:27Z,-0.214938,-0.969609,0.035341,2025-04-04T03:50:26Z,0.107635,0.018653,-0.093719,2025-04-04T03:50:26Z
71,262.485473,0.652647,7.248911,44.940078,289.895473,89.802132,2.000038,3,-93.167751,10.511462,2025-04-04T03:50:28Z,-0.214557,-0.973323,0.026012,2025-04-04T03:50:27Z,0.068695,0.015966,-0.131332,2025-04-04T03:50:27Z
72,262.689813,0.650746,7.254363,44.940076,290.099813,89.802132,2.000021,3,-93.167617,10.557398,2025-04-04T03:50:29Z,-0.217371,-0.973169,0.04733,2025-04-04T03:50:28Z,0.072272,0.00472,0.046004,2025-04-04T03:50:28Z
73,263.009125,0.648265,7.252983,44.940075,290.419125,89.802132,2.000012,3,-93.167484,10.543338,2025-04-04T03:50:30Z,-0.217949,-0.974177,0.045265,2025-04-04T03:50:29Z,0.096691,-0.007709,0.013489,2025-04-04T03:50:29Z
74,263.354608,0.642468,7.251994,44.940075,290.764607,89.613403,2.000007,3,-93.16735,10.528231,2025-04-04T03:50:31Z,-0.220605,-0.967901,0.041878,2025-04-04T03:50:30Z,0.066128,0.041038,0.060279,2025-04-04T03:50:30Z
75,263.485151,0.645361,7.256303,44.940074,290.895151,89.604362,2.000004,3,-93.167217,10.51691,2025-04-04T03:50:32Z,-0.237308,-0.942411,0.028741,2025-04-04T03:50:31Z,-0.00915,0.290498,-0.010342,2025-04-04T03:50:31Z
76,NA,NA,NA,NA,NA,NA,NA,NA,NA,NA,NA,-0.275221,-0.971674,0.039127,2025-04-04T03:50:32Z,-0.394233,-0.005579,-0.01789,2025-04-04T03:50:32Z
