seconds_elapsed,location_altitude,location_speedAccuracy,location_bearingAccuracy,location_latitude,location_altitudeAboveMeanSeaLevel,location_bearing,location_horizontalAccuracy,location_verticalAccuracy,location_longitude,location_speed,location_local_time,accelerometerUncalibrated_z,accelerometerUncalibrated_y,accelerometerUncalibrated_x,accelerometerUncalibrated_local_time,accelerometer_z,accelerometer_y,accelerometer_x,accelerometer_local_time
0,249.806123,0.382908,15.160755,44.941355,277.216123,43.36174,2.448647,3,-93.177124,3.605442,2025-04-04T03:30:07Z,-0.137126,-0.993517,-0.132808,2025-04-04T03:30:07Z,0.920256,-0.215823,-0.967487,2025-04-04T03:30:07Z
1,249.97169,0.373385,11.940035,44.941374,277.38169,63.074387,2.384555,3,-93.177073,4.088766,2025-04-04T03:30:08Z,-0.125592,-0.987591,-0.103219,2025-04-04T03:30:08Z,0.857879,-0.116825,-0.473503,2025-04-04T03:30:08Z
2,250.099768,0.327363,7.692192,44.941382,277.509768,91.915314,2.400504,3,-93.176993,5.259767,2025-04-04T03:30:09Z,-0.142866,-0.991984,-0.040612,2025-04-04T03:30:09Z,0.601974,-0.156215,0.334641,2025-04-04T03:30:09Z
3,250.224098,0.323995,7.310487,44.941364,277.634098,91.915314,2.391472,3,-93.176907,6.321905,2025-04-04T03:30:10Z,-0.146686,-0.992893,-0.067362,2025-04-04T03:30:10Z,0.455315,-0.154388,0.219273,2025-04-04T03:30:10Z
4,250.348901,0.323512,7.258512,44.941362,277.7589,90.718887,2.341451,3,-93.176815,7.094385,2025-04-04T03:30:11Z,-0.151455,-0.990656,-0.056697,2025-04-04T03:30:11Z,0.298168,-0.104633,0.369045,2025-04-04T03:30:11Z
5,250.509548,0.327498,7.258562,44.941361,277.919548,90.718887,3.713275,3,-93.176711,7.894064,2025-04-04T03:30:12Z,-0.15458,-0.993152,-0.042898,2025-04-04T03:30:12Z,0.256392,-0.144426,0.426935,2025-04-04T03:30:12Z
6,250.76377,0.334184,7.258547,44.941361,278.173769,90.330261,2.206539,3,-93.176609,8.598919,2025-04-04T03:30:13Z,-0.163955,-0.989148,-0.030336,2025-04-04T03:30:13Z,0.115093,-0.070604,0.394371,2025-04-04T03:30:13Z
7,250.961318,0.331043,7.258637,44.94136,278.371318,90.330261,2.140079,3,-93.176488,9.307282,2025-04-04T03:30:14Z,-0.176005,-0.979706,-0.032845,2025-04-04T03:30:14Z,0.010547,0.021126,0.342172,2025-04-04T03:30:14Z
8,251.122633,0.320733,7.2588800000000004,44.941358,278.532632,90.330261,2.088446,3,-93.176363,9.852582,2025-04-04T03:30:15Z,-0.174451,-0.985659,-0.019978,2025-04-04T03:30:15Z,0.044668,-0.053321,0.392705,2025-04-04T03:30:15Z
9,251.298223,0.316355,7.258941,44.941355,278.708223,90.330261,2.137338,3,-93.17623,10.426307,2025-04-04T03:30:16Z,-0.182122,-0.987858,-0.01372,2025-04-04T03:30:16Z,-0.067075,-0.029274,0.380714,2025-04-04T03:30:16Z
10,251.08541,0.320258,7.258898,44.941354,278.49541,90,2.082972,3,-93.176097,10.789596,2025-04-04T03:30:17Z,-0.186006,-0.979254,-0.010933,2025-04-04T03:30:17Z,-0.093704,0.037322,0.334227,2025-04-04T03:30:17Z
11,251.389567,0.313562,7.258961,44.941354,278.799567,90,2.047686,3,-93.175951,11.281905,2025-04-04T03:30:18Z,-0.212129,-0.973228,-0.015196,2025-04-04T03:30:18Z,-0.300832,0.092223,0.265523,2025-04-04T03:30:18Z
12,251.471717,0.296756,7.258916,44.941353,278.881717,90,2.025432,3,-93.175799,11.69399,2025-04-04T03:30:19Z,-0.217601,-0.978046,-0.022292,2025-04-04T03:30:19Z,-0.378998,0.050298,0.197705,2025-04-04T03:30:19Z
13,251.752451,0.298623,7.258926,44.941353,279.162451,90,2.013384,3,-93.175644,11.947215,2025-04-04T03:30:20Z,-0.229413,-0.970548,-0.027295,2025-04-04T03:30:20Z,-0.475924,0.115611,0.132443,2025-04-04T03:30:20Z
14,251.965533,0.302334,7.258951,44.941352,279.375533,90,2.007069,3,-93.175494,11.980169,2025-04-04T03:30:21Z,-0.240746,-0.965169,-0.030407,2025-04-04T03:30:21Z,-0.514352,0.158171,0.041789,2025-04-04T03:30:21Z
15,252.024576,0.303834,7.258944,44.941353,279.434575,90,2.003746,3,-93.175347,11.822027,2025-04-04T03:30:22Z,-0.243282,-0.96894,-0.032445,2025-04-04T03:30:22Z,-0.495528,0.116646,0.039798,2025-04-04T03:30:22Z
16,252.242825,0.306113,7.258964,44.941351,279.652825,90,2.144044,3,-93.175197,11.761649,2025-04-04T03:30:23Z,-0.244475,-0.97055,-0.019066,2025-04-04T03:30:23Z,-0.483636,0.097286,0.186588,2025-04-04T03:30:23Z
17,252.586467,0.308582,7.258973,44.941351,279.996467,90,2.076013,3,-93.175049,11.640947,2025-04-04T03:30:24Z,-0.243271,-0.967548,0.005263,2025-04-04T03:30:24Z,-0.414958,0.109869,0.368967,2025-04-04T03:30:24Z
18,252.771573,0.308971,7.258971,44.941355,280.181572,89.1409,2.044637,3,-93.174899,11.657761,2025-04-04T03:30:25Z,-0.255096,-0.966035,0.045618,2025-04-04T03:30:25Z,-0.483862,0.116209,0.762586,2025-04-04T03:30:25Z
19,253.005769,0.309215,7.25897,44.941363,280.415769,86.857971,2.023639,3,-93.17475,11.60728,2025-04-04T03:30:26Z,-0.251294,-0.962649,0.038701,2025-04-04T03:30:26Z,-0.424334,0.14252,0.795895,2025-04-04T03:30:26Z
20,252.914497,0.305646,7.258956,44.94138,280.324497,82.93586,2.012599,3,-93.174605,11.563512,2025-04-04T03:30:27Z,-0.251469,-0.979412,0.02111,2025-04-04T03:30:27Z,-0.431131,-0.024256,0.710497,2025-04-04T03:30:27Z
21,253.063309,0.310269,7.258959,44.941404,280.473309,77.278618,2.024423,3,-93.174458,11.653482,2025-04-04T03:30:28Z,-0.232027,-0.98272,-0.054568,2025-04-04T03:30:28Z,-0.256793,-0.048921,-0.128256,2025-04-04T03:30:28Z
22,253.332807,0.315645,7.258805,44.94143,280.742807,77.278618,2.012962,3,-93.174314,11.693287,2025-04-04T03:30:29Z,-0.219247,-0.952653,-0.070803,2025-04-04T03:30:29Z,-0.051952,0.235052,-0.618841,2025-04-04T03:30:29Z
23,253.527653,0.311456,7.258944,44.94145,280.937652,74.545837,2.006911,3,-93.174172,11.570903,2025-04-04T03:30:30Z,-0.227065,-0.979447,-0.056318,2025-04-04T03:30:30Z,0.072081,-0.07806,-0.779205,2025-04-04T03:30:30Z
24,253.468484,0.310783,7.258957,44.941466,280.878484,78.627281,2.003707,3,-93.174027,11.705511,2025-04-04T03:30:31Z,-0.193386,-0.981702,-0.064915,2025-04-04T03:30:31Z,0.331126,-0.074108,-0.801916,2025-04-04T03:30:31Z
25,253.646044,0.313758,7.258949,44.941475,281.056044,85.773552,2.001982,3,-93.173878,11.95702,2025-04-04T03:30:32Z,-0.207579,-0.978755,-0.038937,2025-04-04T03:30:32Z,0.256397,-0.067162,-0.494161,2025-04-04T03:30:32Z
26,253.577544,0.31412,7.258964,44.941478,280.987544,89.385696,2.00105,3,-93.173726,12.242757,2025-04-04T03:30:33Z,-0.223529,-0.97028,-0.009925,2025-04-04T03:30:33Z,0.033699,0.036972,-0.161726,2025-04-04T03:30:33Z
27,253.69893,0.30279,7.258965,44.941479,281.10893,89.385696,2.000546,3,-93.173569,12.383039,2025-04-04T03:30:34Z,-0.222388,-0.971967,0.006867,2025-04-04T03:30:34Z,0.057156,0.013088,0.017563,2025-04-04T03:30:34Z
28,253.965039,0.311155,7.258968,44.941478,281.375039,89.385696,2.000282,3,-93.173413,12.366113,2025-04-04T03:30:35Z,-0.238188,-0.964265,0.016584,2025-04-04T03:30:35Z,-0.031604,0.078491,0.063791,2025-04-04T03:30:35Z
29,253.954774,0.301094,7.258923,44.941477,281.364774,90.2612,2.000144,3,-93.173252,12.55166,2025-04-04T03:30:36Z,-0.232999,-0.973258,0.003809,2025-04-04T03:30:36Z,-0.036952,-0.003048,0.028072,2025-04-04T03:30:36Z
30,254.017104,0.304623,7.258964,44.941477,281.427104,90.2612,2.000074,3,-93.17309,12.691727,2025-04-04T03:30:37Z,-0.236412,-0.966831,1.5e-4,2025-04-04T03:30:37Z,-0.02092,0.055336,0.069733,2025-04-04T03:30:37Z
31,253.976838,0.29599,7.258854,44.941476,281.386838,90.2612,2.000037,3,-93.172927,12.788578,2025-04-04T03:30:38Z,-0.252436,-0.966975,-0.003014,2025-04-04T03:30:38Z,-0.191398,0.059577,0.016993,2025-04-04T03:30:38Z
32,254.165085,0.300515,7.258917,44.941475,281.575085,90.2612,2.017773,3,-93.172763,12.780749,2025-04-04T03:30:39Z,-0.253704,-0.966823,-0.002909,2025-04-04T03:30:39Z,-0.198687,0.048605,-0.007274,2025-04-04T03:30:39Z
33,254.129434,0.298735,7.258854,44.941476,281.53943400000003,90.2612,2.122869,3,-93.172601,12.714847,2025-04-04T03:30:40Z,-0.254538,-0.971372,-0.002521,2025-04-04T03:30:40Z,-0.217815,0.024419,-0.007351,2025-04-04T03:30:40Z
34,254.318533,0.302405,7.258926,44.941475,281.728533,90.2612,2.247937,3,-93.17244,12.604324,2025-04-04T03:30:41Z,-0.254716,-0.956711,0.001249,2025-04-04T03:30:41Z,-0.168366,0.132304,0.037306,2025-04-04T03:30:41Z
35,254.27506,0.298412,7.258826,44.941476,281.68506,90.2612,2.483343,3,-93.172283,12.457625,2025-04-04T03:30:42Z,-0.25382,-0.968875,2.59e-4,2025-04-04T03:30:42Z,-0.172542,0.021684,0.020831,2025-04-04T03:30:42Z
36,254.290766,0.299996,7.258872,44.941477,281.700766,90.274689,2.488392,3,-93.172124,12.465609,2025-04-04T03:30:43Z,-0.258401,-0.965782,0.007989,2025-04-04T03:30:43Z,-0.16685,0.050051,0.025732,2025-04-04T03:30:43Z
37,254.522241,0.301144,7.258901,44.941476,281.932241,90.274689,2.24883,3,-93.171965,12.431772,2025-04-04T03:30:44Z,-0.252286,-0.967698,4.38e-4,2025-04-04T03:30:44Z,-0.121986,0.027798,-0.018785,2025-04-04T03:30:44Z
38,254.731358,0.300969,7.258897,44.941478,282.141358,90.274689,2.127338,3,-93.171808,12.393049,2025-04-04T03:30:45Z,-0.247415,-0.96307,-0.005646,2025-04-04T03:30:45Z,-0.050089,0.072964,-0.044287,2025-04-04T03:30:45Z
39,254.758174,0.298194,7.258826,44.941478,282.168174,90.274689,2.065805,3,-93.171652,12.342176,2025-04-04T03:30:46Z,-0.240959,-0.971532,0.001273,2025-04-04T03:30:46Z,-0.001318,-0.009862,0.028248,2025-04-04T03:30:46Z
40,255.029241,0.302852,7.258934,44.941476,282.43924,90.274689,2.03366,3,-93.171494,12.409868,2025-04-04T03:30:47Z,-0.245617,-0.965364,0.005727,2025-04-04T03:30:47Z,-0.017891,0.044716,0.055959,2025-04-04T03:30:47Z
41,255.181442,0.305585,7.258966,44.941476,282.591441,90.274689,2.017397,3,-93.171338,12.36244,2025-04-04T03:30:48Z,-0.243817,-0.970623,0.003578,2025-04-04T03:30:48Z,0.007782,-0.009225,0.033687,2025-04-04T03:30:48Z
42,255.282756,0.305282,7.258963,44.941476,282.692756,90.274689,2.008955,3,-93.171181,12.383039,2025-04-04T03:30:49Z,-0.241934,-0.970108,-5.71e-4,2025-04-04T03:30:49Z,0.010542,-0.002221,0.004437,2025-04-04T03:30:49Z
43,255.41609,0.30814,7.258974,44.941476,282.82609,90.274689,2.004601,3,-93.171024,12.384906,2025-04-04T03:30:50Z,-0.241997,-0.969828,0.00476,2025-04-04T03:30:50Z,0.021114,-5.74e-4,0.033011,2025-04-04T03:30:50Z
44,255.579335,0.306956,7.258973,44.941475,282.989334,90.435814,2.002365,3,-93.170866,12.408329,2025-04-04T03:30:51Z,-0.237864,-0.965219,0.002542,2025-04-04T03:30:51Z,0.096091,0.03302,0.050101,2025-04-04T03:30:51Z
45,255.624807,0.297753,7.25882,44.941475,283.034807,90.205849,2.001214,3,-93.170706,12.473874,2025-04-04T03:30:52Z,-0.244061,-0.974395,-0.00168,2025-04-04T03:30:52Z,-0.015147,-0.04006,0.035652,2025-04-04T03:30:52Z
46,255.830196,0.306589,7.258972,44.941475,283.240196,90.205849,2.000618,3,-93.170545,12.623216,2025-04-04T03:30:53Z,-0.227948,-0.951721,-0.017039,2025-04-04T03:30:53Z,0.161423,0.161768,-0.030921,2025-04-04T03:30:53Z
47,255.858271,0.289807,7.258641,44.941475,283.268271,90.205849,2.000314,3,-93.170384,12.670918,2025-04-04T03:30:54Z,-0.246246,-0.986113,0.008139,2025-04-04T03:30:54Z,0.056529,-0.163996,0.06204,2025-04-04T03:30:54Z
48,256.083545,0.2933,7.258836,44.941474,283.493544,90.257622,2.000159,3,-93.17022,12.904127,2025-04-04T03:30:55Z,-0.24134,-0.963622,0.002457,2025-04-04T03:30:55Z,0.058208,0.054203,0.001525,2025-04-04T03:30:55Z
49,256.174189,0.298324,7.258899,44.941474,283.584189,90.257622,2.00008,3,-93.170058,12.874868,2025-04-04T03:30:56Z,-0.241632,-0.972829,0.010644,2025-04-04T03:30:56Z,0.065665,-0.039553,0.028398,2025-04-04T03:30:56Z
50,256.201409,0.301089,7.258927,44.941473,283.611409,90.257622,2.391032,3,-93.169895,12.940097,2025-04-04T03:30:57Z,-0.242307,-0.97207,0.006863,2025-04-04T03:30:57Z,0.020017,-0.032454,0.003698,2025-04-04T03:30:57Z
51,256.461501,0.308637,7.258974,44.941473,283.871501,90.257622,2.196455,3,-93.169733,12.886222,2025-04-04T03:30:58Z,-0.24201,-0.976413,0.007241,2025-04-04T03:30:58Z,-0.009659,-0.050273,0.035177,2025-04-04T03:30:58Z
52,256.688704,0.313007,7.258943,44.941474,284.098704,90.257622,2.098249,3,-93.169567,12.966991,2025-04-04T03:30:59Z,-0.235629,-0.955806,-0.014948,2025-04-04T03:30:59Z,0.084991,0.140849,-0.090746,2025-04-04T03:30:59Z
53,256.71058,0.29774,7.258836,44.941475,284.12058,90.867365,2.049012,3,-93.169401,13.01472,2025-04-04T03:31:00Z,-0.240987,-0.97585,-5.3e-4,2025-04-04T03:31:00Z,0.009237,-0.057282,-0.057497,2025-04-04T03:31:00Z
54,256.889006,0.307888,7.258975,44.941474,284.299006,91.213211,2.024441,3,-93.169235,13.088796,2025-04-04T03:31:01Z,-0.23961,-0.970678,0.001591,2025-04-04T03:31:01Z,0.021624,8.81e-4,-0.035351,2025-04-04T03:31:01Z
55,256.935233,0.31248,7.25895,44.941475,284.345233,91.513785,2.012301,3,-93.169073,12.966412,2025-04-04T03:31:02Z,-0.245935,-0.978184,0.006462,2025-04-04T03:31:02Z,-0.100417,-0.062919,0.010255,2025-04-04T03:31:02Z
56,257.204295,0.322646,7.25871,44.941476,284.614295,91.330246,2.006131,3,-93.168908,12.915385,2025-04-04T03:31:03Z,-0.23641,-0.982306,-0.010179,2025-04-04T03:31:03Z,-0.108262,-0.072059,-0.079052,2025-04-04T03:31:03Z
57,257.781902,0.332362,7.258189,44.941477,285.191902,90.316551,2.003064,3,-93.168745,12.797247,2025-04-04T03:31:04Z,-0.241024,-0.970704,0.004978,2025-04-04T03:31:04Z,-0.161029,0.028492,0.005898,2025-04-04T03:31:04Z
58,258.305028,0.331928,7.258199,44.941476,285.715028,90.316551,2.001528,3,-93.168581,12.735879,2025-04-04T03:31:05Z,-0.235606,-0.970168,0.001066,2025-04-04T03:31:05Z,-0.11555,0.043286,-0.046296,2025-04-04T03:31:05Z
59,258.788518,0.331252,7.258235,44.941475,286.198518,90.316551,2.000772,3,-93.168421,12.607056,2025-04-04T03:31:06Z,-0.236616,-0.970797,0.003538,2025-04-04T03:31:06Z,-0.104047,0.033424,-0.045784,2025-04-04T03:31:06Z
60,259.13115,0.330391,7.258272,44.941475,286.54115,90.316551,2.000394,3,-93.168263,12.418918,2025-04-04T03:31:07Z,-0.256538,-0.962553,-0.003226,2025-04-04T03:31:07Z,-0.286271,0.108592,-0.171776,2025-04-04T03:31:07Z
61,259.417631,0.335748,7.257947,44.941473,286.827631,90.316551,2.000203,3,-93.16811,12.161709,2025-04-04T03:31:08Z,-0.266462,-0.96103,-0.001299,2025-04-04T03:31:08Z,-0.330674,0.111695,-0.119598,2025-04-04T03:31:08Z
62,259.730511,0.357263,7.25808,44.941472,287.140511,90.316551,2.000106,3,-93.167964,11.600718,2025-04-04T03:31:09Z,-0.265143,-0.964878,-0.002528,2025-04-04T03:31:09Z,-0.306857,0.071045,-0.104397,2025-04-04T03:31:09Z
63,260.005134,0.374002,7.25776,44.941472,287.415133,90.316551,2.651941,3,-93.167824,11.113173,2025-04-04T03:31:10Z,-0.272497,-0.956052,-0.002544,2025-04-04T03:31:10Z,-0.337461,0.152643,-0.127378,2025-04-04T03:31:10Z
64,260.312842,0.375499,7.257755,44.94147,287.722842,90.316551,2.363137,3,-93.167687,10.668104,2025-04-04T03:31:11Z,-0.31729,-0.95244,-0.017326,2025-04-04T03:31:11Z,-0.731023,0.170769,-0.227973,2025-04-04T03:31:11Z
65,260.649528,0.368379,7.25802,44.941468,288.059528,90.260895,2.485973,3,-93.167556,10.105667,2025-04-04T03:31:12Z,-0.414501,-0.923871,-0.036106,2025-04-04T03:31:12Z,-1.6375,0.436049,-0.401617,2025-04-04T03:31:12Z
66,261.051109,0.307904,7.554625,44.941465,288.461109,90.260895,2.318109,3,-93.167455,8.079743,2025-04-04T03:31:13Z,-0.423096,-0.921608,-0.03851,2025-04-04T03:31:13Z,-1.637871,0.446006,-0.39955,2025-04-04T03:31:13Z
67,261.111028,0.28399,10.29162,44.941465,288.521028,90.260895,2.194823,3,-93.167377,6.100408,2025-04-04T03:31:14Z,-0.400733,-0.926802,-0.035568,2025-04-04T03:31:14Z,-1.27651,0.350529,-0.325099,2025-04-04T03:31:14Z
