seconds_elapsed,location_altitude,location_speedAccuracy,location_bearingAccuracy,location_latitude,location_altitudeAboveMeanSeaLevel,location_bearing,location_horizontalAccuracy,location_verticalAccuracy,location_longitude,location_speed,location_local_time,accelerometerUncalibrated_z,accelerometerUncalibrated_y,accelerometerUncalibrated_x,accelerometerUncalibrated_local_time,accelerometer_z,accelerometer_y,accelerometer_x,accelerometer_local_time
0,264.43638,-1,-1,44.941621,291.846379,-1,43.571505,3,-93.166826,-1,2025-04-04T03:10:08Z,-0.160499,-0.9662,-0.011279,2025-04-04T03:10:08Z,1.1111,-0.034733,0.156768,2025-04-04T03:10:08Z
1,253.640228,1.345,11.790502,44.941541,281.050228,274.921875,5.367445,8,-93.1671,9.21,2025-04-04T03:10:09Z,-0.186307,-0.977787,-0.003992,2025-04-04T03:10:09Z,0.947225,-0.18634,0.177643,2025-04-04T03:10:09Z
2,256.456299,1.01,5.751593,44.941536,283.866299,269.296875,3.535534,3,-93.167289,9.21,2025-04-04T03:10:11Z,-0.225459,-0.963833,-0.013626,2025-04-04T03:10:10Z,0.712836,-0.095525,0.064601,2025-04-04T03:10:10Z
3,255.107422,1.35,7.798193,44.941536,282.517422,269.648438,3.535534,3,-93.167411,9.37,2025-04-04T03:10:12Z,-0.233333,-0.981894,0.01883,2025-04-04T03:10:11Z,0.587382,-0.252912,0.235152,2025-04-04T03:10:11Z
4,253.775513,1.38,7.489098,44.941533,281.185513,269.296875,3.535534,3,-93.167537,9.37,2025-04-04T03:10:13Z,-0.234836,-0.964384,0.013868,2025-04-04T03:10:12Z,0.578736,-0.08364,0.183707,2025-04-04T03:10:12Z
5,253.448425,0.72,3.766921,44.941527,280.858425,268.242188,3.535534,3,-93.167701,12.35,2025-04-04T03:10:14Z,-0.247664,-0.971081,-0.015325,2025-04-04T03:10:13Z,0.38881,-0.130773,-0.044454,2025-04-04T03:10:13Z
6,253.218018,0.31,1.701819,44.941526,280.628017,270.069122,3.535534,3,-93.167845,12.35,2025-04-04T03:10:15Z,-0.263252,-0.954901,-0.030035,2025-04-04T03:10:14Z,0.226165,0.032155,-0.181372,2025-04-04T03:10:14Z
7,253.12146,0.13,0.748947,44.941523,280.53146,270.069122,3.535534,3,-93.167999,11.94,2025-04-04T03:10:16Z,-0.267376,-0.965943,-0.029675,2025-04-04T03:10:15Z,0.163682,-0.070052,-0.144663,2025-04-04T03:10:15Z
8,252.497192,0.26,1.404984,44.941524,279.907192,270.081268,3.535534,3,-93.168151,11.94,2025-04-04T03:10:17Z,-0.274502,-0.956144,-0.031043,2025-04-04T03:10:16Z,0.059276,0.022704,-0.127609,2025-04-04T03:10:16Z
9,252.184631,0.31,1.688011,44.941525,279.594631,270.081268,3.535534,3,-93.168304,12.02,2025-04-04T03:10:18Z,-0.285279,-0.955388,-0.02966,2025-04-04T03:10:17Z,-0.038424,0.049694,-0.109932,2025-04-04T03:10:17Z
10,251.953247,1.55,6.599803,44.941534,279.363247,270.081268,3.535534,3,-93.168453,11.69,2025-04-04T03:10:19Z,-0.290703,-0.956489,-0.02408,2025-04-04T03:10:18Z,-0.103964,0.034564,-0.057072,2025-04-04T03:10:18Z
11,251.979553,2.62,7.916918,44.941522,279.389553,270.081268,3.535534,3,-93.168598,11.69,2025-04-04T03:10:20Z,-0.277377,-0.960509,-0.026344,2025-04-04T03:10:19Z,-0.001748,3.19e-4,-0.056722,2025-04-04T03:10:19Z
12,251.81488,0.87,4.299894,44.941524,279.22488,270.081268,3.535534,3,-93.16876,11.69,2025-04-04T03:10:21Z,-0.270509,-0.956081,-0.025087,2025-04-04T03:10:20Z,0.047561,0.047821,-0.033441,2025-04-04T03:10:20Z
13,251.814891,0.87,7.258975,44.941522,279.224891,270.081268,4.748652,4.029364,-93.168908,11.69,2025-04-04T03:10:22Z,-0.276809,-0.971138,-0.023149,2025-04-04T03:10:21Z,-0.025306,-0.093142,-0.070585,2025-04-04T03:10:21Z
14,251.72572,0.85,7.258975,44.941518,279.13572,270.081268,4.748652,4.029364,-93.169077,12.58,2025-04-04T03:10:23Z,-0.27632,-0.970362,-0.01547,2025-04-04T03:10:22Z,-0.152243,-0.0501,-0.042678,2025-04-04T03:10:22Z
15,251.226636,1.01,7.258975,44.941526,278.636636,270.155579,4.748652,4.029364,-93.169241,12.62,2025-04-04T03:10:24Z,-0.269581,-0.965498,-0.032444,2025-04-04T03:10:23Z,-0.131411,0.009247,-0.144492,2025-04-04T03:10:23Z
16,251.312024,0.88,7.258975,44.941523,278.722024,270.155579,4.748652,4.029364,-93.1694,12.72,2025-04-04T03:10:25Z,-0.26683,-0.963165,-0.013718,2025-04-04T03:10:24Z,-0.139287,0.0427,-0.084596,2025-04-04T03:10:24Z
17,251.268995,1.63,10.383365,44.941517,278.678994,270.155579,4.748652,4.029364,-93.16956,12.72,2025-04-04T03:10:26Z,-0.272994,-0.963113,-0.007801,2025-04-04T03:10:25Z,-0.177301,0.035878,-0.068545,2025-04-04T03:10:25Z
18,251.607373,1.15,7.44866,44.941527,279.017373,270.101074,4.748652,4.029364,-93.169719,12.51,2025-04-04T03:10:27Z,-0.262004,-0.958398,-0.009779,2025-04-04T03:10:26Z,-0.056568,0.082941,-0.091265,2025-04-04T03:10:26Z
19,251.37843,0.91,7.258975,44.94153,278.78843,270.101074,4.748652,4.029364,-93.169886,12.51,2025-04-04T03:10:28Z,-0.260214,-0.968164,-9.35e-4,2025-04-04T03:10:27Z,-0.04842,-0.012845,-0.030876,2025-04-04T03:10:27Z
20,251.238539,1.29,8.084046,44.941521,278.648538,270.101074,4.748652,4.029364,-93.170055,12.93,2025-04-04T03:10:29Z,-0.263612,-0.968852,0.005878,2025-04-04T03:10:28Z,-0.091531,-0.016809,0.016426,2025-04-04T03:10:28Z
21,251.573499,0.8,7.258975,44.941533,278.983499,270.101074,4.748652,4.029364,-93.170217,12.86,2025-04-04T03:10:30Z,-0.261924,-0.957856,-0.003845,2025-04-04T03:10:29Z,-0.091234,0.094448,-0.006164,2025-04-04T03:10:29Z
22,251.284986,0.91,7.258975,44.941524,278.694986,270.101074,4.748652,4.029364,-93.170378,12.86,2025-04-04T03:10:31Z,-0.26542,-0.966574,-0.010021,2025-04-04T03:10:30Z,-0.123468,0.011649,-0.080578,2025-04-04T03:10:30Z
23,250.942518,0.95,7.258975,44.94152,278.352518,270.101074,4.748652,4.029364,-93.170542,12.86,2025-04-04T03:10:32Z,-0.267777,-0.958226,3.19e-4,2025-04-04T03:10:31Z,-0.104114,0.072585,-0.043956,2025-04-04T03:10:31Z
24,250.98921,1.2,7.614265,44.941529,278.399209,270,4.748652,4.029364,-93.170698,12.77,2025-04-04T03:10:33Z,-0.258144,-0.964074,-0.011966,2025-04-04T03:10:32Z,-0.06104,0.043192,-0.071264,2025-04-04T03:10:32Z
25,250.286512,0.91,7.258975,44.941532,277.696512,270,4.748652,4.029364,-93.170863,12.85,2025-04-04T03:10:34Z,-0.249006,-0.966715,-0.020501,2025-04-04T03:10:33Z,-0.002648,0.014874,-0.024586,2025-04-04T03:10:33Z
26,250.567763,0.69,7.258975,44.941531,277.977763,270.052673,4.748652,4.029364,-93.171033,13.23,2025-04-04T03:10:35Z,-0.253325,-0.961857,-0.016653,2025-04-04T03:10:34Z,0.031831,0.042783,-0.014964,2025-04-04T03:10:34Z
27,250.522841,1.59,9.738116,44.941533,277.932841,270.052673,4.748652,4.029364,-93.171199,13.23,2025-04-04T03:10:36Z,-0.258635,-0.970116,-0.011712,2025-04-04T03:10:35Z,-0.017348,-0.035338,-0.036661,2025-04-04T03:10:35Z
28,250.509291,1.02,7.258975,44.941531,277.919291,270.052673,4.748652,4.029364,-93.171374,13.23,2025-04-04T03:10:37Z,-0.265708,-0.962318,-0.014235,2025-04-04T03:10:36Z,-0.092841,0.041832,-0.059208,2025-04-04T03:10:36Z
29,250.405409,0.35,7.258975,44.941534,277.815409,270.052673,4.748652,4.029364,-93.171542,13.28,2025-04-04T03:10:38Z,-0.26093,-0.961586,-0.016166,2025-04-04T03:10:37Z,-0.0505,0.04804,-0.0565,2025-04-04T03:10:37Z
30,250.261,0.308016,7.258975,44.941533,277.671,270.052673,4.748652,4.029364,-93.17171,13.4,2025-04-04T03:10:39Z,-0.263899,-0.967037,-0.018241,2025-04-04T03:10:38Z,-0.075123,-0.004006,-0.069429,2025-04-04T03:10:38Z
31,250.095107,0.308016,7.258975,44.941534,277.505107,270.052673,4.748652,4.029364,-93.171881,13.47,2025-04-04T03:10:40Z,-0.260386,-0.958611,-0.013116,2025-04-04T03:10:39Z,-0.038347,0.076385,-0.021868,2025-04-04T03:10:39Z
32,249.70497,0.308017,7.258975,44.941537,277.11497,270.052673,4.748652,4.029364,-93.172051,13.48,2025-04-04T03:10:41Z,-0.252873,-0.96417,-0.017332,2025-04-04T03:10:40Z,0.039964,0.020748,-0.055836,2025-04-04T03:10:40Z
33,253.68637,1.270379,7.642261,44.941526,281.096369,270.068512,2,3,-93.172239,13.466954,2025-04-04T03:10:42Z,-0.257896,-0.970035,-0.007277,2025-04-04T03:10:41Z,0.014073,-0.04004,-0.010664999999999999,2025-04-04T03:10:41Z
34,253.666182,1.270374,7.48245,44.941527,281.076182,270.068512,2.043977,3,-93.172414,13.754882,2025-04-04T03:10:43Z,-0.256185,-0.960634,-0.01026,2025-04-04T03:10:42Z,-0.001745,0.055866,-0.003534,2025-04-04T03:10:42Z
35,253.589572,1.156868,7.258965,44.941528,280.999572,270.068512,2.021988,3,-93.172588,13.746526,2025-04-04T03:10:44Z,-0.254624,-0.963681,-0.017273,2025-04-04T03:10:43Z,0.035136,0.023556,-0.041639,2025-04-04T03:10:43Z
36,253.459236,1.268762,7.399768,44.941526,280.869236,270.068512,2.010421,3,-93.172769,13.891205,2025-04-04T03:10:45Z,-0.256127,-0.968629,-0.005729,2025-04-04T03:10:44Z,0.005372,-0.025101,0.023454,2025-04-04T03:10:44Z
37,253.357926,1.26995,7.337255,44.941528,280.767926,270.068512,2.004942,3,-93.172949,14.023021,2025-04-04T03:10:46Z,-0.272587,-0.957795,-0.006192,2025-04-04T03:10:45Z,-0.104273,0.076332,0.016323,2025-04-04T03:10:45Z
38,253.12688,1.269629,7.325674,44.941529,280.53688,270.068512,2.002341,3,-93.173127,14.039845,2025-04-04T03:10:47Z,-0.272836,-0.962462,-0.005591,2025-04-04T03:10:46Z,-0.109837,0.031626,-0.036605,2025-04-04T03:10:46Z
39,253.081325,1.269675,7.341797,44.941529,280.491325,270.068512,2.001118,3,-93.173304,14.010746,2025-04-04T03:10:48Z,-0.286657,-0.964404,-0.013772,2025-04-04T03:10:47Z,-0.280481,0.013239,-0.06062,2025-04-04T03:10:47Z
40,252.852495,1.267606,7.381503,44.94153,280.262494,270.068512,2.000529,3,-93.173481,13.912174,2025-04-04T03:10:49Z,-0.273531,-0.934775,-0.038091,2025-04-04T03:10:48Z,-0.142983,0.292058,-0.179677,2025-04-04T03:10:48Z
41,252.520316,1.2690109999999999,7.491208,44.94153,279.930316,270.032296,2.000257,3,-93.173651,13.720902,2025-04-04T03:10:50Z,-0.281793,-0.965885,-0.031359,2025-04-04T03:10:49Z,-0.120596,-0.024338,-0.245008,2025-04-04T03:10:49Z
42,252.362781,1.264532,7.542014,44.941532,279.77278,270.137981,2.000124,3,-93.173822,13.581687,2025-04-04T03:10:51Z,-0.268336,-0.960096,-0.063916,2025-04-04T03:10:50Z,-0.00766,0.03457,-0.565465,2025-04-04T03:10:50Z
43,252.18728,1.271291,7.517889,44.941541,279.59728,271.524889,2.00006,3,-93.173998,13.698109,2025-04-04T03:10:52Z,-0.257512,-0.958888,-0.12768,2025-04-04T03:10:51Z,0.11871,0.03808,-1.114039,2025-04-04T03:10:51Z
44,252.104059,1.445472,9.237161,44.941519,279.514058,264.312366,2.00003,3,-93.174149,12.67693,2025-04-04T03:10:53Z,-0.263365,-0.969355,-0.105904,2025-04-04T03:10:52Z,0.04367,-0.056325,-0.94822,2025-04-04T03:10:52Z
45,251.896053,0.680594,7.258428,44.941586,279.306053,281.477197,2.671653,3,-93.174316,12.781375,2025-04-04T03:10:54Z,-0.253922,-0.944296,-0.038156,2025-04-04T03:10:53Z,0.10687,0.189039,-0.099037,2025-04-04T03:10:53Z
46,251.669958,0.73288,7.257624,44.941611,279.079958,281.079943,2.32996,3,-93.174482,12.83662,2025-04-04T03:10:55Z,-0.268959,-0.970915,-0.045399,2025-04-04T03:10:54Z,-0.109608,-0.071986,0.268224,2025-04-04T03:10:54Z
47,251.324987,0.670133,7.257607,44.941636,278.734987,281.011198,2.163746,3,-93.17465,13.238813,2025-04-04T03:10:56Z,-0.281654,-0.963585,-0.010136,2025-04-04T03:10:55Z,-0.240137,0.001076,0.596935,2025-04-04T03:10:55Z
48,251.029458,0.670972,7.258115,44.941654,278.439458,271.209106,2.081436,3,-93.174815,13.249093,2025-04-04T03:10:57Z,-0.285936,-0.95522,0.02021,2025-04-04T03:10:56Z,-0.275401,0.088816,0.793341,2025-04-04T03:10:56Z
49,250.718863,0.671234,7.257112,44.941659,278.128863,270,2.04064,3,-93.17498,13.195224,2025-04-04T03:10:58Z,-0.28482,-0.965503,0.020342,2025-04-04T03:10:57Z,-0.196714,-0.029499,0.768657,2025-04-04T03:10:57Z
50,250.454286,0.687206,7.256893,44.941658,277.864286,270,2.020302,3,-93.175144,13.133229,2025-04-04T03:10:58Z,-0.258447,-0.964694,-0.03819,2025-04-04T03:10:58Z,0.017506,-0.009073,0.219042,2025-04-04T03:10:58Z
51,250.596902,0.69354,7.258648,44.941657,278.006902,270,2.010061,3,-93.175311,13.105917,2025-04-04T03:10:59Z,-0.264502,-0.965972,-0.049401,2025-04-04T03:10:59Z,-0.04991,-0.021886,0.119626,2025-04-04T03:10:59Z
52,250.664784,0.672778,7.258932,44.941656,278.074784,270,2.00498,3,-93.175481,13.262599,2025-04-04T03:11:00Z,-0.257694,-0.957934,-0.048427,2025-04-04T03:11:00Z,0.034046,0.055215,0.100281,2025-04-04T03:11:00Z
53,250.20627,0.664741,7.257367,44.941657,277.61627,270,2.002459,3,-93.175647,13.155422,2025-04-04T03:11:01Z,-0.255882,-0.961843,-0.059728,2025-04-04T03:11:01Z,0.061602,0.011908,-0.042541,2025-04-04T03:11:01Z
54,250.24806,0.708554,7.258129,44.941654,277.65806,270,2.407735,3,-93.175815,13.225767,2025-04-04T03:11:02Z,-0.263867,-0.960956,-0.069468,2025-04-04T03:11:02Z,0.01342,0.018048,-0.104291,2025-04-04T03:11:02Z
55,249.821319,0.669705,7.256846,44.941652,277.231319,270,2.63914,3,-93.17598,13.179712,2025-04-04T03:11:03Z,-0.274901,-0.955125,-0.06785,2025-04-04T03:11:03Z,-0.087288,0.061893,-0.093777,2025-04-04T03:11:03Z
56,249.44119,0.696063,7.256019,44.941656,276.85119,270,2.844214,3,-93.176147,13.124831,2025-04-04T03:11:04Z,-0.325458,-0.938642,-0.076579,2025-04-04T03:11:04Z,-0.571463,0.234327,-0.148629,2025-04-04T03:11:04Z
57,249.17406,0.686903,7.255759,44.941652,276.584059,270,2.729573,3,-93.176299,12.316537,2025-04-04T03:11:05Z,-0.357379,-0.936984,-0.091147,2025-04-04T03:11:05Z,-0.868014,0.231133,-0.208708,2025-04-04T03:11:05Z
58,248.820482,0.686748,7.256608,44.941653,276.230482,269.798828,2.387619,3,-93.176441,11.466185,2025-04-04T03:11:06Z,-0.358012,-0.945907,-0.120865,2025-04-04T03:11:06Z,-0.964443,0.157081,-0.343575,2025-04-04T03:11:06Z
59,248.301797,0.705778,7.247294,44.941655,275.711797,269.798828,2.363755,3,-93.176567,10.314219,2025-04-04T03:11:07Z,-0.356819,-0.921705,-0.122021,2025-04-04T03:11:07Z,-0.859215,0.362528,-0.288269,2025-04-04T03:11:07Z
60,248.01068,0.70721,7.239891,44.941657,275.42068,269.798828,2.209952,3,-93.176673,8.937647,2025-04-04T03:11:08Z,-0.373672,-0.931432,-0.136917,2025-04-04T03:11:08Z,-0.971378,0.244777,-0.36704,2025-04-04T03:11:08Z
61,248.12979,0.699156,7.248759,44.941656,275.53979,269.798828,2.125941,3,-93.176771,7.889947,2025-04-04T03:11:09Z,-0.350588,-0.935911,-0.135061,2025-04-04T03:11:09Z,-0.714382,0.188553,-0.307201,2025-04-04T03:11:09Z
62,248.639443,0.859838,9.374619,44.94166,276.049443,269.798828,2.25736,3,-93.176867,7.435564,2025-04-04T03:11:10Z,-0.383084,-0.921086,-0.125064,2025-04-04T03:11:10Z,-0.975603,0.322129,-0.259101,2025-04-04T03:11:10Z
63,247.366635,0.814954,11.739105,44.941661,274.776635,269.798828,2.257762,3,-93.176914,5.36162,2025-04-04T03:11:11Z,-0.393553,-0.925299,-0.131566,2025-04-04T03:11:11Z,-1.042838,0.267474,-0.319202,2025-04-04T03:11:11Z
64,247.950621,0.691211,13.406833,44.941661,275.360621,269.798828,2.219265,3,-93.176962,4.171833,2025-04-04T03:11:12Z,-0.396487,-0.924784,-0.128804,2025-04-04T03:11:12Z,-1.033262,0.26433,-0.308131,2025-04-04T03:11:12Z
65,248.529952,0.720871,18.454693,44.941661,275.939952,269.798828,2.182721,3,-93.176997,2.984815,2025-04-04T03:11:13Z,-0.355012,-0.928631,-0.116961,2025-04-04T03:11:13Z,-0.574008,0.213747,-0.222595,2025-04-04T03:11:13Z
66,248.274735,0.685551,33.413419,44.941661,275.684735,269.798828,2.247541,3,-93.17701,1.659451,2025-04-04T03:11:14Z,-0.324784,-0.942329,-0.099907,2025-04-04T03:11:14Z,-0.2432,0.073895,-0.110621,2025-04-04T03:11:14Z
67,NA,NA,NA,NA,NA,NA,NA,NA,NA,NA,NA,-0.313894,-0.946769,-0.092667,2025-04-04T03:11:15Z,-0.105706,0.0255,-0.099259,2025-04-04T03:11:15Z
