seconds_elapsed,location_altitude,location_speedAccuracy,location_bearingAccuracy,location_latitude,location_altitudeAboveMeanSeaLevel,location_bearing,location_horizontalAccuracy,location_verticalAccuracy,location_longitude,location_speed,location_local_time,accelerometerUncalibrated_z,accelerometerUncalibrated_y,accelerometerUncalibrated_x,accelerometerUncalibrated_local_time,accelerometer_z,accelerometer_y,accelerometer_x,accelerometer_local_time
0.000000,263.332000,-1.000000,-1.000000,44.941348,290.742000,-1.000000,161.344976,3.000000,-93.168611,-1.000000,2025-03-20T19:10:07.597-05:00,-0.340031,-0.948385,0.167670,2025-03-20T19:10:07.585-05:00,-0.821136,0.177816,1.459468,2025-03-20T19:10:07.600-05:00
1.000000,256.393188,1.530000,18.695271,44.941389,283.803188,228.867188,3.535534,3.000000,-93.169618,6.120000,2025-03-20T19:10:09.000-05:00,-0.290412,-0.938555,0.141526,2025-03-20T19:10:08.580-05:00,-0.469537,0.288382,1.018234,2025-03-20T19:10:08.575-05:00
2.000000,256.217407,1.040000,11.702608,44.941318,283.627407,182.460938,3.535534,3.000000,-93.169585,5.780000,2025-03-20T19:10:10.000-05:00,-0.233004,-0.962998,0.055469,2025-03-20T19:10:09.575-05:00,-0.007706,0.095912,0.364728,2025-03-20T19:10:09.580-05:00
3.000000,255.879700,0.960000,8.244377,44.941259,283.289700,180.705292,3.535534,3.000000,-93.169589,5.780000,2025-03-20T19:10:11.000-05:00,-0.206462,-0.998426,0.039017,2025-03-20T19:10:10.580-05:00,0.365256,-0.287299,0.055600,2025-03-20T19:10:10.575-05:00
4.000000,256.081970,0.070000,0.629296,44.941187,283.491970,182.630676,3.535534,3.000000,-93.169580,7.350000,2025-03-20T19:10:12.000-05:00,-0.179215,-0.987797,0.060994,2025-03-20T19:10:11.574-05:00,0.515356,-0.173332,0.042534,2025-03-20T19:10:11.579-05:00
5.000000,256.003784,0.080000,0.713401,44.941116,283.413784,179.642822,3.535534,3.000000,-93.169576,8.090000,2025-03-20T19:10:13.000-05:00,-0.214444,-0.977539,0.049483,2025-03-20T19:10:12.579-05:00,0.130363,-0.049559,-0.127487,2025-03-20T19:10:12.574-05:00
6.000000,255.838013,0.340000,2.643458,44.941042,283.248013,179.642822,3.535534,3.000000,-93.169575,8.090000,2025-03-20T19:10:13.999-05:00,-0.245439,-0.969876,0.034784,2025-03-20T19:10:13.574-05:00,-0.162289,0.008928,-0.292031,2025-03-20T19:10:13.579-05:00
7.000000,256.249023,0.210000,1.659308,44.940966,283.659023,179.642822,3.535534,3.000000,-93.169573,8.310000,2025-03-20T19:10:14.999-05:00,-0.244677,-0.964648,0.045911,2025-03-20T19:10:14.579-05:00,-0.129245,0.068958,-0.246835,2025-03-20T19:10:14.574-05:00
8.000000,256.400391,0.100000,0.751832,44.940888,283.810390,179.642822,3.535534,3.000000,-93.169573,8.500000,2025-03-20T19:10:15.999-05:00,-0.246333,-0.967797,0.042772,2025-03-20T19:10:15.574-05:00,-0.190296,0.025128,-0.277802,2025-03-20T19:10:15.579-05:00
9.000000,256.243408,1.480000,8.416942,44.940813,283.653408,180.187592,3.535534,3.000000,-93.169579,8.340000,2025-03-20T19:10:16.999-05:00,-0.255108,-0.969648,0.045405,2025-03-20T19:10:16.578-05:00,-0.235153,0.010636,-0.245517,2025-03-20T19:10:16.573-05:00
10.000000,255.752441,0.810000,6.679578,44.940741,283.162441,180.187592,3.535534,3.000000,-93.169585,8.340000,2025-03-20T19:10:17.999-05:00,-0.250693,-0.955743,0.032436,2025-03-20T19:10:17.573-05:00,-0.225245,0.133766,-0.378257,2025-03-20T19:10:17.578-05:00
11.000000,256.837280,0.400000,2.839826,44.940657,284.247280,180.187592,3.535534,3.000000,-93.169589,8.340000,2025-03-20T19:10:18.999-05:00,-0.270336,-0.965557,0.039341,2025-03-20T19:10:18.578-05:00,-0.375660,0.060233,-0.336555,2025-03-20T19:10:18.573-05:00
12.000000,257.566528,0.140000,1.081821,44.940571,284.976528,180.187592,3.535534,3.000000,-93.169586,8.640000,2025-03-20T19:10:19.999-05:00,-0.289586,-0.952649,0.023928,2025-03-20T19:10:19.573-05:00,-0.601451,0.189867,-0.439539,2025-03-20T19:10:19.578-05:00
13.000000,257.566534,0.308016,7.258975,44.940494,284.976534,180.187592,4.748652,4.029364,-93.169586,8.640000,2025-03-20T19:10:20.999-05:00,-0.317456,-0.950812,0.029919,2025-03-20T19:10:20.577-05:00,-0.812283,0.171380,-0.450410,2025-03-20T19:10:20.573-05:00
14.000000,257.228277,1.110000,10.707334,44.940417,284.638277,180.485275,4.748652,4.029364,-93.169589,8.400000,2025-03-20T19:10:21.999-05:00,-0.358178,-0.934122,0.008287,2025-03-20T19:10:21.572-05:00,-1.135984,0.331591,-0.537543,2025-03-20T19:10:21.577-05:00
15.000000,257.454290,0.590000,7.258975,44.940349,284.864290,180.485275,4.748652,4.029364,-93.169585,8.400000,2025-03-20T19:10:22.999-05:00,-0.357569,-0.939632,0.007196,2025-03-20T19:10:22.577-05:00,-1.066351,0.262623,-0.541308,2025-03-20T19:10:22.572-05:00
16.000000,257.566777,1.240000,13.782620,44.940296,284.976777,180.485275,4.748652,4.029364,-93.169582,7.290000,2025-03-20T19:10:23.999-05:00,-0.367658,-0.931172,0.007651,2025-03-20T19:10:23.572-05:00,-1.065730,0.325220,-0.529174,2025-03-20T19:10:23.577-05:00
17.000000,257.930851,0.660000,8.762762,44.940253,285.340850,180.485275,4.748652,4.029364,-93.169596,6.600000,2025-03-20T19:10:24.999-05:00,-0.414494,-0.921360,0.003156,2025-03-20T19:10:24.577-05:00,-1.446409,0.393621,-0.532451,2025-03-20T19:10:24.572-05:00
18.000000,258.072145,0.308016,7.258975,44.940232,285.482145,180.485275,4.748652,4.029364,-93.169593,4.050000,2025-03-20T19:10:25.999-05:00,-0.401134,-0.927126,-0.005761,2025-03-20T19:10:25.571-05:00,-1.215058,0.319432,-0.496748,2025-03-20T19:10:25.576-05:00
19.000000,258.282594,0.308016,7.258975,44.940207,285.692594,180.485275,4.748652,4.029364,-93.169594,4.050000,2025-03-20T19:10:26.999-05:00,-0.342134,-0.942617,0.010372,2025-03-20T19:10:26.576-05:00,-0.563595,0.149435,-0.285524,2025-03-20T19:10:26.571-05:00
20.000000,258.875245,1.890000,49.242382,44.940186,286.285245,180.485275,4.748652,4.029364,-93.169594,3.110000,2025-03-20T19:10:27.999-05:00,-0.296181,-0.954225,0.017187,2025-03-20T19:10:27.571-05:00,-0.140546,0.046492,-0.178411,2025-03-20T19:10:27.576-05:00
21.000000,258.534913,1.000000,47.836196,44.940198,285.944912,180.485275,4.748652,4.029364,-93.169583,2.220000,2025-03-20T19:10:28.999-05:00,-0.276523,-0.959870,0.020669,2025-03-20T19:10:28.576-05:00,0.031991,-0.004688,-0.113910,2025-03-20T19:10:28.571-05:00
22.000000,258.299683,1.028591,180.000000,44.940213,285.709683,180.485275,4.748652,4.029364,-93.169580,0.300000,2025-03-20T19:10:29.999-05:00,-0.229222,-0.972918,0.033969,2025-03-20T19:10:29.571-05:00,0.498307,-0.132329,0.030192,2025-03-20T19:10:29.576-05:00
23.000000,257.656982,1.095673,180.000000,44.940213,285.066982,180.485275,4.748652,4.029364,-93.169588,0.000000,2025-03-20T19:10:30.999-05:00,-0.176981,-0.986415,0.048000,2025-03-20T19:10:30.575-05:00,0.949410,-0.246145,0.162179,2025-03-20T19:10:30.580-05:00
24.000000,257.723877,1.095673,180.000000,44.940210,285.133877,180.485275,4.748652,4.029364,-93.169581,0.200000,2025-03-20T19:10:31.999-05:00,-0.024063,-1.022083,0.088514,2025-03-20T19:10:31.580-05:00,2.300170,-0.553469,0.570914,2025-03-20T19:10:31.575-05:00
25.000000,257.726624,1.028591,180.000000,44.940203,285.136623,180.485275,4.748652,4.029364,-93.169597,0.200000,2025-03-20T19:10:32.999-05:00,-0.106093,-1.017603,0.059420,2025-03-20T19:10:32.575-05:00,1.411454,-0.496015,0.322655,2025-03-20T19:10:32.580-05:00
26.000000,257.543336,0.308016,7.258975,44.940138,284.953336,180.485275,4.748652,4.029364,-93.169598,4.060000,2025-03-20T19:10:33.999-05:00,-0.118933,-0.987867,0.059163,2025-03-20T19:10:33.580-05:00,1.134692,-0.155012,0.285204,2025-03-20T19:10:33.575-05:00
27.000000,257.484376,0.910000,27.068521,44.940124,284.894376,180.485275,4.748652,4.029364,-93.169598,4.060000,2025-03-20T19:10:34.999-05:00,-0.160363,-0.969224,0.046791,2025-03-20T19:10:34.575-05:00,0.901263,-0.001089,0.230835,2025-03-20T19:10:34.580-05:00
28.000000,256.866151,0.790000,15.766624,44.940067,284.276151,180.485275,4.748652,4.029364,-93.169599,4.060000,2025-03-20T19:10:35.999-05:00,-0.195427,-0.969555,0.038784,2025-03-20T19:10:35.579-05:00,0.726814,-0.093228,0.148320,2025-03-20T19:10:35.574-05:00
29.000000,257.679935,0.308016,7.258975,44.939984,285.089935,180.742172,4.748652,4.029364,-93.169600,6.850000,2025-03-20T19:10:36.999-05:00,-0.198201,-1.015307,0.018384,2025-03-20T19:10:36.574-05:00,0.457220,-0.458498,0.036966,2025-03-20T19:10:36.579-05:00
30.000000,258.151494,0.308016,7.258975,44.939911,285.561494,180.742172,4.748652,4.029364,-93.169602,7.700000,2025-03-20T19:10:37.999-05:00,-0.184195,-0.971707,0.016569,2025-03-20T19:10:37.579-05:00,0.418728,0.030714,0.031445,2025-03-20T19:10:37.574-05:00
31.000000,258.247930,0.308016,7.258975,44.939833,285.657930,180.000000,4.748652,4.029364,-93.169603,8.310000,2025-03-20T19:10:38.999-05:00,-0.201981,-0.979846,-0.007886,2025-03-20T19:10:38.574-05:00,0.183222,-0.048009,-0.140541,2025-03-20T19:10:38.579-05:00
32.000000,258.243658,0.710000,7.258975,44.939757,285.653658,180.000000,4.748652,4.029364,-93.169603,8.310000,2025-03-20T19:10:39.999-05:00,-0.223184,-0.977332,-0.008037,2025-03-20T19:10:39.578-05:00,-0.090794,0.000352,-0.151027,2025-03-20T19:10:39.574-05:00
33.000000,258.888129,1.265886,11.550655,44.939664,286.298128,180.000000,2.000000,3.000000,-93.169603,8.880238,2025-03-20T19:10:40.999-05:00,-0.219475,-0.976058,0.000874,2025-03-20T19:10:40.573-05:00,-0.032251,0.002470,-0.061166,2025-03-20T19:10:40.578-05:00
34.000000,258.866717,1.270911,11.433087,44.939581,286.276717,180.000000,2.000000,3.000000,-93.169603,9.007009,2025-03-20T19:10:41.999-05:00,-0.236336,-0.968882,0.002789,2025-03-20T19:10:41.578-05:00,-0.230568,0.074415,-0.077471,2025-03-20T19:10:41.573-05:00
35.000000,259.192426,1.285163,12.276668,44.939504,286.602426,180.000000,2.190448,3.000000,-93.169603,8.481222,2025-03-20T19:10:42.999-05:00,-0.239450,-0.965434,0.004548,2025-03-20T19:10:42.573-05:00,-0.246141,0.112293,-0.058634,2025-03-20T19:10:42.578-05:00
36.000000,258.894941,0.672417,7.258922,44.939397,286.304941,179.512619,2.111317,3.000000,-93.169601,9.514561,2025-03-20T19:10:43.999-05:00,-0.244251,-0.965815,-0.003444,2025-03-20T19:10:43.578-05:00,-0.329197,0.117329,-0.128643,2025-03-20T19:10:43.573-05:00
37.000000,259.318747,0.673351,7.256671,44.939310,286.728747,179.512619,2.061280,3.000000,-93.169600,9.604194,2025-03-20T19:10:44.999-05:00,-0.253840,-0.973646,0.004407,2025-03-20T19:10:44.572-05:00,-0.371689,0.035675,-0.118312,2025-03-20T19:10:44.577-05:00
38.000000,259.592384,0.667553,7.257395,44.939224,287.002383,179.512619,2.166056,3.000000,-93.169599,9.505876,2025-03-20T19:10:45.999-05:00,-0.246834,-0.965955,0.018656,2025-03-20T19:10:45.577-05:00,-0.265065,0.080658,0.027312,2025-03-20T19:10:45.572-05:00
39.000000,260.617116,0.688106,7.235223,44.939134,288.027115,179.512619,2.095469,3.000000,-93.169598,9.710670,2025-03-20T19:10:46.999-05:00,-0.257058,-0.960857,0.000377,2025-03-20T19:10:46.572-05:00,-0.344131,0.143908,-0.116312,2025-03-20T19:10:46.577-05:00
40.000000,259.877182,0.684269,7.258468,44.939056,287.287181,180.000000,2.247511,3.000000,-93.169597,9.130856,2025-03-20T19:10:47.999-05:00,-0.281276,-0.961931,-0.007804,2025-03-20T19:10:47.577-05:00,-0.534694,0.120260,-0.150830,2025-03-20T19:10:47.572-05:00
41.000000,259.445542,0.688034,7.249902,44.938978,286.855542,180.000000,2.147352,3.000000,-93.169597,8.723123,2025-03-20T19:10:48.999-05:00,-0.281008,-0.945015,0.004118,2025-03-20T19:10:48.572-05:00,-0.478300,0.219132,-0.094733,2025-03-20T19:10:48.577-05:00
42.000000,259.793920,0.676040,7.258867,44.938897,287.203920,180.236633,2.104952,3.000000,-93.169598,8.806124,2025-03-20T19:10:49.999-05:00,-0.294220,-0.959572,0.018984,2025-03-20T19:10:49.576-05:00,-0.509471,0.147513,-0.077518,2025-03-20T19:10:49.571-05:00
43.000000,259.736372,0.679367,7.258717,44.938822,287.146372,180.236633,2.063462,3.000000,-93.169598,8.506659,2025-03-20T19:10:50.999-05:00,-0.313247,-0.952206,-0.006168,2025-03-20T19:10:50.571-05:00,-0.763285,0.195954,-0.249563,2025-03-20T19:10:50.576-05:00
44.000000,259.610788,0.689351,7.256407,44.938756,287.020788,180.236633,2.207464,3.000000,-93.169598,7.784438,2025-03-20T19:10:51.999-05:00,-0.350068,-0.941077,-0.017782,2025-03-20T19:10:51.576-05:00,-1.071961,0.282462,-0.249337,2025-03-20T19:10:51.571-05:00
45.000000,259.581685,0.685743,7.869023,44.938693,286.991684,180.236633,2.382794,3.000000,-93.169599,7.040687,2025-03-20T19:10:52.999-05:00,-0.304369,-0.951956,-0.007024,2025-03-20T19:10:52.571-05:00,-0.580574,0.175948,-0.155245,2025-03-20T19:10:52.576-05:00
46.000000,259.428896,0.682946,8.703559,44.938639,286.838896,180.236633,2.394278,3.000000,-93.169599,6.296555,2025-03-20T19:10:53.999-05:00,-0.223543,-0.972967,0.009329,2025-03-20T19:10:53.576-05:00,0.178772,-0.032245,0.043867,2025-03-20T19:10:53.571-05:00
47.000000,259.459069,0.689876,9.245933,44.938585,286.869069,180.236633,2.783411,3.000000,-93.169599,5.957554,2025-03-20T19:10:54.999-05:00,-0.175826,-0.988934,0.004864,2025-03-20T19:10:54.580-05:00,0.634858,-0.174713,0.097236,2025-03-20T19:10:54.575-05:00
48.000000,259.498179,0.677030,8.082128,44.938520,286.908179,180.236633,2.643010,3.000000,-93.169600,6.750111,2025-03-20T19:10:55.999-05:00,-0.256875,-0.963855,-0.030082,2025-03-20T19:10:55.575-05:00,-0.092584,0.052340,-0.244572,2025-03-20T19:10:55.580-05:00
49.000000,259.740924,0.670712,7.595779,44.938450,287.150924,180.236633,2.628862,3.000000,-93.169600,7.137703,2025-03-20T19:10:56.999-05:00,-0.256161,-0.964018,-0.115233,2025-03-20T19:10:56.580-05:00,-0.023220,0.031203,-1.100258,2025-03-20T19:10:56.575-05:00
50.000000,259.985534,0.672484,7.810844,44.938387,287.395534,180.545898,2.739308,3.000000,-93.169600,6.979691,2025-03-20T19:10:57.999-05:00,-0.245427,-0.979429,-0.242549,2025-03-20T19:10:57.575-05:00,-0.049710,-0.085441,-2.464621,2025-03-20T19:10:57.580-05:00
51.000000,260.190298,0.674019,8.058159,44.938333,287.600298,180.545898,2.582552,3.000000,-93.169606,6.779574,2025-03-20T19:10:58.999-05:00,-0.269987,-0.991889,-0.179169,2025-03-20T19:10:58.580-05:00,-0.340246,-0.196083,-1.928810,2025-03-20T19:10:58.575-05:00
52.000000,260.303714,0.659335,9.244635,44.938305,287.713714,223.350339,2.480745,3.000000,-93.169625,5.779892,2025-03-20T19:10:59.999-05:00,-0.208664,-0.957541,-0.134330,2025-03-20T19:10:59.574-05:00,0.143949,0.153715,-1.713398,2025-03-20T19:10:59.579-05:00
53.000000,260.258654,0.672840,9.242795,44.938315,287.668654,260.017975,2.412067,3.000000,-93.169749,5.897602,2025-03-20T19:11:00.999-05:00,-0.216536,-0.966648,-0.079448,2025-03-20T19:11:00.579-05:00,0.279241,0.028290,-1.019911,2025-03-20T19:11:00.574-05:00
54.000000,260.027770,0.669047,9.088992,44.938319,287.437770,267.568420,4.500108,3.000000,-93.169824,5.955678,2025-03-20T19:11:01.999-05:00,-0.249151,-0.955437,-0.007868,2025-03-20T19:11:01.574-05:00,-0.059222,0.158819,-0.092979,2025-03-20T19:11:01.579-05:00
55.000000,260.011494,0.660658,8.507210,44.938319,287.421494,269.100006,4.250477,3.000000,-93.169907,6.290390,2025-03-20T19:11:02.999-05:00,-0.236761,-0.988101,-0.033212,2025-03-20T19:11:02.579-05:00,-0.202285,-0.125488,-0.244576,2025-03-20T19:11:02.574-05:00
56.000000,259.837721,0.652677,8.175731,44.938318,287.247721,269.740295,3.787658,3.000000,-93.169990,6.466729,2025-03-20T19:11:03.999-05:00,-0.254263,-0.971674,0.031954,2025-03-20T19:11:03.574-05:00,-0.391107,0.043275,0.246243,2025-03-20T19:11:03.579-05:00
57.000000,260.015744,0.645519,7.970611,44.938318,287.425744,269.740295,2.234455,3.000000,-93.170074,6.562342,2025-03-20T19:11:04.999-05:00,-0.253978,-0.963091,0.041627,2025-03-20T19:11:04.578-05:00,-0.382657,0.140356,0.354558,2025-03-20T19:11:04.573-05:00
58.000000,259.696740,0.645416,7.701215,44.938303,287.106740,269.740295,2.438363,3.000000,-93.170161,6.786634,2025-03-20T19:11:05.999-05:00,-0.278653,-0.957464,0.032611,2025-03-20T19:11:05.573-05:00,-0.596034,0.174366,0.291185,2025-03-20T19:11:05.578-05:00
59.000000,259.638582,0.641857,7.705594,44.938310,287.048582,269.740295,2.400548,3.000000,-93.170247,6.749702,2025-03-20T19:11:07.000-05:00,-0.302787,-0.948455,0.021685,2025-03-20T19:11:06.578-05:00,-0.804150,0.268483,0.180030,2025-03-20T19:11:06.573-05:00
60.000000,259.636119,0.646739,8.121008,44.938311,287.046119,269.740295,2.343264,3.000000,-93.170330,6.453215,2025-03-20T19:11:08.000-05:00,-0.342349,-0.941817,0.026580,2025-03-20T19:11:07.573-05:00,-1.074013,0.303394,0.201737,2025-03-20T19:11:07.578-05:00
61.000000,259.584539,0.647019,8.897966,44.938313,286.994539,269.740295,2.278528,3.000000,-93.170404,5.892230,2025-03-20T19:11:09.000-05:00,-0.339385,-0.944641,0.161216,2025-03-20T19:11:08.578-05:00,-1.071906,0.277807,1.413101,2025-03-20T19:11:08.573-05:00
62.000000,259.628012,0.663746,9.720903,44.938311,287.038012,269.740295,2.232106,3.000000,-93.170473,5.532729,2025-03-20T19:11:10.000-05:00,-0.359255,-0.927026,0.238082,2025-03-20T19:11:09.572-05:00,-1.172565,0.423173,2.236064,2025-03-20T19:11:09.577-05:00
63.000000,259.575538,0.660220,10.351759,44.938316,286.985538,269.740295,2.198948,3.000000,-93.170532,5.168150,2025-03-20T19:11:11.000-05:00,-0.332658,-0.933900,0.246139,2025-03-20T19:11:10.577-05:00,-0.768234,0.329593,2.336903,2025-03-20T19:11:10.572-05:00
64.000000,259.595895,0.670503,10.900767,44.938309,287.005895,223.087907,2.174080,3.000000,-93.170570,4.984618,2025-03-20T19:11:12.000-05:00,-0.265945,-0.949980,0.138772,2025-03-20T19:11:11.572-05:00,-0.057730,0.159418,1.369774,2025-03-20T19:11:11.577-05:00
65.000000,260.169675,0.730284,17.693209,44.938233,287.579675,188.736389,2.187621,3.000000,-93.170581,3.297477,2025-03-20T19:11:13.000-05:00,-0.260905,-0.973593,0.096305,2025-03-20T19:11:12.577-05:00,0.042473,-0.094204,1.017984,2025-03-20T19:11:12.572-05:00
66.000000,259.470478,0.694973,9.282187,44.938148,286.880478,188.736389,2.165717,3.000000,-93.170601,6.051534,2025-03-20T19:11:14.000-05:00,-0.235868,-0.976762,0.062894,2025-03-20T19:11:13.572-05:00,0.100548,-0.078028,0.549844,2025-03-20T19:11:13.576-05:00
67.000000,260.043100,0.673531,8.087898,44.938085,287.453099,186.595947,2.145498,3.000000,-93.170608,6.750554,2025-03-20T19:11:15.000-05:00,-0.290090,-0.961567,-0.000031,2025-03-20T19:11:14.576-05:00,-0.543729,0.102675,-0.079676,2025-03-20T19:11:14.571-05:00
68.000000,260.185649,0.664579,8.500403,44.938031,287.595649,182.912891,2.147406,3.000000,-93.170607,6.337367,2025-03-20T19:11:16.000-05:00,-0.236450,-0.973322,-0.026588,2025-03-20T19:11:15.571-05:00,-0.902816,0.150984,-0.455582,2025-03-20T19:11:15.576-05:00
69.000000,260.488944,0.666272,9.810360,44.937984,287.898944,183.469660,2.204879,3.000000,-93.170610,5.492701,2025-03-20T19:11:17.000-05:00,-0.355881,-0.937553,-0.030572,2025-03-20T19:11:16.576-05:00,-1.289809,0.356027,-0.555855,2025-03-20T19:11:16.571-05:00
70.000000,260.323118,0.667053,13.130055,44.937952,287.733118,183.104032,2.187525,3.000000,-93.170609,4.108025,2025-03-20T19:11:18.000-05:00,-0.359260,-0.939493,-0.021650,2025-03-20T19:11:17.571-05:00,-1.202385,0.309196,-0.519815,2025-03-20T19:11:17.576-05:00
71.000000,260.301784,0.671448,16.942172,44.937922,287.711783,178.063680,2.192406,3.000000,-93.170602,3.197595,2025-03-20T19:11:19.000-05:00,-0.323089,-0.951078,-0.017737,2025-03-20T19:11:18.575-05:00,-0.791242,0.191265,-0.436399,2025-03-20T19:11:18.571-05:00
72.000000,260.592214,0.665991,28.569150,44.937910,288.002214,180.669991,2.213875,3.000000,-93.170601,1.860066,2025-03-20T19:11:20.000-05:00,-0.195513,-0.960013,0.006754,2025-03-20T19:11:19.580-05:00,0.311276,0.120250,-0.195146,2025-03-20T19:11:19.575-05:00
73.000000,261.031042,0.797021,34.035727,44.937898,288.441042,183.052866,2.197423,3.000000,-93.170602,1.388079,2025-03-20T19:11:21.000-05:00,-0.249328,-0.982899,-0.011198,2025-03-20T19:11:20.575-05:00,0.060332,-0.159804,-0.203368,2025-03-20T19:11:20.580-05:00
74.000000,260.983388,0.701164,27.014244,44.937875,288.393388,181.668325,2.302515,3.000000,-93.170601,1.918157,2025-03-20T19:11:22.000-05:00,-0.129166,-0.997773,0.008493,2025-03-20T19:11:21.580-05:00,1.183409,-0.286401,0.069330,2025-03-20T19:11:21.575-05:00
75.000000,260.881282,0.663804,19.931490,44.937849,288.291282,180.763128,2.329176,3.000000,-93.170598,2.640927,2025-03-20T19:11:23.000-05:00,-0.135093,-0.993274,0.002482,2025-03-20T19:11:22.575-05:00,1.073814,-0.232705,0.062889,2025-03-20T19:11:22.580-05:00
76.000000,260.781019,0.667763,14.254851,44.937813,288.191019,180.717101,2.308603,3.000000,-93.170597,3.627852,2025-03-20T19:11:24.000-05:00,-0.162248,-0.989979,0.005066,2025-03-20T19:11:23.579-05:00,0.822619,-0.201791,0.016665,2025-03-20T19:11:23.574-05:00
77.000000,261.220205,0.651255,11.736601,44.937768,288.630205,179.739151,2.301412,3.000000,-93.170597,4.490589,2025-03-20T19:11:25.000-05:00,-0.162507,-0.992124,-0.005239,2025-03-20T19:11:24.574-05:00,0.709380,-0.195806,-0.016521,2025-03-20T19:11:24.579-05:00
78.000000,261.522258,0.655500,10.019208,44.937716,288.932258,179.739151,2.300981,3.000000,-93.170596,5.282165,2025-03-20T19:11:26.000-05:00,-0.185546,-0.997166,0.008640,2025-03-20T19:11:25.579-05:00,0.323955,-0.212658,0.150352,2025-03-20T19:11:25.574-05:00
79.000000,261.492679,0.657428,8.935599,44.937658,288.902679,179.739151,2.308841,3.000000,-93.170604,5.958381,2025-03-20T19:11:27.000-05:00,-0.158112,-1.003871,0.020552,2025-03-20T19:11:26.574-05:00,0.268567,-0.210263,0.117701,2025-03-20T19:11:26.579-05:00
80.000000,261.874008,0.657775,8.417265,44.937599,289.284008,178.999237,2.288621,3.000000,-93.170597,6.324455,2025-03-20T19:11:28.000-05:00,-0.183019,-0.986288,0.025285,2025-03-20T19:11:27.579-05:00,-0.033694,-0.028215,0.014095,2025-03-20T19:11:27.574-05:00
81.000000,262.337685,0.678882,8.195685,44.937535,289.747685,178.999237,2.325828,3.000000,-93.170614,6.692874,2025-03-20T19:11:29.000-05:00,-0.205890,-0.971070,0.041836,2025-03-20T19:11:28.573-05:00,-0.217219,0.112406,0.021209,2025-03-20T19:11:28.578-05:00
82.000000,262.245124,0.782926,9.174237,44.937470,289.655123,178.999237,2.274690,3.000000,-93.170612,6.917512,2025-03-20T19:11:30.000-05:00,-0.273307,-0.963277,-0.002549,2025-03-20T19:11:29.578-05:00,-0.820916,0.182430,-0.304927,2025-03-20T19:11:29.573-05:00
83.000000,262.546963,0.774599,9.831983,44.937415,289.956963,177.952324,2.508529,3.000000,-93.170581,6.386256,2025-03-20T19:11:31.000-05:00,-0.254170,-0.959929,-0.028828,2025-03-20T19:11:30.573-05:00,-0.635887,0.211344,-0.421824,2025-03-20T19:11:30.578-05:00
84.000000,261.619861,0.723993,10.228101,44.937368,289.029861,178.204146,2.690261,3.000000,-93.170573,5.548132,2025-03-20T19:11:32.000-05:00,-0.290680,-0.953418,-0.051569,2025-03-20T19:11:31.578-05:00,-0.900439,0.256625,-0.500472,2025-03-20T19:11:31.573-05:00
85.000000,261.913712,0.679689,11.735849,44.937328,289.323712,177.969707,2.954275,3.000000,-93.170566,4.649469,2025-03-20T19:11:33.000-05:00,-0.363891,-0.913570,-0.054636,2025-03-20T19:11:32.573-05:00,-1.344264,0.593464,-0.474562,2025-03-20T19:11:32.578-05:00
86.000000,261.922848,0.676608,14.800340,44.937294,289.332848,180.517186,3.061028,3.000000,-93.170566,3.650343,2025-03-20T19:11:34.000-05:00,-0.374047,-0.934917,-0.063302,2025-03-20T19:11:33.577-05:00,-1.115892,0.300322,-0.443303,2025-03-20T19:11:33.572-05:00
87.000000,262.273680,0.664770,22.812458,44.937273,289.683680,175.609070,3.146892,3.000000,-93.170585,2.361334,2025-03-20T19:11:35.000-05:00,-0.214486,-0.955375,-0.010896,2025-03-20T19:11:34.572-05:00,0.276829,0.150993,-0.011365,2025-03-20T19:11:34.577-05:00
88.000000,262.174279,0.678083,28.091195,44.937260,289.584279,175.609070,3.096635,3.000000,-93.170583,1.923705,2025-03-20T19:11:36.000-05:00,-0.224347,-0.989911,-0.019920,2025-03-20T19:11:35.577-05:00,0.387744,-0.255081,0.016628,2025-03-20T19:11:35.572-05:00
89.000000,262.304391,0.673824,24.490763,44.937238,289.714391,178.623337,3.154431,3.000000,-93.170582,2.220488,2025-03-20T19:11:37.000-05:00,-0.090939,-1.012065,0.010519,2025-03-20T19:11:36.572-05:00,1.552140,-0.432587,0.277458,2025-03-20T19:11:36.577-05:00
90.000000,262.253806,0.667013,15.847739,44.937203,289.663806,178.623337,3.121422,3.000000,-93.170580,3.390052,2025-03-20T19:11:38.000-05:00,-0.138229,-0.995593,0.007229,2025-03-20T19:11:37.577-05:00,1.030746,-0.252406,0.275103,2025-03-20T19:11:37.572-05:00
91.000000,262.161077,0.666573,11.603960,44.937155,289.571077,180.311386,3.202464,3.000000,-93.170579,4.572066,2025-03-20T19:11:39.000-05:00,-0.153814,-0.988464,-0.005899,2025-03-20T19:11:38.572-05:00,0.927711,-0.200123,0.171306,2025-03-20T19:11:38.576-05:00
92.000000,262.463705,0.665653,9.458783,44.937098,289.873704,180.311386,3.154622,3.000000,-93.170580,5.699769,2025-03-20T19:11:40.000-05:00,-0.194756,-0.976395,0.002876,2025-03-20T19:11:39.576-05:00,0.527135,-0.077467,0.147957,2025-03-20T19:11:39.571-05:00
93.000000,262.441773,0.677873,8.504895,44.937036,289.851772,180.311386,3.171207,3.000000,-93.170580,6.441913,2025-03-20T19:11:41.000-05:00,-0.267610,-0.967340,-0.015236,2025-03-20T19:11:40.571-05:00,-0.154055,0.008392,-0.044360,2025-03-20T19:11:40.576-05:00
94.000000,262.616752,0.680259,8.283598,44.936974,290.026752,181.198517,3.129612,3.000000,-93.170581,6.650058,2025-03-20T19:11:42.000-05:00,-0.280704,-0.958325,-0.023251,2025-03-20T19:11:41.576-05:00,-0.303839,0.095161,-0.043897,2025-03-20T19:11:41.571-05:00
95.000000,262.556518,0.670060,8.472305,44.936917,289.966517,181.198517,3.022404,3.000000,-93.170583,6.401390,2025-03-20T19:11:43.000-05:00,-0.356956,-0.937567,-0.041923,2025-03-20T19:11:42.571-05:00,-1.006993,0.285552,-0.225777,2025-03-20T19:11:42.576-05:00
96.000000,262.337162,0.679082,9.494185,44.936866,289.747161,181.198517,2.894738,3.000000,-93.170584,5.760449,2025-03-20T19:11:44.000-05:00,-0.412130,-0.927650,-0.067728,2025-03-20T19:11:43.576-05:00,-1.524083,0.382167,-0.462149,2025-03-20T19:11:43.571-05:00
97.000000,262.262488,0.675950,12.309853,44.936828,289.672488,178.076920,2.801046,3.000000,-93.170583,4.430600,2025-03-20T19:11:45.000-05:00,-0.404601,-0.930543,-0.052506,2025-03-20T19:11:44.580-05:00,-1.424760,0.342428,-0.364338,2025-03-20T19:11:44.575-05:00
98.000000,262.781773,0.702031,17.801304,44.936802,290.191772,173.429642,4.347376,3.000000,-93.170578,3.033224,2025-03-20T19:11:46.000-05:00,-0.325158,-0.973278,-0.031856,2025-03-20T19:11:45.575-05:00,-0.592520,-0.089871,-0.152358,2025-03-20T19:11:45.580-05:00
99.000000,262.292166,0.681087,30.777349,44.936793,289.702165,173.429642,2.694342,3.000000,-93.170577,1.778049,2025-03-20T19:11:47.000-05:00,-0.202342,-0.967374,0.005080,2025-03-20T19:11:46.580-05:00,0.529999,-0.008846,0.132735,2025-03-20T19:11:46.575-05:00
100.000000,262.397258,0.676663,30.551510,44.936777,289.807258,170.974655,2.677824,3.000000,-93.170573,1.794658,2025-03-20T19:11:48.000-05:00,-0.186751,-0.958406,0.033173,2025-03-20T19:11:47.575-05:00,0.870000,0.018481,0.486994,2025-03-20T19:11:47.580-05:00
101.000000,262.949418,0.742584,25.523550,44.936757,290.359418,166.815292,2.691207,3.000000,-93.170567,2.020407,2025-03-20T19:11:49.000-05:00,-0.128405,-1.006343,0.046394,2025-03-20T19:11:48.580-05:00,1.283437,-0.393880,0.595003,2025-03-20T19:11:48.575-05:00
102.000000,262.234702,0.677133,15.505999,44.936720,289.644702,166.815292,2.646563,3.000000,-93.170555,3.406869,2025-03-20T19:11:50.000-05:00,-0.156542,-0.989354,0.076368,2025-03-20T19:11:49.574-05:00,1.006725,-0.226848,0.833075,2025-03-20T19:11:49.579-05:00
103.000000,262.146794,0.661498,11.537994,44.936680,289.556794,160.417465,2.606183,3.000000,-93.170512,4.614380,2025-03-20T19:11:51.000-05:00,-0.198184,-0.985243,0.075993,2025-03-20T19:11:50.579-05:00,0.537058,-0.176455,0.808662,2025-03-20T19:11:50.574-05:00
104.000000,261.709037,0.659296,9.335698,44.936630,289.119036,156.160904,2.607648,3.000000,-93.170485,5.688928,2025-03-20T19:11:52.000-05:00,-0.235224,-0.974153,0.074976,2025-03-20T19:11:51.574-05:00,0.098543,-0.040255,0.743112,2025-03-20T19:11:51.579-05:00
105.000000,261.411884,0.671965,9.031197,44.936585,288.821884,150.732498,2.577415,3.000000,-93.170441,6.002183,2025-03-20T19:11:53.000-05:00,-0.280979,-0.958711,0.058786,2025-03-20T19:11:52.579-05:00,-0.401206,0.109212,0.391171,2025-03-20T19:11:52.574-05:00
106.000000,260.698356,0.662525,8.862366,44.936534,288.108356,145.530930,2.543630,3.000000,-93.170415,5.959448,2025-03-20T19:11:54.000-05:00,-0.292252,-0.954328,-0.003739,2025-03-20T19:11:53.574-05:00,-0.512465,0.150173,-0.259092,2025-03-20T19:11:53.579-05:00
107.000000,260.658440,0.652419,8.542853,44.936498,288.068440,138.233994,2.512841,3.000000,-93.170351,6.138296,2025-03-20T19:11:55.000-05:00,-0.303192,-0.949605,-0.097603,2025-03-20T19:11:54.578-05:00,-0.621093,0.216130,-1.002503,2025-03-20T19:11:54.573-05:00
108.000000,260.829314,0.656685,9.626635,44.936466,288.239314,138.233994,2.487149,3.000000,-93.170308,5.526903,2025-03-20T19:11:56.000-05:00,-0.316178,-0.957056,-0.141981,2025-03-20T19:11:55.573-05:00,-0.736517,0.129732,-1.372261,2025-03-20T19:11:55.578-05:00
109.000000,260.786397,0.657379,11.889291,44.936431,288.196397,159.605637,2.462792,3.000000,-93.170293,4.479952,2025-03-20T19:11:57.000-05:00,-0.337440,-0.937926,-0.117719,2025-03-20T19:11:56.578-05:00,-0.869937,0.300523,-1.042821,2025-03-20T19:11:56.573-05:00
110.000000,260.899157,0.667284,15.138013,44.936401,288.309157,159.605637,2.439652,3.000000,-93.170288,3.573105,2025-03-20T19:11:58.000-05:00,-0.344200,-0.943876,-0.062345,2025-03-20T19:11:57.573-05:00,-0.872736,0.222630,-0.444838,2025-03-20T19:11:57.578-05:00
111.000000,260.937439,0.668428,20.307389,44.936379,288.347438,175.373856,2.417669,3.000000,-93.170316,2.657658,2025-03-20T19:11:59.000-05:00,-0.278867,-0.981734,-0.028361,2025-03-20T19:11:58.578-05:00,-0.417020,-0.095670,-0.090845,2025-03-20T19:11:58.573-05:00
112.000000,260.880911,0.665259,27.580651,44.936365,288.290910,178.325500,2.396786,3.000000,-93.170316,1.954451,2025-03-20T19:12:00.000-05:00,-0.187400,-0.971672,-0.018638,2025-03-20T19:11:59.572-05:00,0.430104,0.005217,0.080758,2025-03-20T19:11:59.577-05:00
113.000000,260.796296,0.687452,28.400791,44.936351,288.206296,178.325500,2.377842,3.000000,-93.170316,1.863357,2025-03-20T19:12:01.000-05:00,-0.136992,-0.982910,-0.006636,2025-03-20T19:12:00.577-05:00,1.085272,-0.148684,0.220889,2025-03-20T19:12:00.572-05:00
114.000000,260.802515,0.696210,21.329943,44.936326,288.212515,178.775543,2.364649,3.000000,-93.170315,2.541296,2025-03-20T19:12:02.000-05:00,-0.113338,-1.003041,0.013995,2025-03-20T19:12:01.572-05:00,1.247943,-0.318777,0.363195,2025-03-20T19:12:01.577-05:00
115.000000,260.756548,0.665485,14.753226,44.936290,288.166548,178.775543,2.346416,3.000000,-93.170294,3.611430,2025-03-20T19:12:03.000-05:00,-0.119263,-1.001769,0.009679,2025-03-20T19:12:02.577-05:00,1.082132,-0.278288,0.365566,2025-03-20T19:12:02.572-05:00
116.000000,260.843702,0.651814,10.681683,44.936240,288.253702,180.075195,2.340036,3.000000,-93.170299,4.944397,2025-03-20T19:12:04.000-05:00,-0.143861,-0.992352,0.002670,2025-03-20T19:12:03.572-05:00,0.779456,-0.184641,0.306874,2025-03-20T19:12:03.577-05:00
117.000000,260.883031,0.655641,8.867021,44.936183,288.293031,180.075195,2.323034,3.000000,-93.170304,5.991626,2025-03-20T19:12:05.000-05:00,-0.186340,-0.979345,0.006451,2025-03-20T19:12:04.576-05:00,0.393872,-0.047258,0.276129,2025-03-20T19:12:04.572-05:00
118.000000,261.016514,0.678757,8.356397,44.936122,288.426514,180.075195,2.302867,3.000000,-93.170308,6.581790,2025-03-20T19:12:06.000-05:00,-0.227949,-0.973529,-0.012379,2025-03-20T19:12:05.571-05:00,-0.058710,0.014302,0.096089,2025-03-20T19:12:05.576-05:00
119.000000,260.606542,0.674041,7.924951,44.936058,288.016542,180.075195,2.268779,3.000000,-93.170305,6.844280,2025-03-20T19:12:07.000-05:00,-0.247122,-0.969775,-0.018880,2025-03-20T19:12:06.576-05:00,-0.254421,0.046099,0.015637,2025-03-20T19:12:06.571-05:00
120.000000,260.694571,0.677293,7.739174,44.935991,288.104571,180.075195,2.223625,3.000000,-93.170310,7.066348,2025-03-20T19:12:08.000-05:00,-0.230482,-0.977249,-0.003063,2025-03-20T19:12:07.571-05:00,-0.177759,0.001022,0.120596,2025-03-20T19:12:07.576-05:00
121.000000,260.994103,0.665543,7.553967,44.935925,288.404103,180.075195,2.177622,3.000000,-93.170309,7.139748,2025-03-20T19:12:09.000-05:00,-0.224420,-0.963193,-0.009007,2025-03-20T19:12:08.576-05:00,-0.116845,0.134189,0.066037,2025-03-20T19:12:08.571-05:00
122.000000,261.301307,0.665821,7.484949,44.935859,288.711306,180.075195,2.308805,3.000000,-93.170308,7.209706,2025-03-20T19:12:10.000-05:00,-0.230952,-0.966663,-0.006890,2025-03-20T19:12:09.571-05:00,-0.071585,0.074242,0.069389,2025-03-20T19:12:09.576-05:00
123.000000,261.237916,0.665893,7.419803,44.935793,288.647916,180.075195,2.230908,3.000000,-93.170311,7.269041,2025-03-20T19:12:11.000-05:00,-0.212208,-0.978628,-0.002699,2025-03-20T19:12:10.575-05:00,0.089768,-0.034288,0.133089,2025-03-20T19:12:10.580-05:00
124.000000,260.859373,0.679858,7.354418,44.935726,288.269373,180.075195,2.172380,3.000000,-93.170314,7.433204,2025-03-20T19:12:12.000-05:00,-0.208046,-0.982873,-0.017317,2025-03-20T19:12:11.580-05:00,0.047603,-0.056220,0.016765,2025-03-20T19:12:11.575-05:00
125.000000,261.015626,0.668482,7.258160,44.935652,288.425626,180.075195,2.124778,3.000000,-93.170312,7.844538,2025-03-20T19:12:13.000-05:00,-0.207454,-0.981934,-0.005295,2025-03-20T19:12:12.575-05:00,0.043655,-0.052558,0.056038,2025-03-20T19:12:12.580-05:00
126.000000,261.417401,0.660743,7.256684,44.935578,288.827401,180.075195,2.089204,3.000000,-93.170313,8.132093,2025-03-20T19:12:14.000-05:00,-0.217476,-0.975121,-0.011024,2025-03-20T19:12:13.580-05:00,-0.018678,0.017943,0.050263,2025-03-20T19:12:13.575-05:00
127.000000,261.420476,0.658343,7.258785,44.935500,288.830476,180.631439,2.062733,3.000000,-93.170313,8.441845,2025-03-20T19:12:15.000-05:00,-0.214253,-0.973276,-0.008141,2025-03-20T19:12:14.575-05:00,0.000843,0.038441,0.058160,2025-03-20T19:12:14.580-05:00
128.000000,261.553233,0.662172,7.258584,44.935421,288.963233,180.631439,2.041240,3.000000,-93.170315,8.708890,2025-03-20T19:12:16.000-05:00,-0.251168,-0.960928,-0.013316,2025-03-20T19:12:15.579-05:00,-0.266821,0.125419,-0.047786,2025-03-20T19:12:15.574-05:00
129.000000,261.619278,0.664599,7.258974,44.935342,289.029278,180.631439,2.026931,3.000000,-93.170314,8.730775,2025-03-20T19:12:17.000-05:00,-0.264653,-0.969580,-0.006595,2025-03-20T19:12:16.574-05:00,-0.369965,0.045472,-0.047354,2025-03-20T19:12:16.579-05:00
130.000000,260.949292,0.673918,7.243441,44.935267,288.359292,180.631439,2.061676,3.000000,-93.170321,8.487473,2025-03-20T19:12:18.000-05:00,-0.271062,-0.961986,-0.009382,2025-03-20T19:12:17.579-05:00,-0.427638,0.115069,-0.042288,2025-03-20T19:12:17.574-05:00
131.000000,261.054132,0.775807,9.041367,44.935215,288.464132,180.631439,2.569924,3.000000,-93.170330,6.930712,2025-03-20T19:12:19.000-05:00,-0.279883,-0.965190,-0.016967,2025-03-20T19:12:18.574-05:00,-0.548394,0.086602,-0.010502,2025-03-20T19:12:18.579-05:00
132.000000,261.563223,0.664601,7.256761,44.935120,288.973223,180.631439,2.624326,3.000000,-93.170319,8.309407,2025-03-20T19:12:19.999-05:00,-0.284202,-0.957975,-0.033234,2025-03-20T19:12:19.579-05:00,-0.592160,0.161028,-0.176583,2025-03-20T19:12:19.574-05:00
133.000000,261.786735,0.662494,7.257618,44.935050,289.196735,180.631439,2.420304,3.000000,-93.170317,7.959765,2025-03-20T19:12:20.999-05:00,-0.328023,-0.945925,-0.051692,2025-03-20T19:12:20.573-05:00,-0.967978,0.265722,-0.309869,2025-03-20T19:12:20.578-05:00
134.000000,261.811632,0.658697,7.600916,44.934990,289.221632,180.631439,2.290980,3.000000,-93.170318,7.020347,2025-03-20T19:12:21.999-05:00,-0.361157,-0.942397,-0.049415,2025-03-20T19:12:21.578-05:00,-1.212722,0.285227,-0.294377,2025-03-20T19:12:21.573-05:00
135.000000,261.697713,0.725594,10.942747,44.934947,289.107713,180.631439,2.212338,3.000000,-93.170319,5.336456,2025-03-20T19:12:22.999-05:00,-0.408316,-0.923090,-0.055302,2025-03-20T19:12:22.573-05:00,-1.565106,0.444737,-0.348627,2025-03-20T19:12:22.578-05:00
136.000000,261.690335,0.681941,12.403965,44.934905,289.100335,179.753693,2.169871,3.000000,-93.170319,4.443444,2025-03-20T19:12:23.999-05:00,-0.408344,-0.913952,-0.047371,2025-03-20T19:12:23.578-05:00,-1.433260,0.500419,-0.338364,2025-03-20T19:12:23.573-05:00
137.000000,261.742550,0.687215,23.347721,44.934890,289.152550,179.753693,2.147171,3.000000,-93.170318,2.384426,2025-03-20T19:12:24.999-05:00,-0.231776,-0.987370,-0.007502,2025-03-20T19:12:24.573-05:00,0.366712,-0.236720,0.104627,2025-03-20T19:12:24.578-05:00
138.000000,261.823109,0.672368,26.716435,44.934875,289.233109,179.753693,2.126147,3.000000,-93.170316,2.038961,2025-03-20T19:12:25.999-05:00,-0.213650,-0.966322,0.007737,2025-03-20T19:12:25.577-05:00,0.712341,-0.092362,0.236823,2025-03-20T19:12:25.573-05:00
139.000000,262.060027,0.686039,24.226290,44.934854,289.470027,179.753693,2.259744,3.000000,-93.170321,2.195008,2025-03-20T19:12:26.999-05:00,-0.124442,-1.002397,0.034456,2025-03-20T19:12:26.572-05:00,1.519210,-0.411152,0.521635,2025-03-20T19:12:26.577-05:00
140.000000,261.572021,0.706729,16.849442,44.934824,288.982021,179.753693,2.230883,3.000000,-93.170324,3.087425,2025-03-20T19:12:27.999-05:00,-0.157792,-0.984751,0.014512,2025-03-20T19:12:27.577-05:00,1.145641,-0.233701,0.336432,2025-03-20T19:12:27.572-05:00
141.000000,261.365514,0.685963,12.380846,44.934778,288.775514,179.753693,2.249246,3.000000,-93.170319,4.270847,2025-03-20T19:12:28.999-05:00,-0.197486,-0.982932,0.002333,2025-03-20T19:12:28.572-05:00,0.751166,-0.206292,0.238998,2025-03-20T19:12:28.577-05:00
142.000000,261.265908,0.689993,10.532325,44.934726,288.675908,179.753693,2.253483,3.000000,-93.170314,5.168842,2025-03-20T19:12:29.999-05:00,-0.226898,-0.972521,-0.005679,2025-03-20T19:12:29.577-05:00,0.458146,-0.112718,0.162391,2025-03-20T19:12:29.572-05:00
143.000000,261.201445,0.687473,9.883279,44.934674,288.611445,179.753693,2.291632,3.000000,-93.170310,5.536536,2025-03-20T19:12:30.999-05:00,-0.253281,-0.968358,-0.007679,2025-03-20T19:12:30.572-05:00,0.183769,-0.062137,0.113867,2025-03-20T19:12:30.577-05:00
144.000000,261.546210,0.672590,9.166793,44.934616,288.956210,179.753693,2.269199,3.000000,-93.170301,5.933686,2025-03-20T19:12:31.999-05:00,-0.271973,-0.962728,0.000635,2025-03-20T19:12:31.576-05:00,-0.033356,0.005224,0.069287,2025-03-20T19:12:31.571-05:00
145.000000,261.220720,0.668978,9.108190,44.934564,288.630720,179.753693,2.249971,3.000000,-93.170302,5.906180,2025-03-20T19:12:32.999-05:00,-0.280846,-0.960022,-0.013744,2025-03-20T19:12:32.571-05:00,-0.124383,0.035664,-0.169372,2025-03-20T19:12:32.576-05:00
146.000000,261.049833,0.669002,9.783701,44.934517,288.459833,179.753693,2.281102,3.000000,-93.170301,5.482349,2025-03-20T19:12:33.999-05:00,-0.368687,-0.937889,-0.030547,2025-03-20T19:12:33.576-05:00,-0.942657,0.234888,-0.440757,2025-03-20T19:12:33.571-05:00
147.000000,260.971246,0.677480,11.138410,44.934471,288.381245,179.753693,2.263533,3.000000,-93.170298,4.890423,2025-03-20T19:12:34.999-05:00,-0.383030,-0.935032,-0.069918,2025-03-20T19:12:34.571-05:00,-1.057070,0.256748,-0.847191,2025-03-20T19:12:34.576-05:00
148.000000,261.241590,0.675435,14.021624,44.934437,288.651590,179.753693,2.248031,3.000000,-93.170320,3.903299,2025-03-20T19:12:35.999-05:00,-0.309309,-0.952433,-0.055072,2025-03-20T19:12:35.576-05:00,-0.350333,0.095051,-0.521802,2025-03-20T19:12:35.571-05:00
149.000000,261.493089,0.674662,18.405977,44.934416,288.903089,179.753693,2.234251,3.000000,-93.170307,2.944315,2025-03-20T19:12:36.999-05:00,-0.307601,-0.955051,0.018398,2025-03-20T19:12:36.580-05:00,-0.318421,0.057458,0.418511,2025-03-20T19:12:36.575-05:00
150.000000,260.825853,0.708212,23.542415,44.934401,288.235853,179.753693,2.221922,3.000000,-93.170316,2.301247,2025-03-20T19:12:37.999-05:00,-0.302783,-0.947362,-0.011015,2025-03-20T19:12:37.575-05:00,-0.263344,0.126261,0.283306,2025-03-20T19:12:37.580-05:00
