seconds_elapsed,location_altitude,location_speedAccuracy,location_bearingAccuracy,location_latitude,location_altitudeAboveMeanSeaLevel,location_bearing,location_horizontalAccuracy,location_verticalAccuracy,location_longitude,location_speed,location_local_time,accelerometerUncalibrated_z,accelerometerUncalibrated_y,accelerometerUncalibrated_x,accelerometerUncalibrated_local_time,accelerometer_z,accelerometer_y,accelerometer_x,accelerometer_local_time
0.000000,262.087980,-1.000000,-1.000000,44.933901,289.497980,-1.000000,371.959861,3.000000,-93.165253,-1.000000,2025-02-27T19:14:57.933-06:00,-0.168344,-1.005917,-0.029143,2025-02-27T19:14:57.929-06:00,0.847393,-0.363607,-0.218005,2025-02-27T19:14:57.941-06:00
1.000000,261.186340,0.930000,9.383980,44.934531,288.596340,356.835938,14.000000,3.000000,-93.166930,6.440000,2025-02-27T19:14:58.999-06:00,-0.128520,-0.996358,0.049052,2025-02-27T19:14:58.924-06:00,0.934345,-0.244138,0.422711,2025-02-27T19:14:58.915-06:00
2.000000,259.315918,0.990000,7.691151,44.934559,286.725918,0.150174,3.535534,3.000000,-93.166942,6.440000,2025-02-27T19:14:59.999-06:00,-0.150035,-0.999281,0.071410,2025-02-27T19:14:59.919-06:00,0.693361,-0.234956,0.694625,2025-02-27T19:14:59.920-06:00
3.000000,259.098633,0.970000,6.265170,44.934615,286.508633,359.502319,3.535534,3.000000,-93.166953,6.850000,2025-02-27T19:15:00.999-06:00,-0.134128,-0.995252,0.048288,2025-02-27T19:15:00.923-06:00,0.748363,-0.173403,0.545544,2025-02-27T19:15:00.924-06:00
4.000000,259.078491,0.080000,0.490296,44.934698,286.488491,359.502319,3.535534,3.000000,-93.166948,8.300000,2025-02-27T19:15:01.999-06:00,-0.169984,-0.984780,0.026549,2025-02-27T19:15:01.918-06:00,0.330622,-0.058346,0.441350,2025-02-27T19:15:01.919-06:00
5.000000,258.720520,0.070000,0.441079,44.934791,286.130520,0.000000,3.535534,3.000000,-93.166943,11.630000,2025-02-27T19:15:02.999-06:00,-0.214607,-0.979491,0.006386,2025-02-27T19:15:02.922-06:00,-0.120585,-0.003583,0.253408,2025-02-27T19:15:02.924-06:00
6.000000,258.827271,0.680000,3.566064,44.934897,286.237270,0.000000,3.535534,3.000000,-93.166938,12.470000,2025-02-27T19:15:04.000-06:00,-0.201242,-0.972811,0.004880,2025-02-27T19:15:03.917-06:00,-0.029437,0.070549,0.211592,2025-02-27T19:15:03.918-06:00
7.000000,258.635620,1.770000,6.323364,44.934999,286.045620,0.000000,3.535534,3.000000,-93.166925,11.710000,2025-02-27T19:15:05.000-06:00,-0.216918,-0.984200,0.016945,2025-02-27T19:15:04.922-06:00,-0.198451,-0.037114,0.256390,2025-02-27T19:15:04.923-06:00
8.000000,259.489746,0.830000,4.104227,44.935116,286.899746,0.000000,3.535534,3.000000,-93.166939,12.470000,2025-02-27T19:15:06.000-06:00,-0.212114,-0.961688,0.001702,2025-02-27T19:15:05.916-06:00,-0.143623,0.181330,0.166161,2025-02-27T19:15:05.918-06:00
9.000000,259.243652,0.150000,0.708655,44.935236,286.653652,0.000000,3.535534,3.000000,-93.166940,13.660000,2025-02-27T19:15:07.000-06:00,-0.238744,-0.989181,0.032815,2025-02-27T19:15:06.921-06:00,-0.301655,-0.109660,0.240724,2025-02-27T19:15:06.922-06:00
10.000000,259.487549,0.050000,0.268261,44.935360,286.897549,0.000000,3.535534,3.000000,-93.166941,14.150000,2025-02-27T19:15:08.000-06:00,-0.243897,-0.963984,0.015366,2025-02-27T19:15:07.915-06:00,-0.455087,0.159969,0.127036,2025-02-27T19:15:07.917-06:00
11.000000,259.373291,0.170000,0.809748,44.935486,286.783291,0.000000,3.535534,3.000000,-93.166942,14.150000,2025-02-27T19:15:09.000-06:00,-0.244841,-0.961449,0.011674,2025-02-27T19:15:08.920-06:00,-0.427789,0.177423,0.133413,2025-02-27T19:15:08.921-06:00
12.000000,259.507446,0.090000,0.442237,44.935617,286.917446,0.000000,3.535534,3.000000,-93.166943,14.270000,2025-02-27T19:15:10.000-06:00,-0.233374,-0.966036,0.007120,2025-02-27T19:15:09.915-06:00,-0.275188,0.124014,0.099186,2025-02-27T19:15:09.916-06:00
13.000000,259.507462,0.308017,7.258975,44.935745,286.917462,0.230505,4.748652,4.029364,-93.166944,14.270000,2025-02-27T19:15:11.000-06:00,-0.270585,-0.979704,-0.018283,2025-02-27T19:15:10.919-06:00,-0.588541,-0.032611,-0.165670,2025-02-27T19:15:10.921-06:00
14.000000,259.513444,0.550000,7.258975,44.935880,286.923444,0.230505,4.748652,4.029364,-93.166948,14.450000,2025-02-27T19:15:12.000-06:00,-0.277870,-0.938558,0.011504,2025-02-27T19:15:11.924-06:00,-0.578050,0.371366,0.009039,2025-02-27T19:15:11.915-06:00
15.000000,259.499163,0.308020,7.258975,44.936019,286.909163,0.230505,4.748652,4.029364,-93.166948,14.850000,2025-02-27T19:15:13.000-06:00,-0.283737,-0.964906,0.003301,2025-02-27T19:15:12.918-06:00,-0.619483,0.102222,-0.045928,2025-02-27T19:15:12.920-06:00
16.000000,259.906128,0.050000,0.234568,44.936149,287.316128,0.230505,3.535534,3.000000,-93.166947,14.620000,2025-02-27T19:15:14.000-06:00,-0.286916,-0.961653,0.002424,2025-02-27T19:15:13.923-06:00,-0.560311,0.112897,-0.050254,2025-02-27T19:15:13.924-06:00
17.000000,259.755127,0.050000,0.255363,44.936280,287.165127,359.878601,3.535534,3.000000,-93.166950,14.450000,2025-02-27T19:15:15.000-06:00,-0.276219,-0.948657,-0.002786,2025-02-27T19:15:14.918-06:00,-0.467959,0.243747,-0.084528,2025-02-27T19:15:14.919-06:00
18.000000,259.755143,0.308018,7.258975,44.936410,287.165143,359.878601,4.748652,4.029364,-93.166952,14.450000,2025-02-27T19:15:16.000-06:00,-0.282371,-0.959557,-0.024797,2025-02-27T19:15:15.922-06:00,-0.493372,0.128850,-0.246170,2025-02-27T19:15:15.924-06:00
19.000000,260.024552,0.308018,7.258975,44.936539,287.434552,359.878601,4.748652,4.029364,-93.166951,14.390000,2025-02-27T19:15:17.000-06:00,-0.283274,-0.948790,-0.002450,2025-02-27T19:15:16.917-06:00,-0.467746,0.226044,-0.041902,2025-02-27T19:15:16.918-06:00
20.000000,260.067581,0.308018,7.258975,44.936661,287.477581,0.133635,4.748652,4.029364,-93.166951,13.980000,2025-02-27T19:15:18.000-06:00,-0.281768,-0.960947,0.003477,2025-02-27T19:15:17.921-06:00,-0.419115,0.098627,0.009802,2025-02-27T19:15:17.923-06:00
21.000000,260.388565,0.308018,7.258975,44.936786,287.798565,0.133635,4.748652,4.029364,-93.166948,13.980000,2025-02-27T19:15:19.000-06:00,-0.273389,-0.967049,-0.007893,2025-02-27T19:15:18.916-06:00,-0.341065,0.039838,-0.085010,2025-02-27T19:15:18.917-06:00
22.000000,260.676101,0.308017,7.258975,44.936906,288.086101,0.133635,4.748652,4.029364,-93.166951,13.760000,2025-02-27T19:15:20.000-06:00,-0.265799,-0.948221,-0.006134,2025-02-27T19:15:19.921-06:00,-0.226177,0.214312,-0.059387,2025-02-27T19:15:19.922-06:00
23.000000,260.866714,1.330000,7.883531,44.937027,288.276714,0.679126,4.748652,4.029364,-93.166953,13.670000,2025-02-27T19:15:21.000-06:00,-0.264897,-0.955149,-0.003843,2025-02-27T19:15:20.915-06:00,-0.157687,0.131249,-0.050004,2025-02-27T19:15:20.917-06:00
24.000000,261.323196,2.800000,16.596906,44.937153,288.733196,359.884857,4.748652,4.029364,-93.166962,13.670000,2025-02-27T19:15:22.000-06:00,-0.268254,-0.975387,0.005433,2025-02-27T19:15:21.920-06:00,-0.192071,-0.066908,0.082718,2025-02-27T19:15:21.921-06:00
25.000000,261.418592,2.050000,12.866643,44.937255,288.828592,359.884857,4.748652,4.029364,-93.166946,12.910000,2025-02-27T19:15:23.000-06:00,-0.270631,-0.955433,-0.002154,2025-02-27T19:15:22.915-06:00,-0.206951,0.126619,0.028571,2025-02-27T19:15:22.916-06:00
26.000000,261.412673,0.860000,7.258975,44.937385,288.822673,359.884857,4.748652,4.029364,-93.166944,13.680000,2025-02-27T19:15:24.000-06:00,-0.264194,-0.967738,0.006803,2025-02-27T19:15:23.919-06:00,-0.129318,0.005984,0.044364,2025-02-27T19:15:23.920-06:00
27.000000,261.651870,0.308017,7.258975,44.937501,289.061870,359.884857,4.748652,4.029364,-93.166947,13.550000,2025-02-27T19:15:25.000-06:00,-0.276821,-0.958254,-0.006775,2025-02-27T19:15:24.924-06:00,-0.202784,0.077905,-0.073756,2025-02-27T19:15:24.915-06:00
28.000000,261.834731,0.308017,7.258975,44.937621,289.244731,0.565810,4.748652,4.029364,-93.166948,13.550000,2025-02-27T19:15:26.000-06:00,-0.300910,-0.942808,0.000076,2025-02-27T19:15:25.918-06:00,-0.417725,0.227694,-0.056769,2025-02-27T19:15:25.920-06:00
29.000000,261.556228,1.850000,11.062927,44.937743,288.966228,0.565810,4.748652,4.029364,-93.166954,13.550000,2025-02-27T19:15:27.000-06:00,-0.300930,-0.950416,0.004486,2025-02-27T19:15:26.923-06:00,-0.372414,0.140836,0.003235,2025-02-27T19:15:26.924-06:00
30.000000,262.059217,1.050000,7.258975,44.937861,289.469217,0.000000,4.748652,4.029364,-93.166944,12.870000,2025-02-27T19:15:28.000-06:00,-0.285399,-0.948091,-0.026706,2025-02-27T19:15:27.918-06:00,-0.201249,0.158248,-0.172772,2025-02-27T19:15:27.919-06:00
31.000000,262.139479,1.100000,7.258975,44.937990,289.549479,0.000000,4.748652,4.029364,-93.166938,13.110000,2025-02-27T19:15:29.000-06:00,-0.303909,-0.930513,-0.008990,2025-02-27T19:15:28.922-06:00,-0.179504,0.272449,-0.021177,2025-02-27T19:15:28.923-06:00
32.000000,262.373792,2.340000,14.732448,44.938101,289.783792,0.000000,4.748652,4.029364,-93.166932,12.870000,2025-02-27T19:15:30.000-06:00,-0.294473,-0.948267,-0.009842,2025-02-27T19:15:29.917-06:00,-0.029689,0.081219,-0.019549,2025-02-27T19:15:29.918-06:00
33.000000,264.070240,1.274494,8.471358,44.938203,291.480239,0.000000,2.823877,3.000000,-93.166938,12.190581,2025-02-27T19:15:31.000-06:00,-0.303075,-0.953678,-0.001738,2025-02-27T19:15:30.921-06:00,-0.077197,0.017124,-0.030744,2025-02-27T19:15:30.923-06:00
34.000000,263.853036,1.273375,8.539249,44.938306,291.263036,0.435847,2.000000,3.000000,-93.166944,12.082626,2025-02-27T19:15:32.000-06:00,-0.303782,-0.948159,0.002148,2025-02-27T19:15:31.916-06:00,-0.076796,0.068979,-0.020087,2025-02-27T19:15:31.917-06:00
35.000000,263.880373,1.270756,8.604682,44.938413,291.290372,0.435847,2.000000,3.000000,-93.166944,11.966450,2025-02-27T19:15:33.000-06:00,-0.343940,-0.941369,-0.000873,2025-02-27T19:15:32.921-06:00,-0.439497,0.125804,-0.049244,2025-02-27T19:15:32.922-06:00
36.000000,263.722478,1.268700,8.667504,44.938516,291.132477,0.435847,2.000000,3.000000,-93.166945,11.860181,2025-02-27T19:15:34.000-06:00,-0.449039,-0.907616,-0.044337,2025-02-27T19:15:33.915-06:00,-1.429793,0.444005,-0.422276,2025-02-27T19:15:33.916-06:00
37.000000,263.641074,0.847291,7.258939,44.938613,291.051073,0.435847,2.000000,3.000000,-93.166951,11.221966,2025-02-27T19:15:35.000-06:00,-0.351365,-0.939310,-0.013355,2025-02-27T19:15:34.920-06:00,-0.480695,0.139428,-0.068963,2025-02-27T19:15:34.921-06:00
38.000000,262.967812,0.675122,7.251820,44.938691,290.377812,0.435847,2.000000,3.000000,-93.166952,9.629217,2025-02-27T19:15:36.000-06:00,-0.280993,-0.953715,-0.012076,2025-02-27T19:15:35.924-06:00,0.223931,-0.014561,-0.009554,2025-02-27T19:15:35.916-06:00
39.000000,263.158294,0.685406,7.258654,44.938769,290.568294,0.435847,2.000000,3.000000,-93.166949,9.083368,2025-02-27T19:15:37.000-06:00,-0.215871,-0.975876,0.019781,2025-02-27T19:15:36.919-06:00,0.884957,-0.232250,0.266777,2025-02-27T19:15:36.920-06:00
40.000000,263.033854,0.669590,7.257783,44.938853,290.443854,0.435847,2.000000,3.000000,-93.166953,9.237155,2025-02-27T19:15:38.000-06:00,-0.214628,-0.991514,0.021974,2025-02-27T19:15:37.924-06:00,0.830219,-0.367377,0.293485,2025-02-27T19:15:37.915-06:00
41.000000,263.159638,0.666168,7.258948,44.938945,290.569637,0.283038,2.000000,3.000000,-93.166953,9.916228,2025-02-27T19:15:38.999-06:00,-0.228667,-0.958585,-0.011221,2025-02-27T19:15:38.918-06:00,0.632677,-0.027382,0.101778,2025-02-27T19:15:38.919-06:00
42.000000,263.235974,0.662481,7.258512,44.939044,290.645974,0.283038,2.000000,3.000000,-93.166956,10.613337,2025-02-27T19:15:39.999-06:00,-0.260792,-0.950410,-0.034696,2025-02-27T19:15:39.923-06:00,0.367804,0.033378,0.001944,2025-02-27T19:15:39.924-06:00
43.000000,262.822902,0.661461,7.258113,44.939148,290.232901,0.225612,2.000000,3.000000,-93.166955,11.131020,2025-02-27T19:15:40.999-06:00,-0.308588,-0.950059,-0.043867,2025-02-27T19:15:40.917-06:00,-0.070418,0.026758,-0.070389,2025-02-27T19:15:40.919-06:00
44.000000,262.613625,0.662263,7.258046,44.939248,290.023625,0.225612,2.000000,3.000000,-93.166951,11.135427,2025-02-27T19:15:41.999-06:00,-0.309581,-0.951367,-0.037516,2025-02-27T19:15:41.922-06:00,-0.091406,0.019130,-0.053970,2025-02-27T19:15:41.923-06:00
45.000000,262.348942,0.665995,7.257009,44.939346,289.758942,0.225593,2.000000,3.000000,-93.166949,10.936818,2025-02-27T19:15:42.999-06:00,-0.324028,-0.941541,-0.030096,2025-02-27T19:15:42.917-06:00,-0.234921,0.117562,-0.029961,2025-02-27T19:15:42.918-06:00
46.000000,262.052285,0.668858,7.254140,44.939441,289.462284,359.584442,2.000000,3.000000,-93.166949,10.701150,2025-02-27T19:15:43.999-06:00,-0.353056,-0.940335,-0.039089,2025-02-27T19:15:43.921-06:00,-0.464956,0.112208,-0.126043,2025-02-27T19:15:43.922-06:00
47.000000,262.013816,0.656719,7.254991,44.939530,289.423816,0.658928,2.000000,3.000000,-93.166946,10.221971,2025-02-27T19:15:44.999-06:00,-0.359152,-0.922217,-0.029900,2025-02-27T19:15:44.916-06:00,-0.519644,0.289226,-0.078728,2025-02-27T19:15:44.917-06:00
48.000000,261.919338,0.656634,7.257483,44.939614,289.329338,0.384011,2.000000,3.000000,-93.166947,9.546411,2025-02-27T19:15:45.999-06:00,-0.386956,-0.936493,-0.045549,2025-02-27T19:15:45.920-06:00,-0.730593,0.129516,-0.245529,2025-02-27T19:15:45.922-06:00
49.000000,261.632298,0.666318,7.253454,44.939688,289.042298,359.853783,2.000000,3.000000,-93.166948,8.647314,2025-02-27T19:15:46.999-06:00,-0.384750,-0.923564,-0.046422,2025-02-27T19:15:46.915-06:00,-0.742553,0.267486,-0.266108,2025-02-27T19:15:46.916-06:00
50.000000,261.530923,0.665302,7.256887,44.939755,288.940923,0.171088,2.000000,3.000000,-93.166947,7.755806,2025-02-27T19:15:47.999-06:00,-0.383562,-0.925667,-0.044853,2025-02-27T19:15:47.920-06:00,-0.690901,0.244088,-0.244978,2025-02-27T19:15:47.921-06:00
51.000000,261.642386,0.667285,8.149847,44.939810,289.052386,0.000000,2.000000,3.000000,-93.166947,6.633608,2025-02-27T19:15:48.999-06:00,-0.394411,-0.924894,-0.042427,2025-02-27T19:15:48.924-06:00,-0.624609,0.173040,-0.207986,2025-02-27T19:15:48.915-06:00
52.000000,261.510474,0.664805,9.503749,44.939858,288.920474,0.000000,2.000000,3.000000,-93.166947,5.658518,2025-02-27T19:15:49.999-06:00,-0.381917,-0.928170,-0.047854,2025-02-27T19:15:49.919-06:00,-0.552038,0.166015,-0.177949,2025-02-27T19:15:49.920-06:00
53.000000,262.078163,0.731049,10.130417,44.939913,289.488163,0.000000,2.073982,3.000000,-93.166945,5.761280,2025-02-27T19:15:50.999-06:00,-0.425351,-0.914604,-0.064659,2025-02-27T19:15:50.923-06:00,-0.876536,0.259987,-0.275453,2025-02-27T19:15:50.915-06:00
54.000000,261.645714,0.713993,15.832057,44.939930,289.055713,0.000000,2.061652,3.000000,-93.166946,3.635717,2025-02-27T19:15:51.999-06:00,-0.403052,-0.922227,-0.058882,2025-02-27T19:15:51.918-06:00,-0.626839,0.174321,-0.212749,2025-02-27T19:15:51.919-06:00
55.000000,261.780892,0.684688,26.866242,44.939942,289.190892,0.000000,2.118861,3.000000,-93.166946,2.059498,2025-02-27T19:15:52.999-06:00,-0.355901,-0.934996,-0.043063,2025-02-27T19:15:52.923-06:00,-0.141571,0.040817,-0.057742,2025-02-27T19:15:52.924-06:00
56.000000,261.970011,0.689300,60.809136,44.939945,289.380011,0.000000,2.126857,3.000000,-93.166946,0.885788,2025-02-27T19:15:53.999-06:00,-0.312772,-0.948562,-0.028837,2025-02-27T19:15:53.917-06:00,0.289646,-0.095177,0.080553,2025-02-27T19:15:53.918-06:00
57.000000,262.087927,0.894722,180.000000,44.939945,289.497927,0.000000,2.124568,3.000000,-93.166947,0.199813,2025-02-27T19:15:54.999-06:00,-0.281862,-0.956322,-0.019825,2025-02-27T19:15:54.922-06:00,0.530633,-0.148224,0.151544,2025-02-27T19:15:54.923-06:00
58.000000,262.157458,0.913667,180.000000,44.939943,289.567458,0.000000,2.275828,3.000000,-93.166948,0.026028,2025-02-27T19:15:55.999-06:00,-0.282738,-0.956792,-0.019510,2025-02-27T19:15:55.916-06:00,0.517252,-0.151036,0.152864,2025-02-27T19:15:55.918-06:00
59.000000,262.231820,0.913707,180.000000,44.939943,289.641820,0.000000,2.284416,3.000000,-93.166948,0.044748,2025-02-27T19:15:56.999-06:00,-0.282742,-0.956746,-0.019859,2025-02-27T19:15:56.921-06:00,0.527011,-0.154124,0.150882,2025-02-27T19:15:56.922-06:00
60.000000,262.243036,0.915053,180.000000,44.939942,289.653035,0.000000,2.469600,3.000000,-93.166949,0.018103,2025-02-27T19:15:57.999-06:00,-0.282483,-0.956628,-0.019748,2025-02-27T19:15:57.916-06:00,0.513399,-0.146993,0.146328,2025-02-27T19:15:57.917-06:00
61.000000,262.219658,0.910543,180.000000,44.939941,289.629658,0.000000,2.611211,3.000000,-93.166950,0.007273,2025-02-27T19:15:58.999-06:00,-0.282231,-0.956646,-0.019822,2025-02-27T19:15:58.920-06:00,0.494500,-0.139302,0.137451,2025-02-27T19:15:58.921-06:00
62.000000,262.275700,0.909175,180.000000,44.939942,289.685700,0.000000,2.682551,3.000000,-93.166949,0.019351,2025-02-27T19:15:59.999-06:00,-0.282826,-0.956486,-0.019834,2025-02-27T19:15:59.915-06:00,0.468705,-0.130437,0.129413,2025-02-27T19:15:59.916-06:00
63.000000,262.351978,0.905439,180.000000,44.939943,289.761978,0.000000,2.681595,3.000000,-93.166949,0.015050,2025-02-27T19:16:00.999-06:00,-0.282117,-0.956855,-0.019585,2025-02-27T19:16:00.919-06:00,0.450620,-0.125967,0.126159,2025-02-27T19:16:00.921-06:00
64.000000,262.374895,0.906503,180.000000,44.939944,289.784895,0.000000,2.716606,3.000000,-93.166948,0.017845,2025-02-27T19:16:01.999-06:00,-0.282621,-0.956558,-0.019735,2025-02-27T19:16:01.924-06:00,0.427779,-0.114831,0.114355,2025-02-27T19:16:01.915-06:00
65.000000,262.460636,0.919346,180.000000,44.939944,289.870636,0.000000,2.693709,3.000000,-93.166949,0.039892,2025-02-27T19:16:02.999-06:00,-0.282673,-0.956680,-0.019698,2025-02-27T19:16:02.919-06:00,0.401535,-0.106862,0.107713,2025-02-27T19:16:02.920-06:00
66.000000,262.453117,0.902738,180.000000,44.939945,289.863117,0.000000,2.655170,3.000000,-93.166949,0.000000,2025-02-27T19:16:03.999-06:00,-0.282475,-0.956545,-0.019921,2025-02-27T19:16:03.923-06:00,0.355752,-0.090905,0.096291,2025-02-27T19:16:03.915-06:00
67.000000,262.453117,0.899104,180.000000,44.939945,289.863117,0.000000,2.633470,3.000000,-93.166949,0.000000,2025-02-27T19:16:04.999-06:00,-0.282120,-0.956665,-0.019743,2025-02-27T19:16:04.918-06:00,0.313655,-0.075452,0.082215,2025-02-27T19:16:04.919-06:00
68.000000,262.453117,0.907790,180.000000,44.939945,289.863117,0.000000,2.601797,3.000000,-93.166949,0.000000,2025-02-27T19:16:05.999-06:00,-0.282676,-0.956632,-0.019742,2025-02-27T19:16:05.922-06:00,0.286195,-0.067657,0.075168,2025-02-27T19:16:05.924-06:00
69.000000,262.453117,0.904746,180.000000,44.939945,289.863117,0.000000,2.571707,3.000000,-93.166949,0.000000,2025-02-27T19:16:06.999-06:00,-0.282787,-0.956588,-0.019496,2025-02-27T19:16:06.917-06:00,0.273156,-0.063196,0.073334,2025-02-27T19:16:06.918-06:00
70.000000,262.453117,0.907314,180.000000,44.939945,289.863117,0.000000,2.543121,3.000000,-93.166949,0.000000,2025-02-27T19:16:07.999-06:00,-0.282516,-0.956691,-0.019879,2025-02-27T19:16:07.922-06:00,0.263771,-0.060132,0.064707,2025-02-27T19:16:07.923-06:00
71.000000,262.453117,0.903412,180.000000,44.939945,289.863117,0.000000,2.515965,3.000000,-93.166949,0.000000,2025-02-27T19:16:08.999-06:00,-0.282428,-0.956585,-0.019788,2025-02-27T19:16:08.916-06:00,0.251936,-0.054844,0.061111,2025-02-27T19:16:08.917-06:00
72.000000,262.453117,0.868879,180.000000,44.939945,289.863117,0.000000,2.490167,3.000000,-93.166949,0.000000,2025-02-27T19:16:09.999-06:00,-0.282466,-0.956832,-0.019953,2025-02-27T19:16:09.921-06:00,0.238446,-0.052911,0.055183,2025-02-27T19:16:09.922-06:00
73.000000,262.453117,0.861081,180.000000,44.939945,289.863117,0.000000,2.502969,3.000000,-93.166949,0.000000,2025-02-27T19:16:10.999-06:00,-0.282756,-0.956614,-0.019406,2025-02-27T19:16:10.915-06:00,0.222288,-0.046375,0.056134,2025-02-27T19:16:10.917-06:00
74.000000,262.453117,0.867530,180.000000,44.939945,289.863117,0.000000,2.477821,3.000000,-93.166949,0.000000,2025-02-27T19:16:11.999-06:00,-0.282667,-0.956657,-0.019947,2025-02-27T19:16:11.920-06:00,0.211533,-0.042979,0.047333,2025-02-27T19:16:11.921-06:00
75.000000,262.453117,0.866802,180.000000,44.939945,289.863117,0.000000,2.475683,3.000000,-93.166949,0.000000,2025-02-27T19:16:12.999-06:00,-0.278680,-0.957774,-0.018286,2025-02-27T19:16:12.915-06:00,0.237608,-0.049663,0.058681,2025-02-27T19:16:12.916-06:00
76.000000,262.453117,0.865548,180.000000,44.939945,289.863117,0.000000,2.522562,3.000000,-93.166949,0.000000,2025-02-27T19:16:13.999-06:00,-0.236437,-0.969832,-0.005345,2025-02-27T19:16:13.919-06:00,0.582495,-0.144918,0.163870,2025-02-27T19:16:13.920-06:00
77.000000,262.583338,0.968006,180.000000,44.939942,289.993338,0.000000,2.520413,3.000000,-93.166952,0.134276,2025-02-27T19:16:14.999-06:00,-0.147626,-0.994368,0.025142,2025-02-27T19:16:14.924-06:00,1.379094,-0.363576,0.415615,2025-02-27T19:16:14.915-06:00
78.000000,262.671437,0.657219,68.542286,44.939950,290.081437,0.000000,2.552610,3.000000,-93.166952,0.761518,2025-02-27T19:16:15.999-06:00,-0.107227,-1.008060,0.041454,2025-02-27T19:16:15.918-06:00,1.708350,-0.476325,0.526025,2025-02-27T19:16:15.920-06:00
79.000000,262.674773,0.649848,22.504223,44.939976,290.084773,0.000000,2.524980,3.000000,-93.166952,2.334117,2025-02-27T19:16:16.999-06:00,-0.141664,-0.997182,0.037735,2025-02-27T19:16:16.923-06:00,1.238403,-0.331097,0.369906,2025-02-27T19:16:16.924-06:00
80.000000,261.675677,0.727777,10.427507,44.940040,289.085677,0.000000,2.498731,3.000000,-93.166954,5.351339,2025-02-27T19:16:17.999-06:00,-0.179062,-0.993259,0.026790,2025-02-27T19:16:17.918-06:00,0.751389,-0.260169,0.244443,2025-02-27T19:16:17.919-06:00
81.000000,261.903630,0.661576,10.130794,44.940076,289.313629,0.000000,2.473794,3.000000,-93.166952,5.269241,2025-02-27T19:16:18.999-06:00,-0.175602,-0.975226,0.000524,2025-02-27T19:16:18.922-06:00,0.691220,-0.059771,0.141688,2025-02-27T19:16:18.923-06:00
82.000000,262.002202,0.657968,8.597359,44.940135,289.412201,0.195503,2.450105,3.000000,-93.166953,6.200878,2025-02-27T19:16:19.999-06:00,-0.201841,-0.968865,0.005378,2025-02-27T19:16:19.917-06:00,0.607936,-0.042989,0.155288,2025-02-27T19:16:19.918-06:00
83.000000,259.290817,0.785529,7.363691,44.940200,286.700817,0.195503,2.426282,3.000000,-93.166937,6.935753,2025-02-27T19:16:20.999-06:00,-0.230268,-0.977543,0.010850,2025-02-27T19:16:20.921-06:00,0.341345,-0.130685,0.081120,2025-02-27T19:16:20.923-06:00
84.000000,260.336924,0.718678,7.218657,44.940279,287.746924,0.195503,2.350218,3.000000,-93.166944,8.028069,2025-02-27T19:16:21.999-06:00,-0.241082,-0.971529,0.000875,2025-02-27T19:16:21.916-06:00,0.121280,-0.041178,-0.033682,2025-02-27T19:16:21.917-06:00
85.000000,260.667665,0.685388,7.256708,44.940362,288.077665,0.195503,2.256664,3.000000,-93.166947,8.695235,2025-02-27T19:16:22.999-06:00,-0.278243,-0.962716,-0.005994,2025-02-27T19:16:22.921-06:00,-0.276696,0.053806,-0.132809,2025-02-27T19:16:22.922-06:00
86.000000,260.932737,0.670164,7.258503,44.940445,288.342737,0.195503,2.175437,3.000000,-93.166944,9.177241,2025-02-27T19:16:23.999-06:00,-0.301805,-0.946782,-0.013995,2025-02-27T19:16:23.915-06:00,-0.524625,0.214725,-0.153398,2025-02-27T19:16:23.917-06:00
87.000000,261.077711,0.677317,7.258758,44.940527,288.487710,0.195503,2.161180,3.000000,-93.166943,9.188608,2025-02-27T19:16:24.999-06:00,-0.304983,-0.952249,-0.014617,2025-02-27T19:16:24.920-06:00,-0.552699,0.160272,-0.155378,2025-02-27T19:16:24.921-06:00
88.000000,260.884795,0.663283,7.257021,44.940608,288.294795,0.195503,2.102919,3.000000,-93.166943,9.086247,2025-02-27T19:16:25.999-06:00,-0.280356,-0.941924,0.002500,2025-02-27T19:16:25.915-06:00,-0.252303,0.245637,-0.051964,2025-02-27T19:16:25.916-06:00
89.000000,260.925359,0.677150,7.256381,44.940686,288.335359,0.195503,2.066682,3.000000,-93.166942,8.822094,2025-02-27T19:16:26.999-06:00,-0.305102,-0.959876,0.017002,2025-02-27T19:16:26.919-06:00,-0.412056,0.053954,-0.058228,2025-02-27T19:16:26.920-06:00
90.000000,260.736141,0.675334,7.253930,44.940766,288.146141,359.438293,2.259293,3.000000,-93.166945,8.903844,2025-02-27T19:16:27.999-06:00,-0.301711,-0.953883,0.007674,2025-02-27T19:16:27.924-06:00,-0.396044,0.100003,-0.119639,2025-02-27T19:16:27.915-06:00
91.000000,260.671302,0.682471,7.253434,44.940845,288.081302,359.107178,2.486382,3.000000,-93.166943,8.880374,2025-02-27T19:16:28.999-06:00,-0.305452,-0.944135,-0.003972,2025-02-27T19:16:28.918-06:00,-0.415689,0.201178,-0.187411,2025-02-27T19:16:28.920-06:00
92.000000,260.273395,0.681600,7.242168,44.940923,287.683395,359.107178,2.316720,3.000000,-93.166944,8.763158,2025-02-27T19:16:29.999-06:00,-0.290956,-0.957520,0.008707,2025-02-27T19:16:29.923-06:00,-0.231455,0.058004,-0.082000,2025-02-27T19:16:29.924-06:00
93.000000,260.161191,0.679514,7.248625,44.940999,287.571191,359.107178,2.208346,3.000000,-93.166946,8.678090,2025-02-27T19:16:30.999-06:00,-0.275756,-0.958214,0.021163,2025-02-27T19:16:30.918-06:00,-0.072156,0.046640,-0.040260,2025-02-27T19:16:30.919-06:00
94.000000,260.273208,0.670818,7.257403,44.941073,287.683208,0.206405,2.138623,3.000000,-93.166951,8.500654,2025-02-27T19:16:31.999-06:00,-0.262369,-0.971110,0.020485,2025-02-27T19:16:31.922-06:00,0.074689,-0.083279,-0.008824,2025-02-27T19:16:31.923-06:00
95.000000,260.126458,0.672931,7.256702,44.941152,287.536458,0.206405,2.091621,3.000000,-93.166950,8.686025,2025-02-27T19:16:32.999-06:00,-0.251852,-0.968698,0.030076,2025-02-27T19:16:32.917-06:00,0.198119,-0.068501,-0.020040,2025-02-27T19:16:32.918-06:00
96.000000,260.107826,0.660664,7.257897,44.941236,287.517826,0.206405,2.059051,3.000000,-93.166950,9.080653,2025-02-27T19:16:33.999-06:00,-0.243032,-0.960087,0.028175,2025-02-27T19:16:33.921-06:00,0.102027,0.067884,0.101065,2025-02-27T19:16:33.923-06:00
97.000000,260.232788,0.662707,7.258748,44.941322,287.642788,0.206405,2.037444,3.000000,-93.166950,9.383463,2025-02-27T19:16:34.999-06:00,-0.244460,-0.981503,0.013561,2025-02-27T19:16:34.916-06:00,0.209259,-0.173459,0.034262,2025-02-27T19:16:34.917-06:00
98.000000,260.264001,0.664567,7.258964,44.941412,287.674001,0.000000,2.023394,3.000000,-93.166949,9.840431,2025-02-27T19:16:35.999-06:00,-0.238663,-0.952967,0.009765,2025-02-27T19:16:35.921-06:00,0.120142,0.146552,0.070157,2025-02-27T19:16:35.922-06:00
99.000000,259.825677,0.791054,7.256520,44.941505,287.235676,0.000000,2.014172,3.000000,-93.166953,10.209366,2025-02-27T19:16:36.999-06:00,-0.236125,-0.948638,-0.021030,2025-02-27T19:16:36.915-06:00,0.280476,0.152263,-0.042825,2025-02-27T19:16:36.916-06:00
