seconds_elapsed,location_altitude,location_speedAccuracy,location_bearingAccuracy,location_latitude,location_altitudeAboveMeanSeaLevel,location_bearing,location_horizontalAccuracy,location_verticalAccuracy,location_longitude,location_speed,location_local_time,accelerometerUncalibrated_z,accelerometerUncalibrated_y,accelerometerUncalibrated_x,accelerometerUncalibrated_local_time,accelerometer_z,accelerometer_y,accelerometer_x,accelerometer_local_time
0.000000,265.477633,-1.000000,-1.000000,44.941308,292.887633,-1.000000,618.298806,3.000000,-93.166786,-1.000000,2025-02-27T19:05:48.133-06:00,-0.200272,-0.987745,0.026831,2025-02-27T19:05:48.100-06:00,0.670675,-0.249768,0.186090,2025-02-27T19:05:48.106-06:00
1.000000,256.413330,2.500000,46.301644,44.941552,283.823330,356.484375,6.530797,8.000000,-93.166924,7.010000,2025-02-27T19:05:49.999-06:00,-0.212550,-0.990750,0.016656,2025-02-27T19:05:49.085-06:00,0.380732,-0.202976,0.115008,2025-02-27T19:05:49.081-06:00
2.000000,260.660461,0.970000,5.724543,44.941511,288.070461,270.000000,3.716155,3.000000,-93.167138,7.010000,2025-02-27T19:05:50.999-06:00,-0.250291,-0.950077,-0.004023,2025-02-27T19:05:50.089-06:00,-0.036508,0.181035,-0.010084,2025-02-27T19:05:50.085-06:00
3.000000,259.244873,0.970000,5.435395,44.941514,286.654873,270.000000,3.535534,3.000000,-93.167239,9.050000,2025-02-27T19:05:51.999-06:00,-0.256609,-0.943600,0.003543,2025-02-27T19:05:51.084-06:00,-0.040430,0.236840,0.027150,2025-02-27T19:05:51.080-06:00
4.000000,259.319763,0.080000,0.525546,44.941515,286.729763,269.296875,3.535534,3.000000,-93.167369,10.100000,2025-02-27T19:05:52.999-06:00,-0.287054,-0.963697,-0.000089,2025-02-27T19:05:52.088-06:00,-0.172298,-0.017848,-0.053030,2025-02-27T19:05:52.085-06:00
5.000000,259.007446,0.080000,0.509184,44.941521,286.417446,268.945312,3.535534,3.000000,-93.167492,10.390000,2025-02-27T19:05:53.999-06:00,-0.279823,-0.952171,0.026103,2025-02-27T19:05:53.083-06:00,-0.164708,0.128951,0.106403,2025-02-27T19:05:53.089-06:00
6.000000,258.997498,0.100000,0.611269,44.941519,286.407497,268.593750,3.535534,3.000000,-93.167624,10.390000,2025-02-27T19:05:54.999-06:00,-0.265270,-0.960883,0.018554,2025-02-27T19:05:54.088-06:00,0.007518,0.023316,0.055402,2025-02-27T19:05:54.084-06:00
7.000000,258.124756,0.180000,1.078606,44.941520,285.534756,268.945312,3.535534,3.000000,-93.167763,10.910000,2025-02-27T19:05:55.999-06:00,-0.249960,-0.969503,0.000261,2025-02-27T19:05:55.082-06:00,0.101242,-0.039365,-0.087613,2025-02-27T19:05:55.089-06:00
8.000000,257.861267,0.570000,3.148812,44.941516,285.271267,268.593750,3.535534,3.000000,-93.167913,11.820000,2025-02-27T19:05:56.999-06:00,-0.254676,-0.959843,0.000830,2025-02-27T19:05:56.087-06:00,0.089873,0.044898,-0.093643,2025-02-27T19:05:56.083-06:00
9.000000,257.795288,0.540000,2.752316,44.941514,285.205288,269.296875,3.535534,3.000000,-93.168063,12.780000,2025-02-27T19:05:57.999-06:00,-0.260375,-0.969795,0.003601,2025-02-27T19:05:57.082-06:00,0.010905,-0.040949,-0.032861,2025-02-27T19:05:57.088-06:00
10.000000,257.271729,0.190000,0.986296,44.941517,284.681728,270.351562,3.535534,3.000000,-93.168225,12.780000,2025-02-27T19:05:58.999-06:00,-0.273528,-0.953449,0.000522,2025-02-27T19:05:58.086-06:00,-0.123713,0.111121,-0.045034,2025-02-27T19:05:58.082-06:00
11.000000,256.704346,0.090000,0.444535,44.941519,284.114346,270.000000,3.535534,3.000000,-93.168387,12.990000,2025-02-27T19:05:59.999-06:00,-0.295685,-0.952219,0.003004,2025-02-27T19:05:59.081-06:00,-0.283952,0.125182,0.000127,2025-02-27T19:05:59.087-06:00
12.000000,256.704359,0.308016,7.258975,44.941519,284.114359,270.081268,4.748652,4.029364,-93.168551,12.990000,2025-02-27T19:06:00.999-06:00,-0.281419,-0.957176,-0.022916,2025-02-27T19:06:00.085-06:00,-0.193354,0.066411,-0.207157,2025-02-27T19:06:00.082-06:00
13.000000,256.348036,0.308016,7.258975,44.941510,283.758036,270.081268,4.748652,4.029364,-93.168720,13.280000,2025-02-27T19:06:01.999-06:00,-0.276145,-0.960457,-0.016153,2025-02-27T19:06:01.080-06:00,-0.152315,0.066484,-0.117947,2025-02-27T19:06:01.086-06:00
14.000000,255.272719,1.030000,7.258975,44.941525,282.682719,270.081268,4.748652,4.029364,-93.168882,13.310000,2025-02-27T19:06:02.999-06:00,-0.281331,-0.961304,-0.015051,2025-02-27T19:06:02.085-06:00,-0.154805,0.017457,-0.123177,2025-02-27T19:06:02.081-06:00
15.000000,254.840285,0.420000,7.258975,44.941517,282.250285,270.081268,4.748652,4.029364,-93.169061,13.310000,2025-02-27T19:06:03.999-06:00,-0.291781,-0.975260,-0.002274,2025-02-27T19:06:03.089-06:00,-0.326619,-0.096468,-0.091934,2025-02-27T19:06:03.086-06:00
16.000000,254.405594,0.308017,7.258975,44.941519,281.815594,270.155579,4.748652,4.029364,-93.169248,14.120000,2025-02-27T19:06:04.999-06:00,-0.280748,-0.957661,-0.013733,2025-02-27T19:06:04.084-06:00,-0.214323,0.073723,-0.128572,2025-02-27T19:06:04.080-06:00
17.000000,254.315690,0.440000,7.258975,44.941519,281.725689,270.155579,4.748652,4.029364,-93.169431,14.180000,2025-02-27T19:06:05.999-06:00,-0.284353,-0.956581,0.002870,2025-02-27T19:06:05.089-06:00,-0.298126,0.107881,-0.074105,2025-02-27T19:06:05.085-06:00
18.000000,254.287919,1.460000,8.136284,44.941523,281.697919,270.155579,4.748652,4.029364,-93.169620,14.540000,2025-02-27T19:06:06.999-06:00,-0.279653,-0.960644,0.010947,2025-02-27T19:06:06.083-06:00,-0.221120,0.055057,-0.066219,2025-02-27T19:06:06.089-06:00
19.000000,254.217973,1.110000,7.258975,44.941525,281.627972,270.101074,4.748652,4.029364,-93.169798,14.260000,2025-02-27T19:06:07.999-06:00,-0.296168,-0.951334,0.003677,2025-02-27T19:06:07.088-06:00,-0.268820,0.114994,-0.083861,2025-02-27T19:06:07.084-06:00
20.000000,254.275285,2.140000,12.117465,44.941519,281.685284,270.101074,4.748652,4.029364,-93.169979,14.310000,2025-02-27T19:06:08.999-06:00,-0.287059,-0.959862,0.020352,2025-02-27T19:06:08.082-06:00,-0.206144,0.035776,-0.002020,2025-02-27T19:06:08.089-06:00
21.000000,253.828202,1.140000,7.258975,44.941527,281.238202,270.101074,4.748652,4.029364,-93.170163,14.460000,2025-02-27T19:06:09.999-06:00,-0.288395,-0.953550,0.013162,2025-02-27T19:06:09.087-06:00,-0.255050,0.112376,-0.014988,2025-02-27T19:06:09.083-06:00
22.000000,254.464067,0.370000,7.258975,44.941523,281.874067,270.101074,4.748652,4.029364,-93.170352,14.640000,2025-02-27T19:06:10.999-06:00,-0.292258,-0.954452,0.006443,2025-02-27T19:06:10.082-06:00,-0.234094,0.083080,-0.050816,2025-02-27T19:06:10.088-06:00
23.000000,253.890580,0.308016,7.258975,44.941524,281.300580,270.101074,4.748652,4.029364,-93.170530,14.460000,2025-02-27T19:06:11.999-06:00,-0.284822,-0.951613,0.009744,2025-02-27T19:06:11.086-06:00,-0.172117,0.118550,-0.087188,2025-02-27T19:06:11.083-06:00
24.000000,253.846513,0.308016,7.258975,44.941521,281.256513,270.000000,4.748652,4.029364,-93.170716,14.510000,2025-02-27T19:06:12.999-06:00,-0.284051,-0.960979,0.004838,2025-02-27T19:06:12.081-06:00,-0.155563,0.031944,-0.048360,2025-02-27T19:06:12.087-06:00
25.000000,253.354508,0.308016,7.258975,44.941517,280.764508,269.999872,4.748652,4.029364,-93.170897,14.260000,2025-02-27T19:06:13.999-06:00,-0.253431,-0.956740,-0.004274,2025-02-27T19:06:13.085-06:00,0.100530,0.066734,0.008078,2025-02-27T19:06:13.082-06:00
26.000000,253.263628,0.500000,7.258975,44.941515,280.673628,269.999868,4.748652,4.029364,-93.171091,14.780000,2025-02-27T19:06:14.999-06:00,-0.247214,-0.965642,0.003525,2025-02-27T19:06:14.080-06:00,0.265080,-0.035112,0.035988,2025-02-27T19:06:14.086-06:00
27.000000,253.203386,0.780000,7.258975,44.941514,280.613386,269.999868,4.748652,4.029364,-93.171286,14.780000,2025-02-27T19:06:15.999-06:00,-0.258713,-0.970654,0.004359,2025-02-27T19:06:15.085-06:00,0.123631,-0.082511,-0.038123,2025-02-27T19:06:15.081-06:00
28.000000,253.192767,0.308017,7.258975,44.941506,280.602767,268.945177,4.748652,4.029364,-93.171490,15.110000,2025-02-27T19:06:16.999-06:00,-0.286278,-0.955506,-0.005840,2025-02-27T19:06:16.089-06:00,-0.152105,0.092429,-0.071394,2025-02-27T19:06:16.086-06:00
29.000000,253.022053,0.308017,7.258975,44.941511,280.432052,270.052643,4.748652,4.029364,-93.171697,15.540000,2025-02-27T19:06:17.999-06:00,-0.285453,-0.954745,-0.003888,2025-02-27T19:06:17.084-06:00,-0.141054,0.063830,-0.058570,2025-02-27T19:06:17.080-06:00
30.000000,252.944477,0.308017,7.258975,44.941510,280.354477,270.052643,4.748652,4.029364,-93.171892,15.610000,2025-02-27T19:06:18.999-06:00,-0.280012,-0.957719,-0.002267,2025-02-27T19:06:18.089-06:00,-0.051062,0.008356,-0.030717,2025-02-27T19:06:18.085-06:00
31.000000,252.851765,0.308017,7.258975,44.941512,280.261765,270.052643,4.748652,4.029364,-93.172093,15.610000,2025-02-27T19:06:19.999-06:00,-0.275716,-0.948386,-0.001120,2025-02-27T19:06:19.083-06:00,-0.034167,0.147793,-0.037066,2025-02-27T19:06:19.080-06:00
32.000000,254.274879,1.271609,7.258968,44.941505,281.684879,270.068512,2.000000,3.000000,-93.172286,15.683364,2025-02-27T19:06:20.999-06:00,-0.290320,-0.969397,0.002180,2025-02-27T19:06:20.088-06:00,-0.157393,-0.069820,-0.018009,2025-02-27T19:06:20.084-06:00
33.000000,254.152030,1.274322,7.258966,44.941504,281.562030,270.068512,2.016306,3.000000,-93.172489,15.761461,2025-02-27T19:06:21.999-06:00,-0.277174,-0.955775,-0.001377,2025-02-27T19:06:21.082-06:00,-0.050428,0.067094,-0.012366,2025-02-27T19:06:21.089-06:00
34.000000,254.209266,1.275754,7.258972,44.941504,281.619265,270.068512,2.559324,3.000000,-93.172690,15.822047,2025-02-27T19:06:22.999-06:00,-0.282878,-0.948552,-0.002438,2025-02-27T19:06:22.087-06:00,-0.055802,0.116438,-0.020616,2025-02-27T19:06:22.083-06:00
35.000000,254.045900,1.276862,7.258966,44.941506,281.455900,270.068512,2.251019,3.000000,-93.172893,15.863740,2025-02-27T19:06:23.999-06:00,-0.298701,-0.960322,-0.008932,2025-02-27T19:06:23.082-06:00,-0.189087,-0.010321,-0.112853,2025-02-27T19:06:23.088-06:00
36.000000,253.875489,0.658896,7.258655,44.941515,281.285489,270.068512,2.221674,3.000000,-93.173094,15.731827,2025-02-27T19:06:24.999-06:00,-0.323123,-0.951031,-0.011672,2025-02-27T19:06:24.086-06:00,-0.438106,0.100215,-0.168151,2025-02-27T19:06:24.083-06:00
37.000000,253.662497,0.666995,7.258627,44.941518,281.072496,270.068512,2.178743,3.000000,-93.173286,15.319384,2025-02-27T19:06:25.999-06:00,-0.320099,-0.937421,-0.014031,2025-02-27T19:06:25.081-06:00,-0.398227,0.201126,-0.157490,2025-02-27T19:06:25.087-06:00
38.000000,253.583393,0.664383,7.258916,44.941519,280.993393,270.324332,2.080165,3.000000,-93.173475,15.056638,2025-02-27T19:06:26.999-06:00,-0.298756,-0.933657,-0.011594,2025-02-27T19:06:26.086-06:00,-0.156243,0.269523,-0.053774,2025-02-27T19:06:26.082-06:00
39.000000,253.470898,0.671781,7.258748,44.941518,280.880898,270.302819,2.187987,3.000000,-93.173664,14.931201,2025-02-27T19:06:27.999-06:00,-0.299643,-0.962004,-0.011836,2025-02-27T19:06:27.080-06:00,-0.058349,-0.063653,-0.110315,2025-02-27T19:06:27.086-06:00
40.000000,253.099737,0.665312,7.258542,44.941523,280.509737,270.915008,2.485251,3.000000,-93.173850,14.760346,2025-02-27T19:06:28.999-06:00,-0.273901,-0.959834,-0.063398,2025-02-27T19:06:28.085-06:00,0.141867,-0.027870,-0.609286,2025-02-27T19:06:28.081-06:00
41.000000,252.646894,0.709408,7.257136,44.941531,280.056894,273.107789,2.223488,3.000000,-93.174034,14.636377,2025-02-27T19:06:29.999-06:00,-0.257260,-0.964395,-0.143955,2025-02-27T19:06:29.089-06:00,0.361531,-0.085020,-1.353667,2025-02-27T19:06:29.086-06:00
42.000000,252.429377,0.723500,7.257546,44.941558,279.839377,288.079773,2.368848,3.000000,-93.174218,14.660621,2025-02-27T19:06:30.999-06:00,-0.281556,-0.956110,-0.111678,2025-02-27T19:06:30.084-06:00,0.056027,0.017449,-1.098166,2025-02-27T19:06:30.080-06:00
43.000000,252.601564,0.692236,7.258965,44.941590,280.011563,282.646790,2.211574,3.000000,-93.174398,14.549443,2025-02-27T19:06:31.999-06:00,-0.323511,-0.930163,-0.035768,2025-02-27T19:06:31.089-06:00,-0.352750,0.259443,0.034000,2025-02-27T19:06:31.085-06:00
44.000000,252.321885,0.696920,7.258784,44.941621,279.731885,280.326508,2.098741,3.000000,-93.174570,14.228972,2025-02-27T19:06:32.999-06:00,-0.330121,-0.958144,0.016567,2025-02-27T19:06:32.083-06:00,-0.499301,0.013568,0.797052,2025-02-27T19:06:32.080-06:00
45.000000,252.045667,0.677907,7.258436,44.941638,279.455667,274.214600,2.046697,3.000000,-93.174745,13.983613,2025-02-27T19:06:33.999-06:00,-0.317888,-0.953300,0.040991,2025-02-27T19:06:33.088-06:00,-0.341004,0.033674,0.973996,2025-02-27T19:06:33.084-06:00
46.000000,251.687354,0.679952,7.257617,44.941651,279.097354,271.209076,2.022512,3.000000,-93.174915,13.667421,2025-02-27T19:06:34.999-06:00,-0.298617,-0.945739,0.037408,2025-02-27T19:06:34.083-06:00,-0.092506,0.105572,0.837367,2025-02-27T19:06:34.089-06:00
47.000000,251.526317,0.667865,7.257826,44.941650,278.936317,270.000000,2.620896,3.000000,-93.175096,13.893226,2025-02-27T19:06:35.999-06:00,-0.296354,-0.960526,0.008075,2025-02-27T19:06:35.087-06:00,-0.070292,-0.048372,0.579731,2025-02-27T19:06:35.083-06:00
48.000000,251.134995,0.686525,7.256956,44.941652,278.544995,270.000000,2.793944,3.000000,-93.175268,13.724836,2025-02-27T19:06:36.999-06:00,-0.276372,-0.949698,-0.034258,2025-02-27T19:06:36.082-06:00,0.100682,0.040337,0.167449,2025-02-27T19:06:36.088-06:00
49.000000,251.190423,0.691658,7.258438,44.941649,278.600423,270.000000,2.527292,3.000000,-93.175448,13.933915,2025-02-27T19:06:37.999-06:00,-0.274319,-0.953133,-0.036713,2025-02-27T19:06:37.086-06:00,0.126076,0.062187,0.111622,2025-02-27T19:06:37.083-06:00
50.000000,250.941567,0.672295,7.257901,44.941646,278.351566,270.000000,2.466412,3.000000,-93.175628,14.065065,2025-02-27T19:06:38.999-06:00,-0.278059,-0.959030,-0.040212,2025-02-27T19:06:38.081-06:00,0.164327,-0.034429,-0.000005,2025-02-27T19:06:38.087-06:00
51.000000,250.710503,0.671736,7.257409,44.941645,278.120502,270.000000,2.851918,3.000000,-93.175807,14.103075,2025-02-27T19:06:39.999-06:00,-0.291598,-0.960879,-0.051394,2025-02-27T19:06:39.086-06:00,-0.012523,-0.056696,-0.058918,2025-02-27T19:06:39.082-06:00
52.000000,250.606367,0.674710,7.258393,44.941646,278.016367,270.000000,3.132385,3.000000,-93.175984,13.982160,2025-02-27T19:06:40.999-06:00,-0.297659,-0.944124,-0.046380,2025-02-27T19:06:40.080-06:00,-0.066165,0.116502,-0.039297,2025-02-27T19:06:40.087-06:00
53.000000,250.119942,0.673808,7.257308,44.941647,277.529942,270.000000,2.542655,3.000000,-93.176158,13.784507,2025-02-27T19:06:41.999-06:00,-0.292579,-0.950244,-0.055237,2025-02-27T19:06:41.085-06:00,0.035690,0.036223,-0.107736,2025-02-27T19:06:41.081-06:00
54.000000,249.792060,0.666626,7.256539,44.941651,277.202059,270.000000,2.263162,3.000000,-93.176327,13.476931,2025-02-27T19:06:42.999-06:00,-0.290344,-0.966453,-0.066820,2025-02-27T19:06:42.080-06:00,-0.022905,-0.099698,-0.044803,2025-02-27T19:06:42.086-06:00
55.000000,249.886359,0.665495,7.258932,44.941654,277.296359,269.798828,2.126589,3.000000,-93.176502,13.586182,2025-02-27T19:06:43.999-06:00,-0.281885,-0.944573,-0.069816,2025-02-27T19:06:43.084-06:00,-0.061474,0.126520,0.016513,2025-02-27T19:06:43.080-06:00
56.000000,249.956014,0.679079,7.258974,44.941652,277.366014,269.798828,2.519186,3.000000,-93.176670,13.289294,2025-02-27T19:06:44.999-06:00,-0.344932,-0.936508,-0.102284,2025-02-27T19:06:44.089-06:00,-0.570986,0.170289,-0.198455,2025-02-27T19:06:44.085-06:00
57.000000,249.111840,0.698145,7.255514,44.941653,276.521840,269.798828,2.256990,3.000000,-93.176825,12.418429,2025-02-27T19:06:45.999-06:00,-0.403514,-0.919145,-0.130554,2025-02-27T19:06:45.083-06:00,-1.143488,0.358621,-0.469000,2025-02-27T19:06:45.080-06:00
58.000000,,,,,,,,,,,,-0.411906,-0.916797,-0.128994,2025-02-27T19:06:46.088-06:00,-1.117296,0.327105,-0.484343,2025-02-27T19:06:46.084-06:00
