seconds_elapsed,location_altitude,location_speedAccuracy,location_bearingAccuracy,location_latitude,location_altitudeAboveMeanSeaLevel,location_bearing,location_horizontalAccuracy,location_verticalAccuracy,location_longitude,location_speed,location_local_time,accelerometerUncalibrated_z,accelerometerUncalibrated_y,accelerometerUncalibrated_x,accelerometerUncalibrated_local_time,accelerometer_z,accelerometer_y,accelerometer_x,accelerometer_local_time
0.000000,253.408047,1.014351,64.227826,44.934382,280.818047,305.123630,3.136386,3.500000,-93.177142,2.335779,2025-02-27T19:38:09.325-06:00,-0.161789,-0.994756,-0.165647,2025-02-27T19:38:09.318-06:00,1.226445,-0.369809,-1.229299,2025-02-27T19:38:09.324-06:00
1.000000,252.713135,1.480000,28.184813,44.934469,280.123135,348.046875,4.113969,3.000000,-93.177190,4.170000,2025-02-27T19:38:10.999-06:00,-0.141529,-0.991983,-0.147658,2025-02-27T19:38:10.303-06:00,1.105468,-0.250460,-1.180219,2025-02-27T19:38:10.309-06:00
2.000000,252.370911,0.980000,10.562052,44.934530,279.780910,360.000000,3.535534,3.000000,-93.177202,4.170000,2025-02-27T19:38:11.999-06:00,-0.161831,-0.993247,0.060492,2025-02-27T19:38:11.307-06:00,0.723468,-0.208088,0.720825,2025-02-27T19:38:11.303-06:00
3.000000,251.933960,0.290000,2.518869,44.934589,279.343960,2.109375,3.535534,3.000000,-93.177197,6.050000,2025-02-27T19:38:12.999-06:00,-0.169280,-0.992604,0.058470,2025-02-27T19:38:12.302-06:00,0.553052,-0.177265,0.758619,2025-02-27T19:38:12.308-06:00
4.000000,251.840088,0.620000,4.300615,44.934659,279.250088,358.945312,3.535534,3.000000,-93.177207,9.390000,2025-02-27T19:38:13.999-06:00,-0.215100,-0.973536,0.036697,2025-02-27T19:38:13.306-06:00,0.076510,0.008739,0.510879,2025-02-27T19:38:13.303-06:00
5.000000,252.311218,0.420000,2.837932,44.934745,279.721218,1.406250,3.535534,3.000000,-93.177206,9.560000,2025-02-27T19:38:14.999-06:00,-0.261337,-0.967060,0.023651,2025-02-27T19:38:14.311-06:00,-0.370516,0.070657,0.284263,2025-02-27T19:38:14.307-06:00
6.000000,251.725708,0.140000,0.962600,44.934822,279.135708,0.000000,3.535534,3.000000,-93.177202,9.560000,2025-02-27T19:38:15.999-06:00,-0.287353,-0.957715,0.032341,2025-02-27T19:38:15.306-06:00,-0.630710,0.164919,0.287017,2025-02-27T19:38:15.302-06:00
7.000000,251.979980,0.080000,0.545753,44.934905,279.389980,0.247819,3.535534,3.000000,-93.177210,9.700000,2025-02-27T19:38:16.999-06:00,-0.294275,-0.952410,0.015276,2025-02-27T19:38:16.310-06:00,-0.606753,0.201481,0.134122,2025-02-27T19:38:16.307-06:00
8.000000,252.143494,0.120000,0.856375,44.934993,279.553493,0.247819,3.535534,3.000000,-93.177209,9.700000,2025-02-27T19:38:17.999-06:00,-0.257773,-0.957741,0.023198,2025-02-27T19:38:17.305-06:00,-0.233399,0.156528,0.179980,2025-02-27T19:38:17.311-06:00
9.000000,251.875610,1.690000,7.637747,44.935086,279.285610,0.247819,3.535534,3.000000,-93.177211,9.890000,2025-02-27T19:38:18.999-06:00,-0.256223,-0.965300,0.034988,2025-02-27T19:38:18.310-06:00,-0.183460,0.044795,0.203386,2025-02-27T19:38:18.306-06:00
10.000000,252.318481,2.520000,8.640729,44.935175,279.728481,0.247819,3.535534,3.000000,-93.177177,9.890000,2025-02-27T19:38:19.999-06:00,-0.245647,-0.984873,0.042872,2025-02-27T19:38:19.304-06:00,-0.088777,-0.134788,0.234936,2025-02-27T19:38:19.310-06:00
11.000000,252.183472,1.650000,5.743115,44.935264,279.593472,0.247819,3.535534,3.000000,-93.177188,10.140000,2025-02-27T19:38:20.999-06:00,-0.221771,-0.945949,0.010616,2025-02-27T19:38:20.309-06:00,0.075658,0.264136,0.223690,2025-02-27T19:38:20.305-06:00
12.000000,251.920776,0.740000,3.844578,44.935378,279.330776,0.000000,3.535534,3.000000,-93.177187,12.460000,2025-02-27T19:38:21.999-06:00,-0.245053,-0.980029,0.032083,2025-02-27T19:38:21.303-06:00,-0.023719,-0.088316,0.345440,2025-02-27T19:38:21.310-06:00
13.000000,251.920789,0.740000,7.258975,44.935490,279.330788,0.000000,4.748652,4.029364,-93.177183,12.460000,2025-02-27T19:38:22.999-06:00,-0.240062,-0.969291,0.025136,2025-02-27T19:38:22.308-06:00,0.003402,0.003083,0.183538,2025-02-27T19:38:22.304-06:00
14.000000,251.559583,0.460000,7.258975,44.935591,278.969582,0.000000,4.748652,4.029364,-93.177191,12.460000,2025-02-27T19:38:23.999-06:00,-0.256487,-0.958453,0.049507,2025-02-27T19:38:23.303-06:00,-0.131516,0.133751,0.210204,2025-02-27T19:38:23.309-06:00
15.000000,251.257703,0.308016,7.258975,44.935708,278.667703,0.000000,4.748652,4.029364,-93.177192,12.460000,2025-02-27T19:38:24.999-06:00,-0.265910,-0.960975,0.051038,2025-02-27T19:38:24.307-06:00,-0.134387,0.037026,0.201265,2025-02-27T19:38:24.304-06:00
16.000000,251.234022,0.308016,7.258975,44.935827,278.644022,0.000000,4.748652,4.029364,-93.177196,12.810000,2025-02-27T19:38:25.999-06:00,-0.261202,-0.961247,0.039217,2025-02-27T19:38:25.302-06:00,-0.150104,0.077828,0.156577,2025-02-27T19:38:25.308-06:00
17.000000,250.966749,1.780000,11.052159,44.935948,278.376749,0.000000,4.748652,4.029364,-93.177185,13.050000,2025-02-27T19:38:26.999-06:00,-0.263685,-0.976858,0.018357,2025-02-27T19:38:26.307-06:00,-0.167217,-0.062859,0.019989,2025-02-27T19:38:26.303-06:00
18.000000,251.553846,3.030000,18.813506,44.936055,278.963846,0.000000,4.748652,4.029364,-93.177172,13.050000,2025-02-27T19:38:27.999-06:00,-0.256252,-0.953635,0.028401,2025-02-27T19:38:27.311-06:00,-0.184360,0.152260,0.077675,2025-02-27T19:38:27.308-06:00
19.000000,250.495850,0.720000,3.312360,44.936207,277.905849,0.115846,3.535534,3.000000,-93.177192,14.030000,2025-02-27T19:38:28.999-06:00,-0.264352,-0.953135,0.010641,2025-02-27T19:38:28.306-06:00,-0.077191,0.113638,0.027570,2025-02-27T19:38:28.302-06:00
20.000000,250.495865,0.720000,7.258975,44.936333,277.905865,0.115846,4.748652,4.029364,-93.177192,14.030000,2025-02-27T19:38:29.999-06:00,-0.301856,-0.956242,0.014996,2025-02-27T19:38:29.311-06:00,-0.509157,0.137399,-0.026374,2025-02-27T19:38:29.307-06:00
21.000000,250.262224,0.610000,7.258975,44.936472,277.672224,0.115846,4.748652,4.029364,-93.177184,14.770000,2025-02-27T19:38:30.999-06:00,-0.314312,-0.946398,0.011799,2025-02-27T19:38:30.305-06:00,-0.543213,0.194610,-0.115147,2025-02-27T19:38:30.311-06:00
22.000000,250.373369,0.340000,7.258975,44.936598,277.783369,0.115846,4.748652,4.029364,-93.177198,14.770000,2025-02-27T19:38:31.999-06:00,-0.323936,-0.945475,0.002278,2025-02-27T19:38:31.310-06:00,-0.661250,0.198764,-0.154584,2025-02-27T19:38:31.306-06:00
23.000000,249.866471,0.670000,7.258975,44.936720,277.276471,0.000000,4.748652,4.029364,-93.177200,14.390000,2025-02-27T19:38:32.999-06:00,-0.325038,-0.946391,0.008415,2025-02-27T19:38:32.304-06:00,-0.647336,0.191222,-0.071509,2025-02-27T19:38:32.311-06:00
24.000000,249.357011,0.690000,7.258975,44.936846,276.767010,0.000000,4.748652,4.029364,-93.177204,14.220000,2025-02-27T19:38:33.999-06:00,-0.336802,-0.938877,-0.001754,2025-02-27T19:38:33.309-06:00,-0.662730,0.233468,-0.213460,2025-02-27T19:38:33.305-06:00
25.000000,250.105363,0.790000,7.258975,44.936956,277.515362,0.000000,4.748652,4.029364,-93.177191,14.220000,2025-02-27T19:38:34.999-06:00,-0.326195,-0.952829,0.009254,2025-02-27T19:38:34.304-06:00,-0.584935,0.134625,-0.100503,2025-02-27T19:38:34.310-06:00
26.000000,250.327893,0.308016,7.258975,44.937051,277.737893,0.000000,4.748652,4.029364,-93.177187,12.390000,2025-02-27T19:38:35.999-06:00,-0.318925,-0.942227,0.009571,2025-02-27T19:38:35.308-06:00,-0.433328,0.157600,-0.069858,2025-02-27T19:38:35.305-06:00
27.000000,250.780652,0.308017,7.258975,44.937164,278.190652,0.129610,4.748652,4.029364,-93.177183,12.390000,2025-02-27T19:38:36.999-06:00,-0.313613,-0.939317,0.002871,2025-02-27T19:38:36.303-06:00,-0.353087,0.205083,-0.012726,2025-02-27T19:38:36.309-06:00
28.000000,251.149548,0.308016,7.258975,44.937266,278.559548,0.129610,4.748652,4.029364,-93.177184,12.160000,2025-02-27T19:38:37.999-06:00,-0.319723,-0.948075,-0.004525,2025-02-27T19:38:37.308-06:00,-0.358668,0.112700,-0.120079,2025-02-27T19:38:37.304-06:00
29.000000,251.318187,0.380000,7.258975,44.937364,278.728187,0.129610,4.748652,4.029364,-93.177196,11.720000,2025-02-27T19:38:38.999-06:00,-0.319775,-0.939156,0.017304,2025-02-27T19:38:38.302-06:00,-0.287795,0.167775,-0.004137,2025-02-27T19:38:38.309-06:00
30.000000,251.159861,0.308016,7.258975,44.937468,278.569861,0.129610,4.748652,4.029364,-93.177185,11.470000,2025-02-27T19:38:39.999-06:00,-0.320206,-0.947938,0.001233,2025-02-27T19:38:39.307-06:00,-0.262567,0.083465,-0.101886,2025-02-27T19:38:39.303-06:00
31.000000,251.195993,0.308016,7.258975,44.937559,278.605993,0.258366,4.748652,4.029364,-93.177191,10.730000,2025-02-27T19:38:40.999-06:00,-0.305185,-0.951056,0.003473,2025-02-27T19:38:40.302-06:00,-0.099953,0.038242,-0.049257,2025-02-27T19:38:40.308-06:00
32.000000,251.096689,0.640000,7.258975,44.937656,278.506689,0.258366,4.748652,4.029364,-93.177187,10.730000,2025-02-27T19:38:41.999-06:00,-0.299873,-0.949707,0.008765,2025-02-27T19:38:41.306-06:00,-0.027220,0.051608,-0.073962,2025-02-27T19:38:41.302-06:00
33.000000,252.846235,1.287801,9.842311,44.937767,280.256234,0.258366,2.548146,3.000000,-93.177201,10.602002,2025-02-27T19:38:42.999-06:00,-0.317814,-0.959189,0.029771,2025-02-27T19:38:42.311-06:00,-0.220793,-0.041172,0.132931,2025-02-27T19:38:42.307-06:00
34.000000,252.911635,1.285328,10.011322,44.937862,280.321635,0.258366,2.705934,3.000000,-93.177203,10.402973,2025-02-27T19:38:43.999-06:00,-0.277416,-0.946008,-0.013814,2025-02-27T19:38:43.305-06:00,0.108601,0.120172,-0.067167,2025-02-27T19:38:43.302-06:00
35.000000,252.863818,1.284122,10.221313,44.937948,280.273818,0.258366,3.985880,3.000000,-93.177183,10.179707,2025-02-27T19:38:44.999-06:00,-0.262460,-0.956684,0.022445,2025-02-27T19:38:44.310-06:00,0.412461,-0.045310,0.159698,2025-02-27T19:38:44.306-06:00
36.000000,252.846985,1.272258,10.023554,44.938043,280.256985,0.000000,3.114473,3.000000,-93.177199,10.284689,2025-02-27T19:38:45.999-06:00,-0.260455,-0.963085,0.023842,2025-02-27T19:38:45.305-06:00,0.441932,-0.108488,0.160985,2025-02-27T19:38:45.311-06:00
37.000000,252.486046,0.678838,7.255172,44.938137,279.896046,0.000000,2.638080,3.000000,-93.177197,10.741567,2025-02-27T19:38:46.999-06:00,-0.296827,-0.957517,0.005535,2025-02-27T19:38:46.309-06:00,0.051420,-0.039910,-0.004964,2025-02-27T19:38:46.306-06:00
38.000000,252.483582,0.701377,7.258429,44.938235,279.893582,0.000000,2.355597,3.000000,-93.177206,11.077339,2025-02-27T19:38:47.999-06:00,-0.320184,-0.948022,-0.006035,2025-02-27T19:38:47.304-06:00,-0.184719,0.051051,-0.135571,2025-02-27T19:38:47.310-06:00
39.000000,252.588790,0.693825,7.258939,44.938333,279.998790,0.000000,2.411221,3.000000,-93.177198,11.206121,2025-02-27T19:38:48.999-06:00,-0.284216,-0.950907,0.016433,2025-02-27T19:38:48.309-06:00,0.146694,0.033590,0.085639,2025-02-27T19:38:48.305-06:00
40.000000,252.407691,0.684609,7.258971,44.938413,279.817690,0.000000,2.233681,3.000000,-93.177192,10.070890,2025-02-27T19:38:49.999-06:00,-0.265252,-0.962844,0.024299,2025-02-27T19:38:49.303-06:00,0.371162,-0.097818,0.164924,2025-02-27T19:38:49.309-06:00
41.000000,251.789843,0.732225,7.250196,44.938516,279.199842,0.000000,2.689612,3.000000,-93.177183,10.603548,2025-02-27T19:38:50.999-06:00,-0.264575,-0.965061,0.013175,2025-02-27T19:38:50.308-06:00,0.291313,-0.091046,0.055820,2025-02-27T19:38:50.304-06:00
42.000000,251.639253,0.832417,7.251445,44.938611,279.049253,0.290643,3.102281,3.000000,-93.177190,10.483386,2025-02-27T19:38:51.999-06:00,-0.308659,-0.947206,0.001407,2025-02-27T19:38:51.303-06:00,-0.104663,0.077769,-0.052669,2025-02-27T19:38:51.309-06:00
43.000000,251.364044,0.739948,7.254048,44.938723,278.774044,0.290618,2.834111,3.000000,-93.177190,11.404163,2025-02-27T19:38:52.999-06:00,-0.306522,-0.948831,0.012544,2025-02-27T19:38:52.307-06:00,-0.077015,0.048172,0.045371,2025-02-27T19:38:52.303-06:00
44.000000,252.218662,0.731172,7.256661,44.938814,279.628662,0.290618,2.645021,3.000000,-93.177194,10.976499,2025-02-27T19:38:53.999-06:00,-0.248426,-0.971146,0.017025,2025-02-27T19:38:53.302-06:00,0.468942,-0.147559,0.101819,2025-02-27T19:38:53.308-06:00
45.000000,252.119598,0.718781,7.257966,44.938909,279.529598,0.290618,2.451363,3.000000,-93.177191,10.546610,2025-02-27T19:38:54.999-06:00,-0.285661,-0.961112,0.006642,2025-02-27T19:38:54.306-06:00,0.087059,-0.061919,-0.043511,2025-02-27T19:38:54.303-06:00
46.000000,251.533586,0.712162,7.257818,44.939014,278.943585,0.290618,2.347622,3.000000,-93.177191,11.107628,2025-02-27T19:38:55.999-06:00,-0.273389,-0.956701,0.010714,2025-02-27T19:38:55.311-06:00,0.127181,0.004443,0.023909,2025-02-27T19:38:55.307-06:00
47.000000,252.654705,0.724997,7.252293,44.939114,280.064705,0.307238,2.189511,3.000000,-93.177190,11.197953,2025-02-27T19:38:56.999-06:00,-0.250470,-0.950296,0.005843,2025-02-27T19:38:56.306-06:00,0.400590,0.056056,0.072036,2025-02-27T19:38:56.302-06:00
48.000000,250.914807,0.737164,7.250998,44.939217,278.324806,0.307238,2.997894,3.000000,-93.177185,11.286254,2025-02-27T19:38:57.999-06:00,-0.270526,-0.969584,0.019487,2025-02-27T19:38:57.310-06:00,0.208370,-0.116144,0.139747,2025-02-27T19:38:57.307-06:00
49.000000,251.768290,0.686381,7.258798,44.939325,279.178290,0.307238,2.824834,3.000000,-93.177184,11.671214,2025-02-27T19:38:58.999-06:00,-0.267602,-0.960655,0.012671,2025-02-27T19:38:58.305-06:00,0.230565,-0.052372,0.085417,2025-02-27T19:38:58.311-06:00
50.000000,251.228062,0.699651,7.258149,44.939431,278.638062,0.307238,2.448723,3.000000,-93.177187,11.959910,2025-02-27T19:38:59.999-06:00,-0.284198,-0.955192,0.006951,2025-02-27T19:38:59.310-06:00,0.037940,0.036811,0.022582,2025-02-27T19:38:59.306-06:00
51.000000,251.059111,0.710960,7.258456,44.939542,278.469111,0.307238,2.817129,3.000000,-93.177187,12.241873,2025-02-27T19:39:00.999-06:00,-0.296421,-0.954784,-0.002217,2025-02-27T19:39:00.304-06:00,-0.068632,0.027273,-0.026572,2025-02-27T19:39:00.310-06:00
52.000000,251.077628,0.713769,7.258966,44.939650,278.487628,0.060313,2.446016,3.000000,-93.177185,12.147983,2025-02-27T19:39:01.999-06:00,-0.296592,-0.952882,-0.001693,2025-02-27T19:39:01.309-06:00,-0.087314,0.043596,0.000618,2025-02-27T19:39:01.305-06:00
53.000000,250.803851,0.703489,7.258555,44.939754,278.213851,359.873418,2.233944,3.000000,-93.177187,11.774370,2025-02-27T19:39:02.999-06:00,-0.286255,-0.956336,-0.008752,2025-02-27T19:39:02.304-06:00,-0.027520,0.028151,0.004589,2025-02-27T19:39:02.310-06:00
54.000000,250.752956,0.703496,7.258673,44.939862,278.162956,0.043986,2.121636,3.000000,-93.177186,11.639742,2025-02-27T19:39:03.999-06:00,-0.273649,-0.959048,-0.002155,2025-02-27T19:39:03.308-06:00,0.123503,-0.011582,0.027570,2025-02-27T19:39:03.304-06:00
55.000000,250.607067,0.686740,7.258256,44.939969,278.017067,359.614825,2.078171,3.000000,-93.177187,11.606865,2025-02-27T19:39:04.999-06:00,-0.270607,-0.959475,-0.003723,2025-02-27T19:39:04.303-06:00,0.179334,-0.036853,-0.017813,2025-02-27T19:39:04.309-06:00
56.000000,250.794223,0.701764,7.258839,44.940074,278.204223,0.188149,2.159284,3.000000,-93.177186,11.696558,2025-02-27T19:39:05.999-06:00,-0.280058,-0.984586,-0.024962,2025-02-27T19:39:05.307-06:00,-0.185107,-0.172263,-0.088933,2025-02-27T19:39:05.304-06:00
57.000000,251.248131,0.678896,7.256721,44.940188,278.658131,359.867554,2.082860,3.000000,-93.177192,12.170833,2025-02-27T19:39:06.999-06:00,-0.252162,-0.934749,-0.036129,2025-02-27T19:39:06.302-06:00,0.252192,0.223752,-0.080567,2025-02-27T19:39:06.308-06:00
58.000000,250.635578,0.672188,7.258470,44.940293,278.045578,359.867554,2.253293,3.000000,-93.177185,11.963952,2025-02-27T19:39:07.999-06:00,-0.280275,-0.958214,0.012209,2025-02-27T19:39:07.307-06:00,0.044288,0.031516,0.253340,2025-02-27T19:39:07.303-06:00
59.000000,250.588666,0.676466,7.258929,44.940403,277.998666,359.867554,2.192460,3.000000,-93.177182,12.170148,2025-02-27T19:39:08.999-06:00,-0.285541,-0.949245,-0.007765,2025-02-27T19:39:08.311-06:00,0.017912,0.083810,-0.018897,2025-02-27T19:39:08.308-06:00
60.000000,250.449888,0.671661,7.258724,44.940513,277.859888,359.867554,2.100535,3.000000,-93.177196,12.314592,2025-02-27T19:39:09.999-06:00,-0.305486,-0.957596,-0.019138,2025-02-27T19:39:09.306-06:00,-0.151326,-0.001460,-0.064484,2025-02-27T19:39:09.302-06:00
61.000000,250.338256,0.673491,7.258789,44.940618,277.748256,0.000000,2.360338,3.000000,-93.177194,12.116619,2025-02-27T19:39:10.999-06:00,-0.328861,-0.949117,-0.035459,2025-02-27T19:39:10.311-06:00,-0.401117,0.079631,-0.257558,2025-02-27T19:39:10.307-06:00
62.000000,250.665898,0.701094,7.258161,44.940730,278.075898,0.465065,2.187323,3.000000,-93.177192,12.410154,2025-02-27T19:39:11.999-06:00,-0.327541,-0.939918,-0.018825,2025-02-27T19:39:11.305-06:00,-0.373393,0.167117,-0.212080,2025-02-27T19:39:11.302-06:00
63.000000,250.100664,0.686166,7.258363,44.940821,277.510663,0.465065,2.100899,3.000000,-93.177189,11.208433,2025-02-27T19:39:12.999-06:00,-0.313936,-0.953995,-0.007372,2025-02-27T19:39:12.310-06:00,-0.183135,0.013133,-0.154474,2025-02-27T19:39:12.306-06:00
64.000000,250.092075,0.698299,7.258203,44.940912,277.502075,359.816467,2.055309,3.000000,-93.177189,10.305434,2025-02-27T19:39:13.999-06:00,-0.300859,-0.943022,0.014307,2025-02-27T19:39:13.305-06:00,-0.047901,0.132043,-0.002786,2025-02-27T19:39:13.311-06:00
65.000000,249.728630,0.698692,7.254977,44.941010,277.138630,359.816467,2.030508,3.000000,-93.177189,10.408732,2025-02-27T19:39:14.999-06:00,-0.335651,-0.938352,-0.000174,2025-02-27T19:39:14.309-06:00,-0.295555,0.122339,-0.084632,2025-02-27T19:39:14.305-06:00
66.000000,249.475303,0.712102,7.254388,44.941107,276.885303,0.800779,2.290565,3.000000,-93.177191,10.580307,2025-02-27T19:39:15.999-06:00,-0.391347,-0.919309,-0.035852,2025-02-27T19:39:15.304-06:00,-0.850610,0.334751,-0.343742,2025-02-27T19:39:15.310-06:00
67.000000,249.474374,0.738784,7.257373,44.941188,276.884373,0.800779,2.167839,3.000000,-93.177191,9.947859,2025-02-27T19:39:16.999-06:00,-0.411136,-0.923946,-0.040715,2025-02-27T19:39:16.308-06:00,-0.993958,0.254471,-0.460305,2025-02-27T19:39:16.305-06:00
68.000000,,,,,,,,,,,,-0.385483,-0.929447,0.008400,2025-02-27T19:39:17.303-06:00,-0.674961,0.185565,-0.091650,2025-02-27T19:39:17.309-06:00
