seconds_elapsed,location_altitude,location_speedAccuracy,location_bearingAccuracy,location_latitude,location_altitudeAboveMeanSeaLevel,location_bearing,location_horizontalAccuracy,location_verticalAccuracy,location_longitude,location_speed,location_local_time,accelerometerUncalibrated_z,accelerometerUncalibrated_y,accelerometerUncalibrated_x,accelerometerUncalibrated_local_time,accelerometer_z,accelerometer_y,accelerometer_x,accelerometer_local_time
0.000000,250.802725,-0.530000,0.801015,44.939259,278.212725,38.122396,59.202093,4.000000,-93.177348,1.170000,2025-02-27T19:24:59.091-06:00,-0.347833,-0.958251,0.136883,2025-02-27T19:24:59.049-06:00,-1.189181,0.135062,0.912523,2025-02-27T19:24:59.055-06:00
1.000000,250.807312,1.300000,13.530907,44.939068,278.217312,114.960938,3.535534,3.000000,-93.176974,6.250000,2025-02-27T19:25:00.999-06:00,-0.277513,-0.946117,0.099412,2025-02-27T19:25:00.044-06:00,-0.571551,0.277142,0.474573,2025-02-27T19:25:00.040-06:00
2.000000,251.509338,1.010000,11.548553,44.939006,278.919338,90.161171,6.718116,3.000000,-93.176903,5.690000,2025-02-27T19:25:01.999-06:00,-0.235179,-0.967931,0.074908,2025-02-27T19:25:01.038-06:00,-0.163980,0.056074,0.185746,2025-02-27T19:25:01.044-06:00
3.000000,251.358826,0.240000,2.224887,44.939005,278.768826,90.161171,6.938842,3.000000,-93.176817,6.250000,2025-02-27T19:25:02.999-06:00,-0.188176,-0.984093,0.056028,2025-02-27T19:25:02.043-06:00,0.215215,-0.076773,0.054000,2025-02-27T19:25:02.039-06:00
4.000000,251.401306,0.160000,1.385426,44.939005,278.811306,90.161171,3.535534,3.000000,-93.176724,7.790000,2025-02-27T19:25:03.999-06:00,-0.194074,-0.981404,0.038188,2025-02-27T19:25:03.037-06:00,0.138363,-0.045670,-0.082385,2025-02-27T19:25:03.044-06:00
5.000000,251.503235,0.200000,1.523559,44.939005,278.913235,90.161171,6.216754,3.000000,-93.176621,8.590000,2025-02-27T19:25:04.999-06:00,-0.203433,-0.978616,0.000390,2025-02-27T19:25:04.042-06:00,0.024617,-0.016867,-0.380925,2025-02-27T19:25:04.038-06:00
6.000000,251.258911,0.150000,1.123711,44.939005,278.668911,90.161171,6.280497,3.000000,-93.176515,8.590000,2025-02-27T19:25:06.000-06:00,-0.230064,-0.970826,0.003279,2025-02-27T19:25:05.037-06:00,-0.225423,0.066237,-0.416065,2025-02-27T19:25:05.043-06:00
7.000000,251.237671,0.150000,1.161617,44.939005,278.647671,90.161171,6.643427,3.000000,-93.176406,8.590000,2025-02-27T19:25:07.000-06:00,-0.263786,-0.967740,0.003313,2025-02-27T19:25:06.041-06:00,-0.523863,0.099228,-0.343445,2025-02-27T19:25:06.038-06:00
8.000000,251.090332,0.520000,3.967905,44.939004,278.500332,90.161171,7.275791,3.000000,-93.176294,8.620000,2025-02-27T19:25:08.000-06:00,-0.236345,-0.961099,-0.055113,2025-02-27T19:25:07.036-06:00,-0.260116,0.156430,-0.722658,2025-02-27T19:25:07.042-06:00
9.000000,250.942322,1.530000,8.709446,44.939004,278.352322,90.161171,7.492618,3.000000,-93.176182,8.830000,2025-02-27T19:25:09.000-06:00,-0.216125,-0.967253,-0.055326,2025-02-27T19:25:08.041-06:00,-0.021604,0.083043,-0.656215,2025-02-27T19:25:08.037-06:00
10.000000,251.344055,1.000000,6.194858,44.939004,278.754055,90.075394,6.938835,3.000000,-93.176069,8.830000,2025-02-27T19:25:10.000-06:00,-0.225264,-0.973599,-0.037433,2025-02-27T19:25:09.035-06:00,-0.090873,0.027100,-0.484259,2025-02-27T19:25:09.041-06:00
11.000000,251.844482,0.270000,1.836923,44.939004,279.254482,90.075394,6.820142,3.000000,-93.175946,8.900000,2025-02-27T19:25:11.000-06:00,-0.226892,-0.975904,-0.019629,2025-02-27T19:25:10.040-06:00,-0.085070,0.010206,-0.272043,2025-02-27T19:25:10.036-06:00
12.000000,252.136658,0.150000,1.027983,44.939004,279.546658,90.075394,6.736029,3.000000,-93.175821,9.800000,2025-02-27T19:25:12.000-06:00,-0.225681,-0.970054,-0.006869,2025-02-27T19:25:11.044-06:00,-0.032147,0.034738,-0.169247,2025-02-27T19:25:11.041-06:00
13.000000,252.136665,0.308016,7.258975,44.939004,279.546665,90.075394,4.748652,4.029364,-93.175697,9.800000,2025-02-27T19:25:13.000-06:00,-0.251844,-0.967781,-0.011179,2025-02-27T19:25:12.039-06:00,-0.289066,0.072497,-0.200002,2025-02-27T19:25:12.035-06:00
14.000000,252.550240,0.308016,7.258975,44.939004,279.960240,90.075394,4.748652,4.029364,-93.175563,10.180000,2025-02-27T19:25:14.000-06:00,-0.250554,-0.965883,-0.016228,2025-02-27T19:25:13.044-06:00,-0.223675,0.082306,-0.269738,2025-02-27T19:25:13.040-06:00
15.000000,252.476754,0.800000,7.258975,44.939004,279.886754,90.075394,4.748652,4.029364,-93.175429,10.250000,2025-02-27T19:25:15.000-06:00,-0.237630,-0.970005,-0.008035,2025-02-27T19:25:14.038-06:00,-0.089537,0.041704,-0.206703,2025-02-27T19:25:14.035-06:00
16.000000,252.096322,1.840000,14.645617,44.939003,279.506321,90.075394,4.748652,4.029364,-93.175310,10.180000,2025-02-27T19:25:16.000-06:00,-0.235342,-0.971624,0.001157,2025-02-27T19:25:15.043-06:00,-0.077883,-0.006380,-0.073985,2025-02-27T19:25:15.039-06:00
17.000000,252.402291,0.830000,7.258975,44.939003,279.812291,90.000000,4.748652,4.029364,-93.175171,10.250000,2025-02-27T19:25:17.000-06:00,-0.228232,-0.959122,-0.018747,2025-02-27T19:25:16.038-06:00,-0.039253,0.171857,-0.219061,2025-02-27T19:25:16.044-06:00
18.000000,252.551523,1.170000,8.649937,44.939003,279.961523,90.000000,4.748652,4.029364,-93.175030,10.960000,2025-02-27T19:25:18.000-06:00,-0.254299,-0.982611,-0.002923,2025-02-27T19:25:17.042-06:00,-0.155831,-0.114192,-0.125759,2025-02-27T19:25:17.038-06:00
19.000000,253.556652,1.390000,9.292869,44.939003,280.966652,90.000000,4.748652,4.029364,-93.174871,12.120000,2025-02-27T19:25:19.000-06:00,-0.243946,-0.958850,-0.023086,2025-02-27T19:25:18.037-06:00,-0.134743,0.151371,-0.245009,2025-02-27T19:25:18.043-06:00
20.000000,252.567761,1.410000,9.426579,44.939003,279.977760,90.000000,4.748652,4.029364,-93.174739,12.120000,2025-02-27T19:25:20.000-06:00,-0.320673,-0.925978,-0.038383,2025-02-27T19:25:19.041-06:00,-0.776474,0.432231,-0.443921,2025-02-27T19:25:19.038-06:00
21.000000,253.873546,0.560000,7.258975,44.939003,281.283545,90.000000,4.748652,4.029364,-93.174598,11.480000,2025-02-27T19:25:21.000-06:00,-0.619259,-0.864212,-0.132630,2025-02-27T19:25:20.036-06:00,-3.585132,1.019363,-1.339272,2025-02-27T19:25:20.042-06:00
22.000000,253.819771,0.550000,7.258975,44.939003,281.229771,90.000000,4.748652,4.029364,-93.174511,10.020000,2025-02-27T19:25:21.999-06:00,-0.454727,-0.904919,-0.072973,2025-02-27T19:25:21.041-06:00,-1.934699,0.598888,-0.718901,2025-02-27T19:25:21.037-06:00
23.000000,253.925664,0.308016,7.258975,44.939003,281.335664,90.000000,4.748652,4.029364,-93.174470,7.890000,2025-02-27T19:25:22.999-06:00,-0.398663,-0.922053,-0.050160,2025-02-27T19:25:22.035-06:00,-1.268732,0.401533,-0.495898,2025-02-27T19:25:22.042-06:00
24.000000,253.920777,0.308016,7.726948,44.939003,281.330777,90.000000,4.748652,4.029364,-93.174472,3.230000,2025-02-27T19:25:23.999-06:00,-0.373319,-0.926789,-0.032888,2025-02-27T19:25:23.040-06:00,-0.928782,0.328540,-0.302433,2025-02-27T19:25:23.036-06:00
25.000000,254.039063,0.308016,7.726948,44.939003,281.449063,90.000000,4.748652,4.029364,-93.174433,3.230000,2025-02-27T19:25:24.999-06:00,-0.386597,-0.927849,-0.051946,2025-02-27T19:25:24.035-06:00,-0.931918,0.280685,-0.391105,2025-02-27T19:25:24.041-06:00
26.000000,254.753418,0.710000,25.122363,44.939003,282.163418,90.000000,4.748652,4.029364,-93.174416,2.290000,2025-02-27T19:25:25.999-06:00,-0.344955,-0.938291,-0.037391,2025-02-27T19:25:25.039-06:00,-0.420969,0.147204,-0.216464,2025-02-27T19:25:25.036-06:00
27.000000,254.557434,1.030000,48.242381,44.939003,281.967434,90.000000,4.748652,4.029364,-93.174412,1.730000,2025-02-27T19:25:26.999-06:00,-0.223904,-0.973990,-0.000934,2025-02-27T19:25:26.044-06:00,0.683599,-0.181461,0.150456,2025-02-27T19:25:26.040-06:00
28.000000,254.146423,0.910000,85.739427,44.939003,281.556423,90.000000,4.748652,4.029364,-93.174419,0.860000,2025-02-27T19:25:27.999-06:00,-0.125641,-1.000155,0.030782,2025-02-27T19:25:27.039-06:00,1.535255,-0.400213,0.430384,2025-02-27T19:25:27.035-06:00
29.000000,254.025391,0.308016,17.955426,44.939003,281.435391,90.000000,4.748652,4.029364,-93.174397,1.390000,2025-02-27T19:25:28.999-06:00,-0.108318,-1.007171,0.039618,2025-02-27T19:25:28.043-06:00,1.648960,-0.452791,0.476815,2025-02-27T19:25:28.039-06:00
30.000000,254.058412,0.710000,17.539699,44.939003,281.468411,90.000000,4.748652,4.029364,-93.174337,3.280000,2025-02-27T19:25:29.999-06:00,-0.126933,-0.999044,0.034307,2025-02-27T19:25:29.038-06:00,1.472997,-0.372874,0.405580,2025-02-27T19:25:29.044-06:00
31.000000,254.126100,0.640000,15.810433,44.939003,281.536099,90.000000,4.748652,4.029364,-93.174279,3.280000,2025-02-27T19:25:30.999-06:00,-0.150677,-0.990657,0.033142,2025-02-27T19:25:30.042-06:00,1.241727,-0.296960,0.381353,2025-02-27T19:25:30.039-06:00
32.000000,254.560671,0.320000,7.258975,44.939003,281.970671,90.000000,4.748652,4.029364,-93.174184,5.310000,2025-02-27T19:25:31.999-06:00,-0.172645,-0.983325,0.007329,2025-02-27T19:25:31.037-06:00,1.071869,-0.230988,0.175449,2025-02-27T19:25:31.043-06:00
33.000000,255.480578,1.277888,15.951629,44.939017,282.890577,89.699287,2.387877,3.000000,-93.174091,6.491192,2025-02-27T19:25:32.999-06:00,-0.178345,-0.983752,0.013177,2025-02-27T19:25:32.042-06:00,1.063578,-0.255688,0.181722,2025-02-27T19:25:32.038-06:00
34.000000,255.322011,1.277289,13.719214,44.939019,282.732011,89.699287,2.116489,3.000000,-93.173991,7.543721,2025-02-27T19:25:33.999-06:00,-0.183797,-0.985657,0.016853,2025-02-27T19:25:33.036-06:00,0.984346,-0.267149,0.158325,2025-02-27T19:25:33.043-06:00
35.000000,255.328305,1.272876,12.006380,44.939020,282.738305,89.699287,2.439431,3.000000,-93.173872,8.590275,2025-02-27T19:25:34.999-06:00,-0.239184,-0.972051,0.007138,2025-02-27T19:25:34.041-06:00,0.344630,-0.111189,0.091155,2025-02-27T19:25:34.037-06:00
36.000000,255.151125,1.276623,11.002593,44.939005,282.561125,89.699287,2.736466,3.000000,-93.173744,9.399854,2025-02-27T19:25:35.999-06:00,-0.274657,-0.952831,-0.014363,2025-02-27T19:25:35.036-06:00,-0.071573,0.119839,0.000161,2025-02-27T19:25:35.042-06:00
37.000000,254.701231,0.691068,7.258489,44.939013,282.111231,89.733620,2.413518,3.000000,-93.173605,9.880285,2025-02-27T19:25:36.999-06:00,-0.249425,-0.967604,-0.021127,2025-02-27T19:25:36.040-06:00,0.109263,-0.035954,-0.015728,2025-02-27T19:25:36.036-06:00
38.000000,254.696807,0.710330,7.258972,44.939017,282.106807,89.733620,2.226103,3.000000,-93.173480,9.773135,2025-02-27T19:25:37.999-06:00,-0.227634,-0.976342,-0.006733,2025-02-27T19:25:37.035-06:00,0.185692,-0.074761,0.100346,2025-02-27T19:25:37.041-06:00
39.000000,254.817414,0.682664,7.258952,44.939016,282.227414,89.733620,2.134112,3.000000,-93.173352,9.824735,2025-02-27T19:25:38.999-06:00,-0.251613,-0.968635,-0.029340,2025-02-27T19:25:38.039-06:00,-0.070224,0.015581,-0.004154,2025-02-27T19:25:38.036-06:00
40.000000,254.776982,0.671845,7.258776,44.939016,282.186982,89.733620,2.075525,3.000000,-93.173210,10.638630,2025-02-27T19:25:39.999-06:00,-0.258130,-0.971355,-0.028508,2025-02-27T19:25:39.044-06:00,-0.069009,-0.042687,-0.054483,2025-02-27T19:25:39.040-06:00
41.000000,254.883395,0.698538,7.258589,44.939019,282.293395,90.109161,2.042400,3.000000,-93.173077,10.683864,2025-02-27T19:25:40.999-06:00,-0.235795,-0.955900,-0.026883,2025-02-27T19:25:40.039-06:00,-0.070578,0.161277,0.000999,2025-02-27T19:25:40.035-06:00
42.000000,254.863390,0.697866,7.257745,44.939020,282.273390,90.109161,2.023567,3.000000,-93.172939,10.818063,2025-02-27T19:25:41.999-06:00,-0.275469,-0.978951,-0.044569,2025-02-27T19:25:41.043-06:00,-0.347904,-0.074657,-0.069944,2025-02-27T19:25:41.040-06:00
43.000000,255.442798,0.689910,7.257058,44.939014,282.852798,90.109161,2.012407,3.000000,-93.172802,10.934541,2025-02-27T19:25:42.999-06:00,-0.300409,-0.946335,-0.068661,2025-02-27T19:25:42.038-06:00,-0.651833,0.226579,-0.306104,2025-02-27T19:25:42.044-06:00
44.000000,255.352260,0.701236,7.258736,44.939015,282.762260,90.109161,2.007277,3.000000,-93.172676,10.501202,2025-02-27T19:25:43.999-06:00,-0.305689,-0.950980,-0.072939,2025-02-27T19:25:43.043-06:00,-0.690621,0.193196,-0.305628,2025-02-27T19:25:43.039-06:00
45.000000,256.193754,0.708722,7.248975,44.939011,283.603753,90.109161,2.004165,3.000000,-93.172564,9.485917,2025-02-27T19:25:44.999-06:00,-0.280154,-0.953603,-0.052200,2025-02-27T19:25:44.037-06:00,-0.419071,0.170417,-0.053922,2025-02-27T19:25:44.044-06:00
46.000000,255.900029,0.683391,7.258577,44.939010,283.310029,90.109161,2.002425,3.000000,-93.172453,8.782488,2025-02-27T19:25:45.999-06:00,-0.267728,-0.952955,-0.079484,2025-02-27T19:25:45.042-06:00,-0.247412,0.154552,-0.236668,2025-02-27T19:25:45.038-06:00
47.000000,255.646863,0.718928,7.252099,44.939008,283.056863,90.109161,2.001397,3.000000,-93.172343,8.493661,2025-02-27T19:25:46.999-06:00,-0.284825,-0.951610,-0.058999,2025-02-27T19:25:46.037-06:00,-0.361075,0.160536,-0.089009,2025-02-27T19:25:46.043-06:00
48.000000,254.851255,0.750477,7.200107,44.939005,282.261255,89.691170,2.000870,3.000000,-93.172236,8.226732,2025-02-27T19:25:47.999-06:00,-0.279711,-0.954328,-0.084342,2025-02-27T19:25:47.041-06:00,-0.366393,0.136687,-0.304518,2025-02-27T19:25:47.037-06:00
49.000000,255.392949,0.696852,7.251870,44.939012,282.802949,89.691170,2.000577,3.000000,-93.172128,8.223293,2025-02-27T19:25:48.999-06:00,-0.305010,-0.946154,-0.079643,2025-02-27T19:25:48.036-06:00,-0.531057,0.188538,-0.129769,2025-02-27T19:25:48.042-06:00
50.000000,255.696453,0.796437,8.001464,44.939013,283.106453,89.691170,2.007916,3.000000,-93.172028,8.063459,2025-02-27T19:25:49.999-06:00,-0.337969,-0.937088,-0.085896,2025-02-27T19:25:49.040-06:00,-0.826581,0.284623,-0.285161,2025-02-27T19:25:49.037-06:00
51.000000,255.663107,0.743432,8.668835,44.939013,283.073107,89.691170,2.005663,3.000000,-93.171956,6.936854,2025-02-27T19:25:50.999-06:00,-0.322652,-0.956378,-0.072313,2025-02-27T19:25:50.035-06:00,-0.603630,0.072246,-0.162449,2025-02-27T19:25:50.041-06:00
52.000000,255.667614,0.713699,10.338776,44.939015,283.077614,88.184258,2.157492,3.000000,-93.171894,5.575686,2025-02-27T19:25:51.999-06:00,-0.274823,-0.934816,-0.051905,2025-02-27T19:25:51.040-06:00,-0.097082,0.281823,0.044438,2025-02-27T19:25:51.036-06:00
53.000000,255.484774,0.711276,11.363159,44.939013,282.894774,88.184258,2.131243,3.000000,-93.171828,4.932753,2025-02-27T19:25:52.999-06:00,-0.278196,-0.966398,-0.068240,2025-02-27T19:25:52.044-06:00,-0.075922,-0.064395,-0.042129,2025-02-27T19:25:52.041-06:00
54.000000,255.892379,0.691014,10.170543,44.939019,283.302379,87.450500,2.199978,3.000000,-93.171747,5.486916,2025-02-27T19:25:53.999-06:00,-0.297718,-0.947100,-0.092635,2025-02-27T19:25:53.039-06:00,-0.313475,0.143246,-0.293066,2025-02-27T19:25:53.035-06:00
55.000000,256.307853,0.716057,10.862949,44.939015,283.717853,87.450500,2.174980,3.000000,-93.171681,5.342880,2025-02-27T19:25:54.999-06:00,-0.370364,-0.932189,-0.085476,2025-02-27T19:25:54.044-06:00,-0.931054,0.268101,-0.244517,2025-02-27T19:25:54.040-06:00
56.000000,256.481634,0.734390,13.439602,44.939017,283.891634,87.450500,2.155538,3.000000,-93.171638,4.414628,2025-02-27T19:25:55.999-06:00,-0.403048,-0.917550,-0.089421,2025-02-27T19:25:55.038-06:00,-1.141876,0.378690,-0.365370,2025-02-27T19:25:55.035-06:00
57.000000,256.690586,0.756004,22.645771,44.939019,284.100586,87.450500,2.201673,3.000000,-93.171621,2.566269,2025-02-27T19:25:56.999-06:00,-0.371823,-0.927514,-0.069763,2025-02-27T19:25:56.043-06:00,-0.777307,0.274710,-0.245742,2025-02-27T19:25:56.039-06:00
58.000000,257.072796,0.977913,52.766786,44.939020,284.482796,87.450500,2.295123,3.000000,-93.171616,0.945590,2025-02-27T19:25:57.999-06:00,-0.306291,-0.950587,-0.046227,2025-02-27T19:25:57.038-06:00,-0.064314,0.025063,-0.014061,2025-02-27T19:25:57.044-06:00
59.000000,257.238001,1.033469,171.000799,44.939020,284.648001,87.450500,2.372195,3.000000,-93.171622,0.452410,2025-02-27T19:25:58.999-06:00,-0.208572,-0.977612,-0.013212,2025-02-27T19:25:58.042-06:00,0.860274,-0.230181,0.285227,2025-02-27T19:25:58.038-06:00
60.000000,257.444555,0.899920,180.000000,44.939016,284.854555,87.450500,2.679174,3.000000,-93.171640,2.234264,2025-02-27T19:25:59.999-06:00,-0.124834,-1.002467,0.024388,2025-02-27T19:25:59.037-06:00,1.644516,-0.460712,0.632799,2025-02-27T19:25:59.043-06:00
61.000000,257.693280,0.692330,35.406468,44.939025,285.103280,87.450500,2.727575,3.000000,-93.171545,1.545392,2025-02-27T19:26:00.999-06:00,-0.131477,-1.003132,0.027329,2025-02-27T19:26:00.041-06:00,1.522041,-0.451088,0.665081,2025-02-27T19:26:00.038-06:00
62.000000,257.355946,0.718095,13.541836,44.939026,284.765946,87.450500,2.730651,3.000000,-93.171475,4.004324,2025-02-27T19:26:01.999-06:00,-0.163668,-0.979971,0.014670,2025-02-27T19:26:01.036-06:00,1.232053,-0.233766,0.551924,2025-02-27T19:26:01.042-06:00
63.000000,257.221758,0.690754,9.461501,44.939033,284.631757,88.985832,2.684985,3.000000,-93.171400,5.804708,2025-02-27T19:26:02.999-06:00,-0.181322,-0.978039,-0.010799,2025-02-27T19:26:02.041-06:00,1.149944,-0.239780,0.336536,2025-02-27T19:26:02.037-06:00
64.000000,257.412423,0.672012,8.670461,44.939023,284.822423,88.985832,2.644692,3.000000,-93.171330,6.273827,2025-02-27T19:26:03.999-06:00,-0.152278,-0.998794,-0.035430,2025-02-27T19:26:03.035-06:00,1.343790,-0.422941,0.116436,2025-02-27T19:26:03.042-06:00
65.000000,257.332381,0.679938,7.936711,44.939024,284.742381,88.985832,4.216031,3.000000,-93.171246,6.940998,2025-02-27T19:26:04.999-06:00,-0.159874,-0.994961,-0.082266,2025-02-27T19:26:04.040-06:00,1.094816,-0.312979,-0.398312,2025-02-27T19:26:04.036-06:00
66.000000,256.933675,0.681077,7.253942,44.939023,284.343675,90.505760,4.529385,3.000000,-93.171147,7.763485,2025-02-27T19:26:05.999-06:00,-0.173643,-0.991159,-0.061196,2025-02-27T19:26:05.035-06:00,0.768128,-0.242880,-0.217897,2025-02-27T19:26:05.041-06:00
67.000000,257.607650,0.672091,7.257382,44.939022,285.017650,90.505760,2.513621,3.000000,-93.171036,8.529679,2025-02-27T19:26:06.999-06:00,-0.173547,-0.967797,-0.028991,2025-02-27T19:26:06.039-06:00,0.664850,0.010282,0.011420,2025-02-27T19:26:06.036-06:00
68.000000,257.444773,0.716742,7.258944,44.939021,284.854773,90.505760,2.587079,3.000000,-93.170933,8.445414,2025-02-27T19:26:07.999-06:00,-0.224586,-0.986559,-0.017100,2025-02-27T19:26:07.044-06:00,0.119909,-0.154739,0.093661,2025-02-27T19:26:07.040-06:00
69.000000,257.518977,0.710713,7.257279,44.939027,284.928977,90.000000,2.389909,3.000000,-93.170805,9.284427,2025-02-27T19:26:08.999-06:00,-0.220221,-0.972135,-0.023654,2025-02-27T19:26:08.039-06:00,0.106461,0.005109,0.044626,2025-02-27T19:26:08.035-06:00
70.000000,257.009677,0.710235,7.245683,44.939026,284.419677,90.000000,2.245763,3.000000,-93.170692,9.162830,2025-02-27T19:26:09.999-06:00,-0.221520,-0.965871,-0.019387,2025-02-27T19:26:09.043-06:00,0.080609,0.076486,0.054431,2025-02-27T19:26:09.039-06:00
71.000000,258.295779,0.682570,7.258067,44.939023,285.705779,90.000000,2.454633,3.000000,-93.170545,10.342610,2025-02-27T19:26:10.999-06:00,-0.297932,-0.969245,-0.051945,2025-02-27T19:26:10.038-06:00,-0.665349,0.046054,-0.181888,2025-02-27T19:26:10.044-06:00
72.000000,258.204736,0.668658,7.258963,44.939022,285.614736,90.000000,2.298319,3.000000,-93.170427,9.915804,2025-02-27T19:26:11.999-06:00,-0.288144,-0.945609,-0.033519,2025-02-27T19:26:11.042-06:00,-0.499793,0.254224,-0.163386,2025-02-27T19:26:11.039-06:00
73.000000,258.796149,0.679673,7.253701,44.939026,286.206149,90.000000,2.315303,3.000000,-93.170314,9.335004,2025-02-27T19:26:12.999-06:00,-0.312493,-0.939083,-0.038103,2025-02-27T19:26:12.037-06:00,-0.686672,0.282198,-0.220463,2025-02-27T19:26:12.043-06:00
74.000000,258.699981,0.679069,7.258006,44.939024,286.109981,90.000000,2.187010,3.000000,-93.170209,8.552894,2025-02-27T19:26:13.999-06:00,-0.285963,-0.944455,-0.023364,2025-02-27T19:26:13.042-06:00,-0.468969,0.255106,-0.048279,2025-02-27T19:26:13.038-06:00
75.000000,258.758031,0.706357,7.310646,44.939025,286.168031,90.000000,2.644472,3.000000,-93.170112,7.828056,2025-02-27T19:26:14.999-06:00,-0.356394,-0.935084,-0.053389,2025-02-27T19:26:14.036-06:00,-1.018719,0.308038,-0.285323,2025-02-27T19:26:14.043-06:00
76.000000,258.533862,0.703896,7.439535,44.939028,285.943862,90.000000,2.854732,3.000000,-93.170012,7.644303,2025-02-27T19:26:15.999-06:00,-0.312263,-0.948396,-0.037298,2025-02-27T19:26:15.041-06:00,-0.587772,0.203138,-0.168823,2025-02-27T19:26:15.037-06:00
77.000000,257.732460,0.700129,8.487220,44.939021,285.142459,90.000000,2.691417,3.000000,-93.169938,6.514518,2025-02-27T19:26:16.999-06:00,-0.310936,-0.954882,-0.034655,2025-02-27T19:26:16.036-06:00,-0.525011,0.108052,-0.177399,2025-02-27T19:26:16.042-06:00
78.000000,258.264110,0.690510,9.204579,44.939028,285.674110,90.000000,2.586602,3.000000,-93.169859,6.023417,2025-02-27T19:26:17.999-06:00,-0.348654,-0.937059,-0.049792,2025-02-27T19:26:17.040-06:00,-0.804259,0.258731,-0.313389,2025-02-27T19:26:17.036-06:00
79.000000,258.629648,0.722160,10.478906,44.939026,286.039648,90.000000,2.707509,3.000000,-93.169789,5.578934,2025-02-27T19:26:18.999-06:00,-0.397217,-0.928473,-0.069062,2025-02-27T19:26:18.035-06:00,-1.259363,0.338467,-0.462324,2025-02-27T19:26:18.041-06:00
80.000000,,,,,,,,,,,,-0.404087,-0.905480,-0.079351,2025-02-27T19:26:19.039-06:00,-1.173241,0.512088,-0.471634,2025-02-27T19:26:19.036-06:00
