seconds_elapsed,location_altitude,location_speedAccuracy,location_bearingAccuracy,location_latitude,location_altitudeAboveMeanSeaLevel,location_bearing,location_horizontalAccuracy,location_verticalAccuracy,location_longitude,location_speed,location_local_time,accelerometerUncalibrated_z,accelerometerUncalibrated_y,accelerometerUncalibrated_x,accelerometerUncalibrated_local_time,accelerometer_z,accelerometer_y,accelerometer_x,accelerometer_local_time
0.000000,248.511428,0.165000,3.534590,44.940430,275.921427,86.863281,28.936419,5.500000,-93.177222,3.670000,2025-02-27T19:07:08.581-06:00,-0.358481,-0.941665,0.137583,2025-02-27T19:07:08.572-06:00,-0.882133,0.207299,0.993154,2025-02-27T19:07:08.573-06:00
1.000000,250.354858,1.210000,10.706094,44.940157,277.764858,166.992188,4.946431,4.000000,-93.177207,8.340000,2025-02-27T19:07:09.999-06:00,-0.358182,-0.932788,0.188252,2025-02-27T19:07:09.557-06:00,-0.934151,0.307064,1.583546,2025-02-27T19:07:09.558-06:00
2.000000,249.338623,0.510000,5.523230,44.940126,276.748623,129.726562,3.844276,4.000000,-93.177134,7.330000,2025-02-27T19:07:10.999-06:00,-0.309860,-0.958812,0.155761,2025-02-27T19:07:10.561-06:00,-0.585175,0.076099,1.208089,2025-02-27T19:07:10.563-06:00
3.000000,249.240601,0.220000,2.453246,44.940097,276.650600,119.882812,3.535534,3.000000,-93.177076,5.980000,2025-02-27T19:07:11.999-06:00,-0.312538,-0.938969,0.228826,2025-02-27T19:07:11.566-06:00,-0.630298,0.276680,1.687407,2025-02-27T19:07:11.557-06:00
4.000000,247.516479,0.130000,1.281941,44.940087,274.926479,100.898438,3.535534,3.000000,-93.177006,5.980000,2025-02-27T19:07:12.999-06:00,-0.252222,-0.963772,0.192931,2025-02-27T19:07:12.561-06:00,-0.129869,0.055595,1.272222,2025-02-27T19:07:12.562-06:00
5.000000,247.995361,0.340000,2.929026,44.940078,275.405361,90.000000,3.535534,3.000000,-93.176914,7.560000,2025-02-27T19:07:13.999-06:00,-0.191470,-0.987557,0.101685,2025-02-27T19:07:13.565-06:00,0.339328,-0.156051,0.353121,2025-02-27T19:07:13.557-06:00
6.000000,247.855347,1.000000,8.130579,44.940073,275.265347,90.305824,3.535534,3.000000,-93.176817,8.030000,2025-02-27T19:07:15.000-06:00,-0.191526,-0.981184,0.044654,2025-02-27T19:07:14.560-06:00,0.223858,-0.042741,-0.118552,2025-02-27T19:07:14.561-06:00
7.000000,247.247681,2.130000,18.305030,44.940073,274.657681,90.305824,3.535534,3.000000,-93.176724,7.560000,2025-02-27T19:07:16.000-06:00,-0.178947,-0.972317,0.023569,2025-02-27T19:07:15.565-06:00,0.335280,0.020116,-0.254705,2025-02-27T19:07:15.566-06:00
8.000000,247.688782,0.700000,4.368653,44.940081,275.098782,90.000000,3.535534,3.000000,-93.176587,8.030000,2025-02-27T19:07:17.000-06:00,-0.188119,-0.990551,0.011812,2025-02-27T19:07:16.559-06:00,0.181512,-0.124205,-0.347746,2025-02-27T19:07:16.560-06:00
9.000000,248.193115,1.110000,6.614242,44.940084,275.603115,90.000000,3.535534,3.000000,-93.176461,10.270000,2025-02-27T19:07:18.000-06:00,-0.208165,-0.973694,0.001735,2025-02-27T19:07:17.564-06:00,0.015024,0.022721,-0.427759,2025-02-27T19:07:17.565-06:00
10.000000,248.400635,0.720000,4.316560,44.940084,275.810635,90.000000,3.535534,3.000000,-93.176329,10.820000,2025-02-27T19:07:19.000-06:00,-0.225585,-0.971046,-0.003743,2025-02-27T19:07:18.558-06:00,-0.184375,0.068965,-0.466674,2025-02-27T19:07:18.560-06:00
11.000000,248.913757,1.340000,6.616246,44.940086,276.323757,90.000000,3.535534,3.000000,-93.176196,10.450000,2025-02-27T19:07:20.000-06:00,-0.220530,-0.980583,-0.003346,2025-02-27T19:07:19.563-06:00,-0.139974,-0.017517,-0.494147,2025-02-27T19:07:19.564-06:00
12.000000,248.980408,2.070000,7.983693,44.940089,276.390408,90.211678,3.535534,3.000000,-93.176059,10.820000,2025-02-27T19:07:21.000-06:00,-0.222748,-0.963429,-0.013966,2025-02-27T19:07:20.558-06:00,-0.145099,0.118024,-0.504275,2025-02-27T19:07:20.559-06:00
13.000000,248.980417,2.070000,15.501749,44.940091,276.390417,90.211678,4.748652,4.029364,-93.175922,10.820000,2025-02-27T19:07:22.000-06:00,-0.226903,-0.969769,0.001895,2025-02-27T19:07:21.562-06:00,-0.165476,0.053506,-0.379927,2025-02-27T19:07:21.564-06:00
14.000000,247.903390,1.000000,7.753921,44.940095,275.313390,90.211678,4.748652,4.029364,-93.175797,10.450000,2025-02-27T19:07:23.000-06:00,-0.261325,-0.965643,-0.000087,2025-02-27T19:07:22.557-06:00,-0.469644,0.115413,-0.369377,2025-02-27T19:07:22.558-06:00
15.000000,248.788830,0.308016,7.258975,44.940094,276.198830,90.211678,4.748652,4.029364,-93.175616,12.430000,2025-02-27T19:07:24.000-06:00,-0.246760,-0.949178,-0.013273,2025-02-27T19:07:23.562-06:00,-0.331627,0.294572,-0.456955,2025-02-27T19:07:23.563-06:00
16.000000,249.056470,0.308016,7.258975,44.940093,276.466470,90.211678,4.748652,4.029364,-93.175469,12.430000,2025-02-27T19:07:25.000-06:00,-0.273792,-0.972118,-0.019553,2025-02-27T19:07:24.566-06:00,-0.517042,-0.005034,-0.504442,2025-02-27T19:07:24.558-06:00
17.000000,249.213634,1.670000,11.419201,44.940093,276.623634,90.211678,4.748652,4.029364,-93.175328,11.850000,2025-02-27T19:07:26.000-06:00,-0.266076,-0.952318,-0.009399,2025-02-27T19:07:25.561-06:00,-0.401833,0.202604,-0.378340,2025-02-27T19:07:25.562-06:00
18.000000,249.193798,2.890000,19.761373,44.940082,276.603798,90.211678,4.748652,4.029364,-93.175180,11.850000,2025-02-27T19:07:27.000-06:00,-0.268931,-0.964507,-0.005958,2025-02-27T19:07:26.565-06:00,-0.404112,0.109840,-0.358768,2025-02-27T19:07:26.557-06:00
19.000000,250.331920,1.440000,10.015537,44.940083,277.741920,90.292641,4.748652,4.029364,-93.175030,11.650000,2025-02-27T19:07:28.000-06:00,-0.272480,-0.959816,0.001666,2025-02-27T19:07:27.560-06:00,-0.459177,0.132285,-0.324382,2025-02-27T19:07:27.561-06:00
20.000000,250.419566,0.740000,7.258975,44.940084,277.829566,90.292641,4.748652,4.029364,-93.174886,11.460000,2025-02-27T19:07:29.000-06:00,-0.254359,-0.966414,0.002829,2025-02-27T19:07:28.565-06:00,-0.225895,0.056932,-0.284552,2025-02-27T19:07:28.566-06:00
21.000000,250.598033,0.830000,7.258975,44.940085,278.008033,89.296978,4.748652,4.029364,-93.174743,11.460000,2025-02-27T19:07:30.000-06:00,-0.250557,-0.970425,0.002886,2025-02-27T19:07:29.559-06:00,-0.187936,0.010788,-0.236758,2025-02-27T19:07:29.561-06:00
22.000000,250.917734,0.480000,7.258975,44.940080,278.327734,91.054788,4.748652,4.029364,-93.174604,11.180000,2025-02-27T19:07:31.000-06:00,-0.244142,-0.963193,-0.008502,2025-02-27T19:07:30.564-06:00,-0.085121,0.086386,-0.257829,2025-02-27T19:07:30.565-06:00
23.000000,251.192881,0.308016,7.258975,44.940079,278.602881,90.703225,4.748652,4.029364,-93.174460,11.180000,2025-02-27T19:07:32.000-06:00,-0.256331,-0.958579,0.007315,2025-02-27T19:07:31.559-06:00,-0.166207,0.116577,-0.189711,2025-02-27T19:07:31.560-06:00
24.000000,251.291941,0.380000,7.258975,44.940079,278.701941,90.703226,4.748652,4.029364,-93.174315,11.310000,2025-02-27T19:07:33.000-06:00,-0.234480,-0.946227,-0.007613,2025-02-27T19:07:32.563-06:00,0.135646,0.191776,-0.253324,2025-02-27T19:07:32.564-06:00
25.000000,251.990123,0.500000,7.258975,44.940080,279.400123,90.142525,4.748652,4.029364,-93.174165,11.540000,2025-02-27T19:07:34.000-06:00,-0.282103,-0.979949,0.021895,2025-02-27T19:07:33.558-06:00,-0.231277,-0.120470,-0.027032,2025-02-27T19:07:33.559-06:00
26.000000,252.131846,1.300000,9.127990,44.940074,279.541846,90.000000,4.748652,4.029364,-93.174021,11.540000,2025-02-27T19:07:35.000-06:00,-0.247680,-0.933433,0.005013,2025-02-27T19:07:34.562-06:00,0.141143,0.324071,-0.191327,2025-02-27T19:07:34.564-06:00
27.000000,251.963695,1.190000,8.355622,44.940074,279.373694,90.000000,4.748652,4.029364,-93.173873,11.540000,2025-02-27T19:07:36.000-06:00,-0.267322,-0.968733,0.007292,2025-02-27T19:07:35.557-06:00,-0.039352,-0.044182,-0.101031,2025-02-27T19:07:35.558-06:00
28.000000,251.877025,0.440000,7.258975,44.940079,279.287025,90.000000,4.748652,4.029364,-93.173722,11.810000,2025-02-27T19:07:37.000-06:00,-0.256416,-0.962934,-0.008223,2025-02-27T19:07:36.562-06:00,0.082978,0.002653,-0.236317,2025-02-27T19:07:36.563-06:00
29.000000,251.903210,0.308016,7.258975,44.940078,279.313209,90.000000,4.748652,4.029364,-93.173569,12.000000,2025-02-27T19:07:38.000-06:00,-0.276428,-0.968924,0.011624,2025-02-27T19:07:37.566-06:00,-0.093884,-0.026548,-0.069518,2025-02-27T19:07:37.558-06:00
30.000000,251.931225,1.220000,8.043510,44.940074,279.341225,90.000000,4.748652,4.029364,-93.173413,12.290000,2025-02-27T19:07:39.000-06:00,-0.260275,-0.947510,-0.002567,2025-02-27T19:07:38.561-06:00,0.064141,0.202604,-0.118937,2025-02-27T19:07:38.562-06:00
31.000000,252.217603,0.850000,7.258975,44.940078,279.627603,90.000000,4.748652,4.029364,-93.173258,12.550000,2025-02-27T19:07:40.000-06:00,-0.263898,-0.967460,-0.001975,2025-02-27T19:07:39.566-06:00,0.022548,-0.073536,-0.137667,2025-02-27T19:07:39.557-06:00
32.000000,251.856824,0.308016,7.258975,44.940076,279.266824,90.000000,4.748652,4.029364,-93.173106,12.500000,2025-02-27T19:07:41.000-06:00,-0.284470,-0.946970,0.003076,2025-02-27T19:07:40.560-06:00,-0.125704,0.140454,-0.031475,2025-02-27T19:07:40.561-06:00
33.000000,256.014270,1.271509,8.196935,44.940077,283.424269,90.000000,2.000000,3.000000,-93.172944,12.569118,2025-02-27T19:07:42.000-06:00,-0.258855,-0.959215,-0.003999,2025-02-27T19:07:41.565-06:00,0.026092,0.037095,-0.099728,2025-02-27T19:07:41.566-06:00
34.000000,255.887811,1.274775,8.202805,44.940078,283.297811,90.000000,2.000000,3.000000,-93.172784,12.592408,2025-02-27T19:07:43.000-06:00,-0.274803,-0.959174,-0.002399,2025-02-27T19:07:42.559-06:00,-0.058858,0.042983,-0.072548,2025-02-27T19:07:42.561-06:00
35.000000,255.852395,1.275281,8.176439,44.940078,283.262395,90.098969,2.065288,3.000000,-93.172621,12.638031,2025-02-27T19:07:44.000-06:00,-0.278025,-0.951460,-0.009600,2025-02-27T19:07:43.564-06:00,-0.140357,0.132725,-0.137477,2025-02-27T19:07:43.565-06:00
36.000000,255.867991,1.277773,8.202429,44.940078,283.277991,90.098969,2.032899,3.000000,-93.172459,12.622646,2025-02-27T19:07:45.000-06:00,-0.280997,-0.963901,-0.008372,2025-02-27T19:07:44.559-06:00,-0.092212,-0.001514,-0.138982,2025-02-27T19:07:44.560-06:00
37.000000,255.759754,0.672639,7.258971,44.940079,283.169754,90.098969,2.016791,3.000000,-93.172300,12.595215,2025-02-27T19:07:46.000-06:00,-0.274003,-0.959354,0.000109,2025-02-27T19:07:45.563-06:00,-0.017680,0.027712,-0.094369,2025-02-27T19:07:45.565-06:00
38.000000,255.595011,0.670313,7.258946,44.940079,283.005011,90.098969,2.008557,3.000000,-93.172139,12.663178,2025-02-27T19:07:47.000-06:00,-0.271586,-0.950923,0.000040,2025-02-27T19:07:46.558-06:00,0.004310,0.104138,-0.087504,2025-02-27T19:07:46.559-06:00
39.000000,255.671682,0.673872,7.258954,44.940080,283.081682,90.147049,2.004349,3.000000,-93.171979,12.654128,2025-02-27T19:07:48.000-06:00,-0.283419,-0.949173,0.001216,2025-02-27T19:07:47.563-06:00,-0.131559,0.136291,-0.059852,2025-02-27T19:07:47.564-06:00
40.000000,255.546204,0.688464,7.258883,44.940076,282.956204,90.147049,2.002223,3.000000,-93.171823,12.456772,2025-02-27T19:07:49.000-06:00,-0.295129,-0.974394,0.002364,2025-02-27T19:07:48.557-06:00,-0.218934,-0.130017,-0.047357,2025-02-27T19:07:48.558-06:00
41.000000,255.695859,0.677839,7.258871,44.940078,283.105859,90.147049,2.001135,3.000000,-93.171663,12.494485,2025-02-27T19:07:50.000-06:00,-0.297973,-0.941724,0.001141,2025-02-27T19:07:49.562-06:00,-0.255253,0.179111,-0.025245,2025-02-27T19:07:49.563-06:00
42.000000,255.966199,0.696147,7.258225,44.940089,283.376199,90.147049,2.000576,3.000000,-93.171503,12.491264,2025-02-27T19:07:51.000-06:00,-0.304171,-0.932817,0.005574,2025-02-27T19:07:50.566-06:00,-0.284214,0.312277,-0.038688,2025-02-27T19:07:50.558-06:00
43.000000,255.838538,0.690684,7.258934,44.940076,283.248537,90.141251,2.000300,3.000000,-93.171357,11.940178,2025-02-27T19:07:51.999-06:00,-0.286571,-0.980005,-0.009472,2025-02-27T19:07:51.561-06:00,-0.151630,-0.164228,-0.196961,2025-02-27T19:07:51.562-06:00
44.000000,256.058590,0.683547,7.258612,44.940082,283.468589,90.141251,2.276819,3.000000,-93.171209,11.770023,2025-02-27T19:07:52.999-06:00,-0.263891,-0.962245,-0.018561,2025-02-27T19:07:52.566-06:00,0.000878,0.031770,-0.245661,2025-02-27T19:07:52.557-06:00
45.000000,256.311619,0.680284,7.258501,44.940083,283.721619,90.141251,2.287567,3.000000,-93.171060,11.697536,2025-02-27T19:07:53.999-06:00,-0.289679,-0.956002,-0.025911,2025-02-27T19:07:53.560-06:00,-0.204450,0.060868,-0.264098,2025-02-27T19:07:53.562-06:00
46.000000,256.633918,0.676063,7.258152,44.940080,284.043918,90.141251,2.152039,3.000000,-93.170913,11.467241,2025-02-27T19:07:54.999-06:00,-0.308575,-0.955107,0.018573,2025-02-27T19:07:54.565-06:00,-0.339874,0.068311,0.129281,2025-02-27T19:07:54.566-06:00
47.000000,256.658939,0.690656,7.258711,44.940080,284.068939,90.141251,2.082240,3.000000,-93.170776,11.037577,2025-02-27T19:07:55.999-06:00,-0.288223,-0.940730,-0.010986,2025-02-27T19:07:55.560-06:00,-0.175732,0.199140,-0.076632,2025-02-27T19:07:55.561-06:00
48.000000,256.583806,0.683895,7.258971,44.940082,283.993806,90.141251,2.044998,3.000000,-93.170640,10.771493,2025-02-27T19:07:56.999-06:00,-0.266496,-0.964696,0.003644,2025-02-27T19:07:56.564-06:00,0.036624,-0.012790,0.068848,2025-02-27T19:07:56.565-06:00
49.000000,256.914658,0.680457,7.257827,44.940082,284.324658,90.141251,2.269271,3.000000,-93.170507,10.636984,2025-02-27T19:07:57.999-06:00,-0.244472,-0.961989,0.000820,2025-02-27T19:07:57.559-06:00,0.272036,0.009464,0.070082,2025-02-27T19:07:57.560-06:00
50.000000,256.799258,0.677942,7.258837,44.940086,284.209258,90.141251,2.150042,3.000000,-93.170372,10.697946,2025-02-27T19:07:58.999-06:00,-0.265368,-0.965214,-0.004734,2025-02-27T19:07:58.563-06:00,0.090913,-0.031465,0.000238,2025-02-27T19:07:58.565-06:00
51.000000,256.887431,0.669252,7.258185,44.940072,284.297431,90.339104,2.338879,3.000000,-93.170233,10.835247,2025-02-27T19:07:59.999-06:00,-0.292488,-0.948505,-0.019823,2025-02-27T19:07:59.558-06:00,-0.162450,0.126304,-0.154101,2025-02-27T19:07:59.559-06:00
52.000000,256.865052,0.676086,7.258871,44.940079,284.275052,90.339104,2.188589,3.000000,-93.170101,10.620419,2025-02-27T19:08:00.999-06:00,-0.426893,-0.916662,-0.062040,2025-02-27T19:08:00.563-06:00,-1.437972,0.419542,-0.587905,2025-02-27T19:08:00.564-06:00
53.000000,256.827714,0.673754,7.258958,44.940071,284.237714,90.339104,2.105590,3.000000,-93.169981,9.733162,2025-02-27T19:08:01.999-06:00,-0.517248,-0.890248,-0.079730,2025-02-27T19:08:01.557-06:00,-2.213865,0.647618,-0.778145,2025-02-27T19:08:01.559-06:00
54.000000,257.010621,0.701945,7.696845,44.940080,284.420620,90.339104,2.062727,3.000000,-93.169898,7.391160,2025-02-27T19:08:02.999-06:00,-0.429167,-0.910919,-0.040638,2025-02-27T19:08:02.562-06:00,-1.302789,0.427089,-0.399693,2025-02-27T19:08:02.563-06:00
55.000000,257.201606,0.673365,10.391062,44.940075,284.611606,90.187950,2.041166,3.000000,-93.169845,5.246892,2025-02-27T19:08:03.999-06:00,-0.406303,-0.918110,-0.036341,2025-02-27T19:08:03.557-06:00,-0.977927,0.333993,-0.285220,2025-02-27T19:08:03.558-06:00
56.000000,257.216288,0.681301,14.902852,44.940075,284.626288,90.187950,2.030875,3.000000,-93.169808,3.700934,2025-02-27T19:08:04.999-06:00,-0.386852,-0.926220,-0.035159,2025-02-27T19:08:04.561-06:00,-0.642285,0.181710,-0.222647,2025-02-27T19:08:04.562-06:00
57.000000,257.053970,0.672964,25.956025,44.940077,284.463970,90.187950,2.024700,3.000000,-93.169790,2.100488,2025-02-27T19:08:05.999-06:00,-0.272546,-0.960112,-0.005833,2025-02-27T19:08:05.566-06:00,0.529136,-0.134427,0.111121,2025-02-27T19:08:05.557-06:00
58.000000,257.119942,0.830961,40.129941,44.940075,284.529942,90.187950,2.047985,3.000000,-93.169769,1.673622,2025-02-27T19:08:06.999-06:00,-0.217288,-0.975671,0.031185,2025-02-27T19:08:06.560-06:00,1.110401,-0.315348,0.405055,2025-02-27T19:08:06.562-06:00
59.000000,257.502128,0.690135,35.059742,44.940076,284.912128,90.187950,2.135761,3.000000,-93.169752,1.541580,2025-02-27T19:08:07.999-06:00,-0.142467,-0.993301,0.043509,2025-02-27T19:08:07.565-06:00,1.797805,-0.466295,0.481332,2025-02-27T19:08:07.566-06:00
60.000000,257.465476,0.667529,18.954718,44.940078,284.875476,90.187950,2.118791,3.000000,-93.169707,2.853567,2025-02-27T19:08:08.999-06:00,-0.174665,-0.977088,0.050034,2025-02-27T19:08:08.560-06:00,1.421013,-0.282476,0.559849,2025-02-27T19:08:08.561-06:00
61.000000,257.573811,0.664369,14.592029,44.940077,284.983811,90.187950,2.105592,3.000000,-93.169654,3.686898,2025-02-27T19:08:09.999-06:00,-0.154158,-0.994108,0.027106,2025-02-27T19:08:09.564-06:00,1.622336,-0.468644,0.431715,2025-02-27T19:08:09.565-06:00
62.000000,257.592214,0.667747,11.281175,44.940077,285.002214,90.187950,2.095033,3.000000,-93.169586,4.796186,2025-02-27T19:08:10.999-06:00,-0.171663,-1.001731,0.022401,2025-02-27T19:08:10.559-06:00,1.315390,-0.484984,0.376361,2025-02-27T19:08:10.560-06:00
63.000000,257.976077,0.665722,9.329666,44.940075,285.386077,90.187950,2.086393,3.000000,-93.169507,5.758249,2025-02-27T19:08:11.999-06:00,-0.191223,-0.984305,0.030873,2025-02-27T19:08:11.563-06:00,1.110467,-0.310845,0.319325,2025-02-27T19:08:11.565-06:00
64.000000,258.281691,0.677705,8.395683,44.940073,285.691690,90.375908,2.079126,3.000000,-93.169421,6.518344,2025-02-27T19:08:12.999-06:00,-0.194200,-0.980326,0.035748,2025-02-27T19:08:12.558-06:00,0.956556,-0.233220,0.273344,2025-02-27T19:08:12.559-06:00
65.000000,257.952454,0.659103,7.360758,44.940076,285.362454,90.375908,2.068796,3.000000,-93.169323,7.255216,2025-02-27T19:08:13.999-06:00,-0.199999,-0.985813,0.032895,2025-02-27T19:08:13.563-06:00,0.739622,-0.238964,0.243294,2025-02-27T19:08:13.564-06:00
66.000000,258.266870,0.660278,7.251103,44.940077,285.676870,90.460693,2.055803,3.000000,-93.169222,7.799710,2025-02-27T19:08:14.999-06:00,-0.197798,-0.979715,0.023000,2025-02-27T19:08:14.557-06:00,0.649609,-0.146490,0.151681,2025-02-27T19:08:14.559-06:00
67.000000,258.379470,0.656225,7.251648,44.940079,285.789470,90.460693,2.041230,3.000000,-93.169114,8.299760,2025-02-27T19:08:15.999-06:00,-0.249075,-0.958055,0.014992,2025-02-27T19:08:15.562-06:00,0.113894,0.071963,0.019541,2025-02-27T19:08:15.563-06:00
68.000000,258.405058,0.657847,7.254587,44.940080,285.815058,90.460693,2.028665,3.000000,-93.169004,8.552501,2025-02-27T19:08:16.999-06:00,-0.250542,-0.974959,0.028819,2025-02-27T19:08:16.557-06:00,0.057538,-0.104686,0.076367,2025-02-27T19:08:16.558-06:00
69.000000,259.078241,0.657182,7.242820,44.940074,286.488241,90.150787,2.018773,3.000000,-93.168895,8.591453,2025-02-27T19:08:17.999-06:00,-0.201725,-0.968576,0.025837,2025-02-27T19:08:17.561-06:00,0.448313,0.000816,0.112553,2025-02-27T19:08:17.562-06:00
70.000000,259.391414,0.663920,7.248168,44.940075,286.801414,90.150787,2.012292,3.000000,-93.168781,8.865457,2025-02-27T19:08:18.999-06:00,-0.213250,-0.976030,0.033229,2025-02-27T19:08:18.566-06:00,0.346992,-0.076932,0.174747,2025-02-27T19:08:18.557-06:00
71.000000,259.695446,0.658042,7.248998,44.940078,287.105446,90.150787,2.007880,3.000000,-93.168661,9.244272,2025-02-27T19:08:19.999-06:00,-0.254507,-0.964495,0.020211,2025-02-27T19:08:19.560-06:00,-0.052457,0.046137,0.017904,2025-02-27T19:08:19.562-06:00
72.000000,261.271637,0.712588,7.205415,44.940081,288.681637,90.150787,2.004717,3.000000,-93.168512,10.704651,2025-02-27T19:08:20.999-06:00,-0.264801,-0.962597,0.013939,2025-02-27T19:08:20.565-06:00,-0.167826,0.055796,-0.078230,2025-02-27T19:08:20.566-06:00
73.000000,261.211323,0.683758,7.242055,44.940079,288.621322,90.143539,2.002771,3.000000,-93.168412,9.401476,2025-02-27T19:08:21.999-06:00,-0.260051,-0.964231,-0.003650,2025-02-27T19:08:21.560-06:00,-0.139667,0.054217,-0.194383,2025-02-27T19:08:21.561-06:00
74.000000,261.290467,0.681463,7.252676,44.940075,288.700467,90.143539,2.001630,3.000000,-93.168299,9.035497,2025-02-27T19:08:22.999-06:00,-0.269429,-0.960099,0.014973,2025-02-27T19:08:22.564-06:00,-0.228314,0.082188,-0.067062,2025-02-27T19:08:22.566-06:00
75.000000,261.415044,0.675474,7.252404,44.940075,288.825044,90.143539,2.012083,3.000000,-93.168185,8.908593,2025-02-27T19:08:23.999-06:00,-0.281132,-0.954095,0.001067,2025-02-27T19:08:23.559-06:00,-0.348536,0.153339,-0.117878,2025-02-27T19:08:23.560-06:00
76.000000,261.856105,0.675459,7.243856,44.940074,289.266105,90.143539,2.007210,3.000000,-93.168074,8.776122,2025-02-27T19:08:24.999-06:00,-0.295754,-0.954828,-0.002108,2025-02-27T19:08:24.564-06:00,-0.456194,0.130935,-0.178333,2025-02-27T19:08:24.565-06:00
77.000000,261.888839,0.672641,7.252945,44.940075,289.298839,90.143539,2.004354,3.000000,-93.167971,8.309589,2025-02-27T19:08:25.999-06:00,-0.298940,-0.951144,-0.001881,2025-02-27T19:08:25.558-06:00,-0.448991,0.156248,-0.172674,2025-02-27T19:08:25.559-06:00
78.000000,261.974413,0.674031,7.253487,44.940077,289.384413,89.802132,2.002956,3.000000,-93.167878,7.682485,2025-02-27T19:08:26.999-06:00,-0.301734,-0.950024,-0.002304,2025-02-27T19:08:26.563-06:00,-0.477550,0.174513,-0.114707,2025-02-27T19:08:26.564-06:00
79.000000,261.652533,0.681930,7.659066,44.940074,289.062533,89.802132,2.002055,3.000000,-93.167789,7.205384,2025-02-27T19:08:27.999-06:00,-0.294317,-0.951599,-0.012539,2025-02-27T19:08:27.557-06:00,-0.393400,0.150861,-0.198161,2025-02-27T19:08:27.559-06:00
80.000000,262.097987,0.675922,7.972262,44.940077,289.507987,89.802132,2.001459,3.000000,-93.167703,6.859966,2025-02-27T19:08:28.999-06:00,-0.338064,-0.939886,-0.015099,2025-02-27T19:08:28.562-06:00,-0.753766,0.249647,-0.243172,2025-02-27T19:08:28.563-06:00
81.000000,262.258673,0.678316,9.031849,44.940074,289.668673,89.802132,2.001065,3.000000,-93.167631,6.072895,2025-02-27T19:08:29.999-06:00,-0.352127,-0.935163,-0.023363,2025-02-27T19:08:29.557-06:00,-0.855632,0.288134,-0.303227,2025-02-27T19:08:29.558-06:00
82.000000,261.562483,0.765956,11.031573,44.940074,288.972483,89.802132,2.000848,3.000000,-93.167561,5.515358,2025-02-27T19:08:30.999-06:00,-0.362350,-0.932169,-0.019868,2025-02-27T19:08:30.561-06:00,-0.864872,0.277670,-0.280899,2025-02-27T19:08:30.562-06:00
83.000000,262.781895,0.680390,13.356400,44.940073,290.191895,89.802132,2.000707,3.000000,-93.167523,4.061906,2025-02-27T19:08:31.999-06:00,-0.393100,-0.925547,-0.026357,2025-02-27T19:08:31.566-06:00,-1.116523,0.347277,-0.339370,2025-02-27T19:08:31.557-06:00
84.000000,262.341071,0.677982,21.280567,44.940073,289.751071,89.802132,2.000606,3.000000,-93.167500,2.534050,2025-02-27T19:08:32.999-06:00,-0.330008,-0.943326,-0.010466,2025-02-27T19:08:32.560-06:00,-0.439281,0.147973,-0.144441,2025-02-27T19:08:32.562-06:00
85.000000,262.616046,0.689215,31.503841,44.940075,290.026045,89.802132,2.000530,3.000000,-93.167481,1.728773,2025-02-27T19:08:33.999-06:00,-0.301063,-0.951575,-0.003860,2025-02-27T19:08:33.565-06:00,-0.120403,0.057548,-0.047661,2025-02-27T19:08:33.566-06:00
86.000000,262.768950,0.713254,47.245315,44.940076,290.178950,89.613403,2.000471,3.000000,-93.167468,1.115546,2025-02-27T19:08:34.999-06:00,-0.299523,-0.951243,-0.004030,2025-02-27T19:08:34.560-06:00,-0.086382,0.052392,-0.034264,2025-02-27T19:08:34.561-06:00
87.000000,262.793024,0.666713,91.350449,44.940076,290.203024,89.613403,2.000424,3.000000,-93.167462,0.591245,2025-02-27T19:08:35.999-06:00,-0.272879,-0.959605,0.002179,2025-02-27T19:08:35.564-06:00,0.163247,-0.024319,0.038682,2025-02-27T19:08:35.566-06:00
88.000000,262.879756,0.907935,180.000000,44.940078,290.289755,89.613403,2.020457,3.000000,-93.167458,0.276685,2025-02-27T19:08:36.999-06:00,-0.256169,-0.964153,0.008741,2025-02-27T19:08:36.559-06:00,0.273647,-0.051612,0.076060,2025-02-27T19:08:36.560-06:00
89.000000,262.873680,0.929172,180.000000,44.940078,290.283680,89.613403,2.018752,3.000000,-93.167457,0.135321,2025-02-27T19:08:37.999-06:00,-0.238536,-0.968781,0.014916,2025-02-27T19:08:37.564-06:00,0.371693,-0.077242,0.110465,2025-02-27T19:08:37.565-06:00
90.000000,263.069846,0.932098,180.000000,44.940079,290.479846,89.613403,2.164758,3.000000,-93.167454,0.146793,2025-02-27T19:08:38.999-06:00,-0.239104,-0.969296,0.014263,2025-02-27T19:08:38.558-06:00,0.298914,-0.061244,0.089782,2025-02-27T19:08:38.559-06:00
91.000000,263.104759,0.919049,180.000000,44.940079,290.514759,89.613403,2.152989,3.000000,-93.167450,0.281530,2025-02-27T19:08:39.999-06:00,-0.253904,-0.964741,0.009146,2025-02-27T19:08:39.563-06:00,0.111735,-0.006818,0.028623,2025-02-27T19:08:39.564-06:00
92.000000,263.028815,0.917156,180.000000,44.940078,290.438815,89.613403,2.142790,3.000000,-93.167442,0.340402,2025-02-27T19:08:40.999-06:00,-0.228241,-0.971860,0.017931,2025-02-27T19:08:40.557-06:00,0.324237,-0.063642,0.097264,2025-02-27T19:08:40.559-06:00
93.000000,263.121151,0.714306,101.316248,44.940081,290.531151,89.613403,2.133866,3.000000,-93.167436,0.532355,2025-02-27T19:08:41.999-06:00,-0.156465,-0.991854,0.039401,2025-02-27T19:08:41.562-06:00,0.966996,-0.243563,0.297863,2025-02-27T19:08:41.563-06:00
94.000000,263.494597,0.726978,50.526949,44.940074,290.904597,89.613403,2.126218,3.000000,-93.167423,0.986156,2025-02-27T19:08:42.999-06:00,-0.101977,-1.004749,0.055956,2025-02-27T19:08:42.557-06:00,1.467524,-0.362400,0.451548,2025-02-27T19:08:42.558-06:00
95.000000,263.369089,0.669290,22.861217,44.940076,290.779089,89.613403,2.119206,3.000000,-93.167387,2.310184,2025-02-27T19:08:43.999-06:00,-0.138433,-0.998424,0.039757,2025-02-27T19:08:43.561-06:00,1.114418,-0.304480,0.344363,2025-02-27T19:08:43.563-06:00
96.000000,263.230734,0.658426,14.460088,44.940077,290.640733,89.613403,2.112932,3.000000,-93.167334,3.676561,2025-02-27T19:08:44.999-06:00,-0.156624,-0.988912,0.024817,2025-02-27T19:08:44.566-06:00,0.939344,-0.206475,0.255698,2025-02-27T19:08:44.557-06:00
97.000000,263.217828,0.656698,11.257935,44.940077,290.627827,89.604362,2.107285,3.000000,-93.167268,4.725727,2025-02-27T19:08:45.999-06:00,-0.174262,-0.981217,0.018608,2025-02-27T19:08:45.560-06:00,0.780558,-0.135408,0.210517,2025-02-27T19:08:45.562-06:00
98.000000,263.253093,0.655293,9.460790,44.940077,290.663093,89.604362,2.101921,3.000000,-93.167193,5.609961,2025-02-27T19:08:46.999-06:00,-0.221365,-0.983665,0.026451,2025-02-27T19:08:46.565-06:00,0.395469,-0.185481,0.222060,2025-02-27T19:08:46.566-06:00
99.000000,263.405720,0.654588,8.431133,44.940076,290.815720,89.604362,2.096825,3.000000,-93.167110,6.283787,2025-02-27T19:08:47.999-06:00,-0.271174,-0.943016,0.011049,2025-02-27T19:08:47.560-06:00,-0.054245,0.231877,-0.047899,2025-02-27T19:08:47.561-06:00
