seconds_elapsed,location_altitude,location_speedAccuracy,location_bearingAccuracy,location_latitude,location_altitudeAboveMeanSeaLevel,location_bearing,location_horizontalAccuracy,location_verticalAccuracy,location_longitude,location_speed,location_local_time,accelerometerUncalibrated_z,accelerometerUncalibrated_y,accelerometerUncalibrated_x,accelerometerUncalibrated_local_time,accelerometer_z,accelerometer_y,accelerometer_x,accelerometer_local_time
0.000000,245.010932,-0.070000,3.575274,44.941862,272.420932,87.927083,275.261754,7.333333,-93.175650,2.380000,2025-02-27T18:56:48.936-06:00,-0.332465,-0.942239,-0.014192,2025-02-27T18:56:48.896-06:00,-0.340846,0.107871,-0.649143,2025-02-27T18:56:48.897-06:00
1.000000,,,,,,,,,,,,-0.274465,-0.959689,0.002882,2025-02-27T18:56:49.880-06:00,0.237817,-0.066189,-0.478648,2025-02-27T18:56:49.882-06:00
2.000000,248.525818,2.000000,15.248240,44.941467,275.935818,269.296875,6.513529,4.000000,-93.177394,9.140000,2025-02-27T18:56:50.999-06:00,-0.186558,-0.986091,0.032739,2025-02-27T18:56:50.885-06:00,1.054887,-0.310387,-0.171562,2025-02-27T18:56:50.886-06:00
3.000000,247.851929,1.070000,45.789909,44.941439,275.261929,220.429688,4.188083,4.000000,-93.177310,8.470000,2025-02-27T18:56:51.999-06:00,-0.110694,-1.007895,0.059221,2025-02-27T18:56:51.880-06:00,1.695212,-0.492558,0.094305,2025-02-27T18:56:51.881-06:00
4.000000,247.865723,0.300000,4.976858,44.941408,275.275723,170.507812,3.535534,3.000000,-93.177282,3.970000,2025-02-27T18:56:52.999-06:00,-0.135817,-0.997280,0.041527,2025-02-27T18:56:52.884-06:00,1.385345,-0.366761,-0.014052,2025-02-27T18:56:52.886-06:00
5.000000,247.870728,0.090000,1.089206,44.941367,275.280727,180.460403,3.535534,3.000000,-93.177270,5.360000,2025-02-27T18:56:53.999-06:00,-0.158634,-0.989737,0.025060,2025-02-27T18:56:53.879-06:00,1.120675,-0.280200,-0.155423,2025-02-27T18:56:53.880-06:00
6.000000,248.161926,0.300000,3.011961,44.941315,275.571926,180.460403,3.535534,3.000000,-93.177256,6.430000,2025-02-27T18:56:54.999-06:00,-0.190351,-0.983259,0.007758,2025-02-27T18:56:54.884-06:00,0.903581,-0.238661,-0.310497,2025-02-27T18:56:54.885-06:00
7.000000,248.092651,0.170000,1.449860,44.941251,275.502651,180.800781,3.535534,3.000000,-93.177243,6.430000,2025-02-27T18:56:55.999-06:00,-0.201653,-0.990676,0.026049,2025-02-27T18:56:55.888-06:00,0.478535,-0.239868,-0.294767,2025-02-27T18:56:55.880-06:00
8.000000,248.015015,0.090000,0.720795,44.941180,275.425014,180.800781,3.535534,3.000000,-93.177245,7.730000,2025-02-27T18:56:56.999-06:00,-0.216060,-0.971226,0.037565,2025-02-27T18:56:56.883-06:00,0.414784,-0.082721,-0.204632,2025-02-27T18:56:56.884-06:00
9.000000,247.932617,0.370000,2.618856,44.941102,275.342617,180.800781,3.535534,3.000000,-93.177243,9.120000,2025-02-27T18:56:57.999-06:00,-0.219835,-0.977961,0.023879,2025-02-27T18:56:57.888-06:00,0.213014,-0.079457,-0.386887,2025-02-27T18:56:57.879-06:00
10.000000,248.272461,0.440000,2.974685,44.941015,275.682461,179.816452,3.535534,3.000000,-93.177244,9.590000,2025-02-27T18:56:58.999-06:00,-0.231360,-0.969497,0.023890,2025-02-27T18:56:58.882-06:00,0.088116,-0.005409,-0.334806,2025-02-27T18:56:58.884-06:00
11.000000,248.507935,0.200000,1.282344,44.940925,275.917934,179.816452,3.535534,3.000000,-93.177245,9.590000,2025-02-27T18:56:59.999-06:00,-0.230016,-0.968992,0.034806,2025-02-27T18:56:59.887-06:00,0.107865,-0.002378,-0.233096,2025-02-27T18:56:59.888-06:00
12.000000,248.070435,1.190000,6.506926,44.940839,275.480434,179.816452,3.535534,3.000000,-93.177246,9.710000,2025-02-27T18:57:00.999-06:00,-0.265556,-0.962898,0.023190,2025-02-27T18:57:00.882-06:00,-0.250069,0.062220,-0.304108,2025-02-27T18:57:00.883-06:00
13.000000,247.338379,1.260000,5.371687,44.940746,274.748379,179.816452,3.535534,3.000000,-93.177242,10.800000,2025-02-27T18:57:01.999-06:00,-0.284193,-0.957620,0.017218,2025-02-27T18:57:01.886-06:00,-0.439693,0.118553,-0.307519,2025-02-27T18:57:01.888-06:00
14.000000,247.338388,1.260000,9.453321,44.940649,274.748388,180.465057,4.748652,4.029364,-93.177240,10.800000,2025-02-27T18:57:02.999-06:00,-0.268895,-0.959854,0.014973,2025-02-27T18:57:02.881-06:00,-0.292736,0.100263,-0.268463,2025-02-27T18:57:02.882-06:00
15.000000,246.983652,0.840000,7.258975,44.940557,274.393652,180.000000,4.748652,4.029364,-93.177243,11.050000,2025-02-27T18:57:03.999-06:00,-0.252622,-0.971072,0.003190,2025-02-27T18:57:03.886-06:00,-0.140826,-0.003735,-0.274228,2025-02-27T18:57:03.887-06:00
16.000000,247.122568,0.308016,7.258975,44.940464,274.532568,179.867538,4.748652,4.029364,-93.177249,10.800000,2025-02-27T18:57:04.999-06:00,-0.253360,-0.966971,0.008859,2025-02-27T18:57:04.880-06:00,-0.132670,0.034161,-0.170073,2025-02-27T18:57:04.882-06:00
17.000000,247.179148,0.370000,7.258975,44.940365,274.589148,179.867538,4.748652,4.029364,-93.177250,11.030000,2025-02-27T18:57:05.999-06:00,-0.279910,-0.954672,-0.006615,2025-02-27T18:57:05.885-06:00,-0.408031,0.159658,-0.273637,2025-02-27T18:57:05.886-06:00
18.000000,247.238231,0.420000,7.258975,44.940260,274.648230,179.867538,4.748652,4.029364,-93.177258,11.480000,2025-02-27T18:57:06.999-06:00,-0.264971,-0.974491,0.003022,2025-02-27T18:57:06.880-06:00,-0.287595,-0.028654,-0.188090,2025-02-27T18:57:06.881-06:00
19.000000,247.146678,0.390000,7.258975,44.940156,274.556678,179.867538,4.748652,4.029364,-93.177254,11.480000,2025-02-27T18:57:07.999-06:00,-0.224219,-0.920257,-0.007240,2025-02-27T18:57:07.884-06:00,0.167928,0.491146,-0.099231,2025-02-27T18:57:07.886-06:00
20.000000,247.441600,0.308016,7.258975,44.940055,274.851599,179.867538,4.748652,4.029364,-93.177257,11.370000,2025-02-27T18:57:08.999-06:00,-0.275830,-1.015190,-0.008202,2025-02-27T18:57:08.879-06:00,-0.140448,-0.491413,-0.111983,2025-02-27T18:57:08.880-06:00
21.000000,247.373545,0.308016,7.258975,44.939951,274.783545,180.188141,4.748652,4.029364,-93.177260,11.370000,2025-02-27T18:57:09.999-06:00,-0.242390,-0.938692,-0.000492,2025-02-27T18:57:09.884-06:00,0.027211,0.298354,-0.233702,2025-02-27T18:57:09.885-06:00
22.000000,247.065075,0.320000,7.258975,44.939839,274.475075,180.188141,4.748652,4.029364,-93.177261,12.070000,2025-02-27T18:57:10.999-06:00,-0.258732,-0.968651,0.012397,2025-02-27T18:57:10.879-06:00,-0.061555,-0.013928,-0.142201,2025-02-27T18:57:10.880-06:00
23.000000,246.924450,1.490000,10.002686,44.939733,274.334450,180.188141,4.748652,4.029364,-93.177257,12.070000,2025-02-27T18:57:11.999-06:00,-0.271104,-0.968141,0.013260,2025-02-27T18:57:11.883-06:00,-0.206072,0.002219,-0.092309,2025-02-27T18:57:11.884-06:00
24.000000,246.985607,0.870000,7.258975,44.939619,274.395607,179.648438,4.748652,4.029364,-93.177251,12.070000,2025-02-27T18:57:12.999-06:00,-0.273561,-0.964561,-0.002813,2025-02-27T18:57:12.888-06:00,-0.235401,0.029804,-0.267720,2025-02-27T18:57:12.879-06:00
25.000000,247.082715,0.308016,7.258975,44.939503,274.492715,180.000000,4.748652,4.029364,-93.177250,12.420000,2025-02-27T18:57:13.999-06:00,-0.275713,-0.954762,0.005557,2025-02-27T18:57:13.883-06:00,-0.224525,0.120321,-0.244298,2025-02-27T18:57:13.884-06:00
26.000000,247.109815,0.308016,7.258975,44.939392,274.519814,179.648438,4.748652,4.029364,-93.177246,12.480000,2025-02-27T18:57:14.999-06:00,-0.278303,-0.955521,0.017176,2025-02-27T18:57:14.887-06:00,-0.213495,0.103561,-0.121140,2025-02-27T18:57:14.888-06:00
27.000000,247.113537,0.590000,7.258975,44.939284,274.523537,180.703124,4.748652,4.029364,-93.177249,12.380000,2025-02-27T18:57:15.999-06:00,-0.300693,-0.951007,0.013332,2025-02-27T18:57:15.882-06:00,-0.414630,0.144199,-0.112551,2025-02-27T18:57:15.883-06:00
28.000000,247.254590,0.308016,7.258975,44.939171,274.664590,180.307236,4.748652,4.029364,-93.177251,12.500000,2025-02-27T18:57:16.999-06:00,-0.301813,-0.952253,0.011632,2025-02-27T18:57:16.887-06:00,-0.456663,0.141491,-0.073295,2025-02-27T18:57:16.888-06:00
29.000000,247.172864,0.308016,7.258975,44.939061,274.582863,180.307236,4.748652,4.029364,-93.177250,12.380000,2025-02-27T18:57:17.999-06:00,-0.273145,-0.945567,0.010020,2025-02-27T18:57:17.881-06:00,-0.105305,0.189531,-0.004905,2025-02-27T18:57:17.882-06:00
30.000000,247.223278,0.308016,7.258975,44.938957,274.633278,180.307236,4.748652,4.029364,-93.177248,12.080000,2025-02-27T18:57:18.999-06:00,-0.288161,-0.972219,0.027247,2025-02-27T18:57:18.886-06:00,-0.188312,-0.091974,0.041533,2025-02-27T18:57:18.887-06:00
31.000000,247.096019,0.360000,7.258975,44.938854,274.506019,180.290619,4.748652,4.029364,-93.177243,11.840000,2025-02-27T18:57:19.999-06:00,-0.257714,-0.963062,0.025149,2025-02-27T18:57:19.881-06:00,0.044632,0.017054,0.066189,2025-02-27T18:57:19.882-06:00
32.000000,247.171215,1.460000,9.874923,44.938746,274.581215,180.290619,4.748652,4.029364,-93.177232,11.980000,2025-02-27T18:57:20.999-06:00,-0.287979,-0.953496,0.016246,2025-02-27T18:57:20.885-06:00,-0.252431,0.111777,0.018386,2025-02-27T18:57:20.886-06:00
33.000000,247.655774,2.370000,15.192837,44.938626,275.065774,180.290619,4.748652,4.029364,-93.177229,12.640000,2025-02-27T18:57:21.999-06:00,-0.293325,-0.952278,-0.019712,2025-02-27T18:57:21.880-06:00,-0.273031,0.115564,-0.286291,2025-02-27T18:57:21.881-06:00
34.000000,250.624145,1.274733,8.617159,44.938504,278.034145,180.290619,2.861654,3.000000,-93.177207,11.983571,2025-02-27T18:57:22.999-06:00,-0.268442,-0.964218,-0.050307,2025-02-27T18:57:22.885-06:00,-0.021344,-0.003344,-0.547715,2025-02-27T18:57:22.886-06:00
35.000000,250.714746,1.272763,8.788842,44.938397,278.124746,180.290619,2.166296,3.000000,-93.177231,11.733119,2025-02-27T18:57:23.999-06:00,-0.248398,-0.960562,-0.074088,2025-02-27T18:57:23.879-06:00,0.169976,0.034141,-0.719311,2025-02-27T18:57:23.881-06:00
36.000000,250.922004,1.278809,8.927104,44.938291,278.332004,180.000000,2.083148,3.000000,-93.177230,11.607338,2025-02-27T18:57:24.999-06:00,-0.255497,-0.963176,-0.014999,2025-02-27T18:57:24.884-06:00,0.167358,-0.010640,-0.232137,2025-02-27T18:57:24.885-06:00
37.000000,251.139358,1.280282,8.885356,44.938186,278.549358,180.000000,2.044327,3.000000,-93.177208,11.675434,2025-02-27T18:57:25.999-06:00,-0.274399,-0.959822,0.045726,2025-02-27T18:57:25.879-06:00,0.021949,0.009807,0.283467,2025-02-27T18:57:25.880-06:00
38.000000,251.363582,1.278914,8.776066,44.938079,278.773582,180.000000,2.023487,3.000000,-93.177228,11.808030,2025-02-27T18:57:26.999-06:00,-0.284712,-0.965926,0.060602,2025-02-27T18:57:26.883-06:00,-0.075838,-0.068155,0.334135,2025-02-27T18:57:26.885-06:00
39.000000,251.469271,1.282501,8.752822,44.937971,278.879271,180.000000,2.012337,3.000000,-93.177237,11.872604,2025-02-27T18:57:27.999-06:00,-0.263914,-0.955577,0.016376,2025-02-27T18:57:27.888-06:00,0.017605,0.095242,0.054130,2025-02-27T18:57:27.879-06:00
40.000000,251.775851,1.280777,8.729442,44.937863,279.185851,180.000000,2.006478,3.000000,-93.177237,11.888112,2025-02-27T18:57:28.999-06:00,-0.266531,-0.942808,0.023120,2025-02-27T18:57:28.883-06:00,0.125016,0.181455,0.155023,2025-02-27T18:57:28.884-06:00
41.000000,251.787268,0.692116,7.258853,44.937746,279.197268,180.258347,2.003385,3.000000,-93.177234,12.825126,2025-02-27T18:57:29.999-06:00,-0.283392,-0.983349,0.027442,2025-02-27T18:57:29.887-06:00,-0.013463,-0.244104,0.072070,2025-02-27T18:57:29.879-06:00
42.000000,251.733339,0.687348,7.258625,44.937636,279.143339,180.258347,2.001733,3.000000,-93.177233,12.567884,2025-02-27T18:57:30.999-06:00,-0.278124,-0.949410,0.019017,2025-02-27T18:57:30.882-06:00,-0.004117,0.108468,0.001220,2025-02-27T18:57:30.883-06:00
43.000000,252.398055,0.685730,7.257596,44.937526,279.808055,180.258347,2.087565,3.000000,-93.177231,12.377514,2025-02-27T18:57:31.999-06:00,-0.268214,-0.963249,0.017483,2025-02-27T18:57:31.887-06:00,0.107231,-0.031402,-0.015630,2025-02-27T18:57:31.888-06:00
44.000000,251.907202,0.680771,7.258227,44.937412,279.317202,180.258347,2.044938,3.000000,-93.177235,12.516035,2025-02-27T18:57:32.999-06:00,-0.249057,-0.957548,0.033419,2025-02-27T18:57:32.881-06:00,0.273408,0.030887,0.145472,2025-02-27T18:57:32.883-06:00
45.000000,251.684591,0.831569,7.258048,44.937299,279.094591,180.129593,2.863103,3.000000,-93.177227,12.655496,2025-02-27T18:57:33.999-06:00,-0.243411,-0.969216,0.020358,2025-02-27T18:57:33.886-06:00,0.327495,-0.082194,0.072563,2025-02-27T18:57:33.887-06:00
46.000000,252.173309,0.683968,7.258968,44.937187,279.583309,180.129593,2.440532,3.000000,-93.177221,12.464545,2025-02-27T18:57:34.999-06:00,-0.270879,-0.969413,0.016313,2025-02-27T18:57:34.881-06:00,0.051946,-0.082786,0.010353,2025-02-27T18:57:34.882-06:00
47.000000,252.323447,0.693810,7.258962,44.937061,279.733447,180.129593,2.217998,3.000000,-93.177234,13.213116,2025-02-27T18:57:35.999-06:00,-0.253286,-0.936215,-0.002812,2025-02-27T18:57:35.885-06:00,0.214489,0.246255,-0.026911,2025-02-27T18:57:35.887-06:00
48.000000,252.625177,0.718258,7.258682,44.936941,280.035177,180.129593,2.107566,3.000000,-93.177233,13.315669,2025-02-27T18:57:36.999-06:00,-0.277232,-0.976071,0.017846,2025-02-27T18:57:36.880-06:00,0.047636,-0.164181,0.087591,2025-02-27T18:57:36.881-06:00
49.000000,252.318288,0.704079,7.258692,44.936816,279.728288,180.000000,2.052405,3.000000,-93.177227,13.627712,2025-02-27T18:57:37.999-06:00,-0.268354,-0.962342,0.005880,2025-02-27T18:57:37.885-06:00,0.056574,-0.006917,-0.034992,2025-02-27T18:57:37.886-06:00
50.000000,252.403382,0.680327,7.258964,44.936691,279.813382,180.000000,2.025328,3.000000,-93.177228,13.794046,2025-02-27T18:57:38.999-06:00,-0.263417,-0.967714,-0.000550,2025-02-27T18:57:38.879-06:00,0.092220,-0.055702,-0.065533,2025-02-27T18:57:38.881-06:00
51.000000,252.588066,0.685979,7.258917,44.936571,279.998066,180.000000,2.012365,3.000000,-93.177225,13.598902,2025-02-27T18:57:39.999-06:00,-0.273279,-0.961480,0.001580,2025-02-27T18:57:39.884-06:00,-0.021000,0.010075,0.005140,2025-02-27T18:57:39.885-06:00
52.000000,251.781580,0.701048,7.255331,44.936452,279.191580,180.115829,2.006034,3.000000,-93.177231,13.379339,2025-02-27T18:57:40.999-06:00,-0.283773,-0.941288,-0.011565,2025-02-27T18:57:40.879-06:00,-0.161287,0.218636,-0.131292,2025-02-27T18:57:40.880-06:00
53.000000,252.126455,0.686476,7.258888,44.936324,279.536455,180.115829,2.002882,3.000000,-93.177227,13.720161,2025-02-27T18:57:41.999-06:00,-0.294497,-0.965917,0.004890,2025-02-27T18:57:41.883-06:00,-0.268161,-0.012239,0.054696,2025-02-27T18:57:41.885-06:00
54.000000,251.667597,0.682774,7.257554,44.936203,279.077596,180.115829,2.030444,3.000000,-93.177227,13.517862,2025-02-27T18:57:42.999-06:00,-0.272648,-0.954648,-0.014958,2025-02-27T18:57:42.888-06:00,-0.046548,0.074379,-0.127016,2025-02-27T18:57:42.879-06:00
55.000000,252.011174,0.676388,7.258947,44.936085,279.421174,180.115829,2.014886,3.000000,-93.177225,13.256365,2025-02-27T18:57:43.999-06:00,-0.278772,-0.955410,0.004644,2025-02-27T18:57:43.883-06:00,0.068275,0.025691,-0.060789,2025-02-27T18:57:43.884-06:00
56.000000,252.253256,0.675098,7.258943,44.935959,279.663256,180.000000,2.010781,3.000000,-93.177230,13.648043,2025-02-27T18:57:44.999-06:00,-0.279141,-0.965261,0.013736,2025-02-27T18:57:44.887-06:00,-0.056816,-0.032018,0.046492,2025-02-27T18:57:44.879-06:00
57.000000,252.746485,0.683466,7.257550,44.935837,280.156485,180.000000,2.005236,3.000000,-93.177234,13.556139,2025-02-27T18:57:45.999-06:00,-0.270251,-0.957380,-0.001970,2025-02-27T18:57:45.882-06:00,-0.014812,0.057116,-0.001877,2025-02-27T18:57:45.883-06:00
58.000000,252.664095,0.690554,7.258566,44.935718,280.074095,180.000000,2.002561,3.000000,-93.177234,13.384582,2025-02-27T18:57:46.999-06:00,-0.267735,-0.961986,-0.006282,2025-02-27T18:57:46.887-06:00,0.022088,0.008505,-0.030510,2025-02-27T18:57:46.888-06:00
59.000000,252.587957,0.696586,7.258960,44.935595,279.997957,180.000000,2.001250,3.000000,-93.177235,13.503879,2025-02-27T18:57:47.999-06:00,-0.298743,-0.948192,-0.010362,2025-02-27T18:57:47.881-06:00,-0.249962,0.134689,-0.106072,2025-02-27T18:57:47.883-06:00
60.000000,252.791117,0.683013,7.258924,44.935472,280.201117,180.000000,2.000605,3.000000,-93.177238,13.539933,2025-02-27T18:57:48.999-06:00,-0.303228,-0.953346,-0.012776,2025-02-27T18:57:48.886-06:00,-0.296733,0.085006,-0.098547,2025-02-27T18:57:48.887-06:00
61.000000,252.985466,0.682717,7.258672,44.935352,280.395466,180.000000,2.000295,3.000000,-93.177241,13.374863,2025-02-27T18:57:49.999-06:00,-0.306612,-0.958645,-0.007810,2025-02-27T18:57:49.881-06:00,-0.329689,0.032987,-0.086640,2025-02-27T18:57:49.882-06:00
62.000000,252.952230,0.756872,7.258886,44.935260,280.362230,180.000000,2.000153,3.000000,-93.177249,11.585817,2025-02-27T18:57:50.999-06:00,-0.290146,-0.933905,-0.015212,2025-02-27T18:57:50.885-06:00,-0.157982,0.272058,-0.070203,2025-02-27T18:57:50.887-06:00
63.000000,252.796656,0.689467,7.258931,44.935133,280.206655,180.247803,2.018024,3.000000,-93.177236,12.468868,2025-02-27T18:57:51.999-06:00,-0.310516,-0.957027,0.013939,2025-02-27T18:57:51.880-06:00,-0.208973,0.002121,0.098882,2025-02-27T18:57:51.881-06:00
64.000000,252.955802,0.709831,7.258870,44.935018,280.365802,180.247803,2.009169,3.000000,-93.177234,12.505661,2025-02-27T18:57:52.999-06:00,-0.332590,-0.943328,0.015623,2025-02-27T18:57:52.885-06:00,-0.486613,0.154820,0.111181,2025-02-27T18:57:52.886-06:00
65.000000,252.881093,0.699237,7.258661,44.934912,280.291093,180.247818,2.004714,3.000000,-93.177233,12.006255,2025-02-27T18:57:53.999-06:00,-0.372546,-0.935156,-0.008524,2025-02-27T18:57:53.879-06:00,-0.843486,0.224634,-0.069639,2025-02-27T18:57:53.881-06:00
66.000000,253.130933,0.691300,7.258961,44.934809,280.540933,180.247818,2.002463,3.000000,-93.177228,11.416907,2025-02-27T18:57:54.999-06:00,-0.369786,-0.930037,-0.037469,2025-02-27T18:57:54.884-06:00,-0.803433,0.270820,-0.311368,2025-02-27T18:57:54.885-06:00
67.000000,253.483409,0.696533,7.258337,44.934717,280.893408,180.247818,2.001335,3.000000,-93.177217,10.570848,2025-02-27T18:57:55.999-06:00,-0.389510,-0.921666,-0.049972,2025-02-27T18:57:55.879-06:00,-0.970153,0.344577,-0.398949,2025-02-27T18:57:55.880-06:00
68.000000,252.950948,0.688975,7.252735,44.934638,280.360948,176.018488,2.000761,3.000000,-93.177208,9.235190,2025-02-27T18:57:56.999-06:00,-0.408544,-0.924524,-0.060988,2025-02-27T18:57:56.883-06:00,-1.063919,0.291297,-0.445873,2025-02-27T18:57:56.885-06:00
69.000000,253.403456,0.717826,7.271402,44.934570,280.813456,174.141613,2.236963,3.000000,-93.177196,8.000317,2025-02-27T18:57:57.999-06:00,-0.404985,-0.921120,-0.061933,2025-02-27T18:57:57.888-06:00,-0.943545,0.286198,-0.366437,2025-02-27T18:57:57.879-06:00
70.000000,255.607905,0.717492,7.977379,44.934507,283.017905,179.903890,2.145900,3.000000,-93.177208,6.903683,2025-02-27T18:57:58.999-06:00,-0.375449,-0.932231,-0.055782,2025-02-27T18:57:58.883-06:00,-0.569122,0.154469,-0.235128,2025-02-27T18:57:58.884-06:00
71.000000,255.051830,0.699351,10.611949,44.934467,282.461830,178.231032,2.165594,3.000000,-93.177203,5.261676,2025-02-27T18:57:59.999-06:00,-0.369193,-0.930332,-0.047155,2025-02-27T18:57:59.887-06:00,-0.519409,0.169928,-0.155338,2025-02-27T18:57:59.879-06:00
