seconds_elapsed,location_altitude,location_speedAccuracy,location_bearingAccuracy,location_latitude,location_altitudeAboveMeanSeaLevel,location_bearing,location_horizontalAccuracy,location_verticalAccuracy,location_longitude,location_speed,location_local_time,accelerometerUncalibrated_z,accelerometerUncalibrated_y,accelerometerUncalibrated_x,accelerometerUncalibrated_local_time,accelerometer_z,accelerometer_y,accelerometer_x,accelerometer_local_time
0.000000,265.047262,-1.000000,-1.000000,44.940056,292.457262,-1.000000,185.360996,4.520646,-93.166711,-1.000000,2025-02-27T19:23:31.517-06:00,-0.268087,-0.964289,-0.170077,2025-02-27T19:23:31.504-06:00,-0.090281,0.022259,-1.651555,2025-02-27T19:23:31.510-06:00
1.000000,263.973389,1.410000,22.657787,44.940042,291.383389,219.726562,7.071514,4.000000,-93.167343,5.170000,2025-02-27T19:23:32.999-06:00,-0.247719,-0.966213,-0.062869,2025-02-27T19:23:32.499-06:00,0.124689,-0.014961,-0.490415,2025-02-27T19:23:32.495-06:00
2.000000,263.774780,0.730000,10.911944,44.940103,291.184780,267.890625,4.255728,4.000000,-93.167372,4.360000,2025-02-27T19:23:33.999-06:00,-0.264330,-0.959771,0.009806,2025-02-27T19:23:33.493-06:00,-0.000214,0.045221,0.264420,2025-02-27T19:23:33.500-06:00
3.000000,263.742310,0.710000,7.887298,44.940111,291.152309,269.613403,3.535534,4.000000,-93.167432,4.360000,2025-02-27T19:23:34.999-06:00,-0.264972,-0.966760,-0.010688,2025-02-27T19:23:34.498-06:00,-0.061987,-0.011048,0.135401,2025-02-27T19:23:34.494-06:00
4.000000,262.958496,0.110000,1.339423,44.940119,290.368496,269.802124,3.535534,3.000000,-93.167489,5.310000,2025-02-27T19:23:35.999-06:00,-0.294976,-0.947103,-0.008808,2025-02-27T19:23:35.493-06:00,-0.329081,0.180021,0.206872,2025-02-27T19:23:35.499-06:00
5.000000,262.682129,0.090000,1.232325,44.940129,290.092129,269.802124,3.535534,3.000000,-93.167543,5.310000,2025-02-27T19:23:36.999-06:00,-0.272854,-0.958402,-0.001178,2025-02-27T19:23:36.497-06:00,-0.080372,0.047751,0.261354,2025-02-27T19:23:36.494-06:00
6.000000,262.697144,0.080000,0.950065,44.940115,290.107143,269.802124,3.535534,3.000000,-93.167610,5.310000,2025-02-27T19:23:37.999-06:00,-0.232859,-0.969165,0.029116,2025-02-27T19:23:37.492-06:00,0.315958,-0.056683,0.521254,2025-02-27T19:23:37.498-06:00
7.000000,262.450195,0.070000,0.756694,44.940129,289.860195,269.802124,3.535534,3.000000,-93.167691,5.640000,2025-02-27T19:23:38.999-06:00,-0.227144,-0.969858,0.024805,2025-02-27T19:23:38.497-06:00,0.398393,-0.065534,0.507513,2025-02-27T19:23:38.493-06:00
8.000000,262.288391,0.080000,0.724214,44.940115,289.698391,269.802124,3.535534,3.000000,-93.167783,7.520000,2025-02-27T19:23:39.999-06:00,-0.230516,-0.974434,0.028823,2025-02-27T19:23:39.501-06:00,0.363487,-0.093484,0.454937,2025-02-27T19:23:39.497-06:00
9.000000,261.887329,0.070000,0.588495,44.940115,289.297329,269.802124,3.535534,3.000000,-93.167882,8.460000,2025-02-27T19:23:40.999-06:00,-0.235592,-0.969261,0.023703,2025-02-27T19:23:40.496-06:00,0.333484,-0.087584,0.405102,2025-02-27T19:23:40.492-06:00
10.000000,261.656006,0.080000,0.609322,44.940115,289.066006,270.143555,3.535534,3.000000,-93.167993,8.460000,2025-02-27T19:23:41.999-06:00,-0.243787,-0.964798,0.018375,2025-02-27T19:23:41.500-06:00,0.192182,0.011420,0.336783,2025-02-27T19:23:41.497-06:00
11.000000,260.544678,0.380000,2.533110,44.940115,287.954678,270.143555,3.535534,3.000000,-93.168111,9.150000,2025-02-27T19:23:42.999-06:00,-0.249341,-0.974570,0.027567,2025-02-27T19:23:42.495-06:00,0.138701,-0.073555,0.393510,2025-02-27T19:23:42.501-06:00
12.000000,259.574951,1.790000,8.309489,44.940115,286.984951,270.143555,3.535534,3.000000,-93.168232,9.960000,2025-02-27T19:23:43.999-06:00,-0.298750,-0.940100,-0.003720,2025-02-27T19:23:43.500-06:00,-0.303731,0.202061,0.096612,2025-02-27T19:23:43.496-06:00
13.000000,259.574959,1.790000,14.562345,44.940116,286.984959,270.143555,4.748652,4.029364,-93.168358,9.960000,2025-02-27T19:23:44.999-06:00,-0.308592,-0.946141,0.013545,2025-02-27T19:23:44.494-06:00,-0.418820,0.176060,0.144546,2025-02-27T19:23:44.501-06:00
14.000000,259.646188,1.080000,8.521007,44.940116,287.056187,270.150787,4.748652,4.029364,-93.168485,10.270000,2025-02-27T19:23:45.999-06:00,-0.289268,-0.958230,0.013897,2025-02-27T19:23:45.499-06:00,-0.186613,0.044183,0.193975,2025-02-27T19:23:45.495-06:00
15.000000,259.003792,0.308016,7.258975,44.940116,286.413792,270.150787,4.748652,4.029364,-93.168611,10.270000,2025-02-27T19:23:46.999-06:00,-0.287989,-0.957505,0.013921,2025-02-27T19:23:46.494-06:00,-0.166148,0.045584,0.159687,2025-02-27T19:23:46.500-06:00
16.000000,258.525033,0.308016,7.258975,44.940116,285.935033,270.150787,4.748652,4.029364,-93.168745,10.360000,2025-02-27T19:23:47.999-06:00,-0.313315,-0.943366,0.008309,2025-02-27T19:23:47.498-06:00,-0.438574,0.198188,0.096464,2025-02-27T19:23:47.494-06:00
17.000000,258.329294,0.308016,7.258975,44.940117,285.739294,270.150787,4.748652,4.029364,-93.168890,10.970000,2025-02-27T19:23:48.999-06:00,-0.317213,-0.947259,0.000939,2025-02-27T19:23:48.493-06:00,-0.443253,0.135226,0.071940,2025-02-27T19:23:48.499-06:00
18.000000,257.881968,0.390000,7.258975,44.940117,285.291967,270.460693,4.748652,4.029364,-93.169031,11.000000,2025-02-27T19:23:49.999-06:00,-0.317179,-0.944638,0.008149,2025-02-27T19:23:49.497-06:00,-0.443751,0.184740,0.104426,2025-02-27T19:23:49.494-06:00
19.000000,257.797861,0.840000,7.258975,44.940118,285.207861,270.460693,4.748652,4.029364,-93.169163,10.970000,2025-02-27T19:23:50.999-06:00,-0.538229,-0.880973,-0.087184,2025-02-27T19:23:50.492-06:00,-2.506324,0.775003,-0.713083,2025-02-27T19:23:50.498-06:00
20.000000,257.272653,0.350000,7.258975,44.940119,284.682653,270.375916,4.748652,4.029364,-93.169297,10.690000,2025-02-27T19:23:51.999-06:00,-0.378510,-0.930327,-0.048817,2025-02-27T19:23:51.497-06:00,-0.928411,0.256831,-0.272186,2025-02-27T19:23:51.493-06:00
21.000000,256.856450,0.380000,7.258975,44.940119,284.266450,270.375916,4.748652,4.029364,-93.169358,7.480000,2025-02-27T19:23:52.999-06:00,-0.283817,-0.957209,-0.013383,2025-02-27T19:23:52.501-06:00,0.050762,0.006005,0.060596,2025-02-27T19:23:52.498-06:00
22.000000,256.622197,0.308016,7.258975,44.940120,284.032197,270.375916,4.748652,4.029364,-93.169454,7.480000,2025-02-27T19:23:53.999-06:00,-0.245444,-0.960217,0.022364,2025-02-27T19:23:53.496-06:00,0.324040,0.015670,0.301397,2025-02-27T19:23:53.492-06:00
23.000000,256.316777,0.308016,7.258975,44.940120,283.726777,270.000000,4.748652,4.029364,-93.169558,7.480000,2025-02-27T19:23:54.999-06:00,-0.233515,-0.989349,0.015705,2025-02-27T19:23:54.501-06:00,0.569804,-0.358257,0.295726,2025-02-27T19:23:54.497-06:00
24.000000,255.862920,0.308016,7.258975,44.940120,283.272920,270.000000,4.748652,4.029364,-93.169672,8.020000,2025-02-27T19:23:55.999-06:00,-0.225079,-0.959872,0.000967,2025-02-27T19:23:55.495-06:00,0.593271,-0.003793,0.160560,2025-02-27T19:23:55.492-06:00
25.000000,255.729988,0.450000,7.258975,44.940120,283.139987,270.187958,4.748652,4.029364,-93.169806,9.450000,2025-02-27T19:23:56.999-06:00,-0.233228,-0.978746,0.024653,2025-02-27T19:23:56.500-06:00,0.524355,-0.190327,0.158118,2025-02-27T19:23:56.496-06:00
26.000000,255.481576,0.308016,7.258975,44.940120,282.891576,270.187958,4.748652,4.029364,-93.169939,10.270000,2025-02-27T19:23:57.999-06:00,-0.255418,-0.959190,0.020777,2025-02-27T19:23:57.495-06:00,0.252315,0.011616,0.178092,2025-02-27T19:23:57.501-06:00
27.000000,255.332955,0.308016,7.258975,44.940150,282.742955,269.999908,4.748652,4.029364,-93.170074,10.270000,2025-02-27T19:23:58.999-06:00,-0.255639,-0.970160,0.015949,2025-02-27T19:23:58.499-06:00,0.294635,-0.122179,0.105780,2025-02-27T19:23:58.495-06:00
28.000000,255.440134,0.308017,7.258975,44.940150,282.850134,270.703028,4.748652,4.029364,-93.170222,10.820000,2025-02-27T19:23:59.999-06:00,-0.260743,-0.963159,0.016331,2025-02-27T19:23:59.494-06:00,0.146125,-0.013493,0.119322,2025-02-27T19:23:59.500-06:00
29.000000,255.446788,0.308017,7.258975,44.940146,282.856788,270.351459,4.748652,4.029364,-93.170376,11.570000,2025-02-27T19:24:00.999-06:00,-0.266883,-0.958834,0.006171,2025-02-27T19:24:00.498-06:00,0.118851,0.008608,0.063388,2025-02-27T19:24:00.495-06:00
30.000000,255.556102,0.308017,7.258975,44.940147,282.966102,270.351456,4.748652,4.029364,-93.170527,11.860000,2025-02-27T19:24:01.999-06:00,-0.302523,-0.950598,-0.000205,2025-02-27T19:24:01.493-06:00,-0.221695,0.106881,-0.078582,2025-02-27T19:24:01.499-06:00
31.000000,255.324230,0.308017,7.258975,44.940123,282.734230,270.141266,4.748652,4.029364,-93.170679,11.860000,2025-02-27T19:24:02.999-06:00,-0.306401,-0.955899,0.006620,2025-02-27T19:24:02.498-06:00,-0.274159,0.029997,-0.028617,2025-02-27T19:24:02.494-06:00
32.000000,255.311413,0.308017,7.258975,44.940123,282.721412,270.141266,4.748652,4.029364,-93.170833,11.960000,2025-02-27T19:24:03.999-06:00,-0.280266,-0.946208,0.011695,2025-02-27T19:24:03.492-06:00,-0.038033,0.159357,0.037814,2025-02-27T19:24:03.499-06:00
33.000000,256.379713,1.268545,8.696288,44.940138,283.789713,270.141266,2.000000,3.000000,-93.170985,11.817438,2025-02-27T19:24:04.999-06:00,-0.278227,-0.959685,0.022866,2025-02-27T19:24:04.497-06:00,0.023287,-0.012707,0.103891,2025-02-27T19:24:04.493-06:00
34.000000,256.344682,1.267639,8.608041,44.940136,283.754682,270.141266,2.000000,3.000000,-93.171137,11.930838,2025-02-27T19:24:05.999-06:00,-0.258841,-0.963562,0.015728,2025-02-27T19:24:05.492-06:00,0.183658,-0.009836,0.129942,2025-02-27T19:24:05.498-06:00
35.000000,256.473250,1.268182,8.432238,44.940137,283.883249,270.141266,2.329015,3.000000,-93.171293,12.186134,2025-02-27T19:24:06.999-06:00,-0.254958,-0.956989,0.003930,2025-02-27T19:24:06.496-06:00,0.151373,0.053485,0.075464,2025-02-27T19:24:06.492-06:00
36.000000,256.229160,1.271480,8.207197,44.940137,283.639160,270.141266,2.167073,3.000000,-93.171459,12.552063,2025-02-27T19:24:07.999-06:00,-0.265653,-0.966651,0.007286,2025-02-27T19:24:07.501-06:00,0.113731,-0.088273,0.004943,2025-02-27T19:24:07.497-06:00
37.000000,256.142151,0.646494,7.258935,44.940135,283.552151,270.147034,2.083728,3.000000,-93.171630,13.096664,2025-02-27T19:24:08.999-06:00,-0.287266,-0.969077,0.017644,2025-02-27T19:24:08.495-06:00,-0.133877,-0.064324,0.054111,2025-02-27T19:24:08.492-06:00
38.000000,255.768211,0.644606,7.258050,44.940133,283.178211,270.147034,2.095590,3.000000,-93.171802,13.352906,2025-02-27T19:24:09.999-06:00,-0.267722,-0.954657,-0.000479,2025-02-27T19:24:09.500-06:00,0.025659,0.084668,-0.146419,2025-02-27T19:24:09.496-06:00
39.000000,255.839602,0.643842,7.258869,44.940133,283.249602,270.147034,2.047069,3.000000,-93.171970,13.356607,2025-02-27T19:24:10.999-06:00,-0.282668,-0.951872,0.009234,2025-02-27T19:24:10.495-06:00,-0.109109,0.139672,-0.034160,2025-02-27T19:24:10.501-06:00
40.000000,255.615908,0.644465,7.258556,44.940137,283.025908,270.098969,2.023040,3.000000,-93.172144,13.581716,2025-02-27T19:24:11.999-06:00,-0.281272,-0.963784,0.013037,2025-02-27T19:24:11.499-06:00,-0.114884,-0.044839,-0.009915,2025-02-27T19:24:11.496-06:00
41.000000,255.871359,0.643111,7.258728,44.940138,283.281359,270.098969,2.011283,3.000000,-93.172312,13.387512,2025-02-27T19:24:12.999-06:00,-0.275998,-0.938970,0.006015,2025-02-27T19:24:12.494-06:00,-0.119169,0.202471,0.028053,2025-02-27T19:24:12.500-06:00
42.000000,255.737756,0.642956,7.258922,44.940139,283.147756,270.098969,2.005509,3.000000,-93.172482,13.381461,2025-02-27T19:24:13.999-06:00,-0.295620,-0.966459,0.002651,2025-02-27T19:24:13.499-06:00,-0.212554,0.004573,-0.003334,2025-02-27T19:24:13.495-06:00
43.000000,255.668881,0.643691,7.258940,44.940139,283.078881,270.098969,2.062275,3.000000,-93.172653,13.404572,2025-02-27T19:24:14.999-06:00,-0.279684,-0.957971,0.001578,2025-02-27T19:24:14.493-06:00,-0.085070,0.031974,0.036398,2025-02-27T19:24:14.499-06:00
44.000000,255.575303,0.640538,7.258931,44.940140,282.985303,270.000000,2.030450,3.000000,-93.172825,13.469919,2025-02-27T19:24:15.999-06:00,-0.306405,-0.961934,-0.027371,2025-02-27T19:24:15.498-06:00,-0.356169,0.022525,-0.210546,2025-02-27T19:24:15.494-06:00
45.000000,255.346689,0.647947,7.258679,44.940135,282.756689,270.000000,2.014856,3.000000,-93.172995,13.411425,2025-02-27T19:24:16.999-06:00,-0.299289,-0.931941,-0.008571,2025-02-27T19:24:16.493-06:00,-0.226919,0.267753,-0.065902,2025-02-27T19:24:16.499-06:00
46.000000,255.444585,0.645397,7.258974,44.940137,282.854585,270.000000,2.007311,3.000000,-93.173162,13.231839,2025-02-27T19:24:17.999-06:00,-0.294940,-0.958218,-0.019000,2025-02-27T19:24:17.497-06:00,-0.235878,0.062968,-0.107058,2025-02-27T19:24:17.493-06:00
47.000000,255.455787,0.643821,7.258972,44.940138,282.865787,270.000000,2.003657,3.000000,-93.173322,12.902166,2025-02-27T19:24:18.999-06:00,-0.307353,-0.943184,-0.015385,2025-02-27T19:24:18.492-06:00,-0.268100,0.175551,-0.098941,2025-02-27T19:24:18.498-06:00
48.000000,255.364882,0.648943,7.258955,44.940141,282.774882,270.000000,2.225847,3.000000,-93.173480,12.563682,2025-02-27T19:24:19.999-06:00,-0.314563,-0.961867,-0.015464,2025-02-27T19:24:19.496-06:00,-0.389736,-0.024387,-0.107712,2025-02-27T19:24:19.493-06:00
49.000000,255.260137,0.661816,7.258803,44.940141,282.670137,270.000000,2.117735,3.000000,-93.173619,11.525732,2025-02-27T19:24:20.999-06:00,-0.299138,-0.924021,-0.015230,2025-02-27T19:24:20.501-06:00,-0.113472,0.353758,-0.116850,2025-02-27T19:24:20.497-06:00
50.000000,255.428661,0.648599,7.258720,44.940134,282.838661,270.000000,2.260151,3.000000,-93.173786,12.238921,2025-02-27T19:24:21.999-06:00,-0.298299,-0.957471,-0.001546,2025-02-27T19:24:21.496-06:00,-0.125096,-0.007593,-0.001002,2025-02-27T19:24:21.492-06:00
51.000000,255.618585,0.644895,7.258954,44.940137,283.028584,270.000000,2.136144,3.000000,-93.173936,12.009587,2025-02-27T19:24:22.999-06:00,-0.283452,-0.964607,0.003819,2025-02-27T19:24:22.500-06:00,0.011696,-0.054892,0.034848,2025-02-27T19:24:22.497-06:00
52.000000,255.753641,0.650454,7.258888,44.940137,283.163641,270.000000,2.363869,3.000000,-93.174085,11.902627,2025-02-27T19:24:23.999-06:00,-0.267784,-0.961919,-0.000494,2025-02-27T19:24:23.495-06:00,0.171334,0.007768,0.077094,2025-02-27T19:24:23.501-06:00
53.000000,255.426842,0.642513,7.258530,44.940138,282.836842,270.661878,2.710561,3.000000,-93.174237,11.940928,2025-02-27T19:24:24.999-06:00,-0.233564,-0.954457,0.015310,2025-02-27T19:24:24.500-06:00,0.614490,-0.037194,0.166867,2025-02-27T19:24:24.496-06:00
54.000000,255.312980,0.647088,7.258660,44.940140,282.722979,270.870572,2.657854,3.000000,-93.174396,12.321487,2025-02-27T19:24:25.999-06:00,-0.247948,-0.952108,0.015133,2025-02-27T19:24:25.494-06:00,0.487827,0.027670,0.166213,2025-02-27T19:24:25.500-06:00
55.000000,255.208430,0.647468,7.258716,44.940137,282.618430,269.696764,2.336452,3.000000,-93.174561,12.821144,2025-02-27T19:24:26.999-06:00,-0.249406,-0.970087,0.015444,2025-02-27T19:24:26.499-06:00,0.540149,-0.173576,0.210749,2025-02-27T19:24:26.495-06:00
56.000000,254.764592,0.653499,7.257791,44.940138,282.174592,269.933578,2.473486,3.000000,-93.174732,13.349030,2025-02-27T19:24:27.999-06:00,-0.242056,-0.961173,0.001933,2025-02-27T19:24:27.493-06:00,0.577495,-0.068700,0.059729,2025-02-27T19:24:27.500-06:00
57.000000,254.418030,0.646091,7.257426,44.940137,281.828029,269.375780,2.292314,3.000000,-93.174910,13.872606,2025-02-27T19:24:28.999-06:00,-0.278938,-0.960087,0.004221,2025-02-27T19:24:28.498-06:00,0.259743,-0.081791,0.074330,2025-02-27T19:24:28.494-06:00
58.000000,254.099415,0.645692,7.257328,44.940136,281.509415,270.211670,2.138714,3.000000,-93.175094,14.322987,2025-02-27T19:24:29.999-06:00,-0.315648,-0.940299,-0.011266,2025-02-27T19:24:29.493-06:00,-0.153753,0.138883,-0.131868,2025-02-27T19:24:29.499-06:00
59.000000,253.823552,0.651412,7.257431,44.940137,281.233552,270.211670,2.462689,3.000000,-93.175279,14.476777,2025-02-27T19:24:30.999-06:00,-0.322291,-0.946046,-0.010059,2025-02-27T19:24:30.497-06:00,-0.166938,0.056475,-0.044194,2025-02-27T19:24:30.494-06:00
60.000000,253.235922,0.654006,7.254721,44.940139,280.645922,270.211670,2.530878,3.000000,-93.175456,14.194592,2025-02-27T19:24:31.999-06:00,-0.322517,-0.941124,-0.014082,2025-02-27T19:24:31.492-06:00,-0.226932,0.115696,-0.129406,2025-02-27T19:24:31.498-06:00
61.000000,252.829458,0.662164,7.255354,44.940136,280.239458,270.211670,2.251249,3.000000,-93.175631,13.920527,2025-02-27T19:24:32.999-06:00,-0.335816,-0.946113,0.000014,2025-02-27T19:24:32.497-06:00,-0.293632,0.067109,0.023870,2025-02-27T19:24:32.493-06:00
62.000000,252.598476,0.657558,7.256754,44.940142,280.008476,270.211670,2.121108,3.000000,-93.175801,13.590080,2025-02-27T19:24:33.999-06:00,-0.326273,-0.938723,-0.006098,2025-02-27T19:24:33.501-06:00,-0.225985,0.127546,-0.018543,2025-02-27T19:24:33.497-06:00
63.000000,252.727145,0.652848,7.257730,44.940138,280.137145,270.211670,2.472374,3.000000,-93.175970,13.396663,2025-02-27T19:24:34.999-06:00,-0.328249,-0.936478,-0.010552,2025-02-27T19:24:34.496-06:00,-0.234606,0.182642,-0.059685,2025-02-27T19:24:34.492-06:00
64.000000,252.315764,0.654432,7.256624,44.940139,279.725764,270.211670,2.348662,3.000000,-93.176136,13.166758,2025-02-27T19:24:35.999-06:00,-0.325089,-0.951281,0.001918,2025-02-27T19:24:35.500-06:00,-0.225600,0.009454,0.025890,2025-02-27T19:24:35.497-06:00
65.000000,251.023091,0.718686,7.243822,44.940118,278.433091,270.000000,2.664362,3.000000,-93.176314,13.763006,2025-02-27T19:24:36.999-06:00,-0.338985,-0.935658,0.021236,2025-02-27T19:24:36.495-06:00,-0.308443,0.126978,0.206907,2025-02-27T19:24:36.501-06:00
66.000000,251.743473,0.672053,7.258191,44.940130,279.153472,270.000000,2.760344,3.000000,-93.176459,12.590883,2025-02-27T19:24:37.999-06:00,-0.367220,-0.936221,0.019401,2025-02-27T19:24:37.500-06:00,-0.565295,0.172800,0.166196,2025-02-27T19:24:37.496-06:00
67.000000,251.302202,0.653790,7.256653,44.940128,278.712202,270.000000,2.386248,3.000000,-93.176614,12.226471,2025-02-27T19:24:38.999-06:00,-0.398249,-0.917820,-0.029034,2025-02-27T19:24:38.494-06:00,-0.822697,0.310052,-0.209428,2025-02-27T19:24:38.501-06:00
68.000000,251.026861,0.651757,7.256256,44.940118,278.436861,270.000000,2.201768,3.000000,-93.176757,11.542974,2025-02-27T19:24:39.999-06:00,-0.446910,-0.913235,-0.069228,2025-02-27T19:24:39.499-06:00,-1.290745,0.349336,-0.575229,2025-02-27T19:24:39.495-06:00
69.000000,,,,,,,,,,,,-0.439467,-0.896754,-0.080181,2025-02-27T19:24:40.494-06:00,-1.178761,0.491964,-0.535577,2025-02-27T19:24:40.500-06:00
