seconds_elapsed,location_altitude,location_speedAccuracy,location_bearingAccuracy,location_latitude,location_altitudeAboveMeanSeaLevel,location_bearing,location_horizontalAccuracy,location_verticalAccuracy,location_longitude,location_speed,location_local_time,accelerometerUncalibrated_z,accelerometerUncalibrated_y,accelerometerUncalibrated_x,accelerometerUncalibrated_local_time,accelerometer_z,accelerometer_y,accelerometer_x,accelerometer_local_time
0.000000,261.990253,-1.000000,-1.000000,44.934455,289.400253,-1.000000,126.151703,3.400768,-93.170480,-1.000000,2025-02-27T18:53:24.730-06:00,-0.272556,-0.960931,-0.206668,2025-02-27T18:53:24.733-06:00,-0.185503,0.056068,-1.674084,2025-02-27T18:53:24.749-06:00
1.000000,258.948914,3.510000,45.019911,44.934518,286.358913,335.742188,14.484062,7.500000,-93.171061,4.365000,2025-02-27T18:53:25.833-06:00,-0.220752,-0.972960,-0.191062,2025-02-27T18:53:25.718-06:00,0.148808,-0.021562,-1.546973,2025-02-27T18:53:25.714-06:00
2.000000,258.895508,1.660000,39.422213,44.934436,286.305508,326.601562,14.000000,3.000000,-93.171102,3.860000,2025-02-27T18:53:27.710-06:00,-0.146099,-0.991891,-0.042633,2025-02-27T18:53:26.712-06:00,0.751668,-0.166528,-0.291575,2025-02-27T18:53:26.719-06:00
3.000000,,,,,,,,,,,,-0.175414,-0.986085,-0.017207,2025-02-27T18:53:27.717-06:00,0.581788,-0.142469,0.060382,2025-02-27T18:53:27.713-06:00
4.000000,261.627808,0.910000,9.295085,44.934499,289.037807,357.363281,3.535534,3.000000,-93.171082,5.170000,2025-02-27T18:53:28.718-06:00,-0.201508,-0.975785,-0.024767,2025-02-27T18:53:28.712-06:00,0.273241,-0.038609,0.057195,2025-02-27T18:53:28.718-06:00
5.000000,261.450195,0.970000,7.456405,44.934592,288.860195,359.648438,3.535534,3.000000,-93.171078,6.970000,2025-02-27T18:53:30.019-06:00,-0.220913,-0.979181,-0.023897,2025-02-27T18:53:29.716-06:00,0.018878,-0.054763,0.048614,2025-02-27T18:53:29.713-06:00
6.000000,261.478638,0.420000,3.512932,44.934655,288.888638,1.406250,3.535534,3.000000,-93.171089,7.860000,2025-02-27T18:53:30.994-06:00,-0.257624,-0.960786,-0.021667,2025-02-27T18:53:30.721-06:00,-0.312338,0.121045,0.051762,2025-02-27T18:53:30.717-06:00
7.000000,261.455322,0.210000,1.764649,44.934730,288.865322,359.913300,3.535534,3.000000,-93.171044,7.860000,2025-02-27T18:53:31.994-06:00,-0.275137,-0.960810,-0.026187,2025-02-27T18:53:31.716-06:00,-0.539984,0.170637,-0.008840,2025-02-27T18:53:31.712-06:00
8.000000,261.336304,0.110000,0.932932,44.934798,288.746304,359.913300,3.535534,3.000000,-93.171044,7.860000,2025-02-27T18:53:32.995-06:00,-0.268768,-0.956076,-0.013665,2025-02-27T18:53:32.721-06:00,-0.434152,0.164701,0.191105,2025-02-27T18:53:32.717-06:00
9.000000,261.353760,0.090000,0.817187,44.934870,288.763760,359.913300,3.535534,3.000000,-93.171044,7.770000,2025-02-27T18:53:33.995-06:00,-0.226601,-0.977847,-0.021802,2025-02-27T18:53:33.715-06:00,-0.177644,0.009218,0.067209,2025-02-27T18:53:33.712-06:00
10.000000,261.065674,0.090000,0.772867,44.934942,288.475674,359.913300,3.535534,3.000000,-93.171045,8.070000,2025-02-27T18:53:34.995-06:00,-0.250196,-0.971645,-0.022285,2025-02-27T18:53:34.720-06:00,-0.284208,0.023554,0.064870,2025-02-27T18:53:34.716-06:00
11.000000,260.728394,0.110000,0.915276,44.935018,288.138393,359.913300,3.535534,3.000000,-93.171045,8.260000,2025-02-27T18:53:35.996-06:00,-0.231593,-0.964770,-0.021064,2025-02-27T18:53:35.715-06:00,-0.121142,0.106527,0.075216,2025-02-27T18:53:35.721-06:00
12.000000,260.678467,0.150000,1.121655,44.935093,288.088467,359.913300,3.535534,3.000000,-93.171045,8.260000,2025-02-27T18:53:36.996-06:00,-0.257200,-0.964203,-0.031908,2025-02-27T18:53:36.719-06:00,-0.216651,0.066598,0.026580,2025-02-27T18:53:36.716-06:00
13.000000,260.678472,0.308016,7.258975,44.935167,288.088472,359.913300,4.748652,4.029364,-93.171045,8.260000,2025-02-27T18:53:37.996-06:00,-0.266228,-0.946123,-0.032598,2025-02-27T18:53:37.714-06:00,-0.293717,0.276601,-0.034150,2025-02-27T18:53:37.720-06:00
14.000000,259.673590,1.950000,18.372734,44.935252,287.083590,359.913300,4.748652,4.029364,-93.171045,8.600000,2025-02-27T18:53:38.996-06:00,-0.300427,-0.952177,-0.019353,2025-02-27T18:53:38.719-06:00,-0.562276,0.143770,0.003077,2025-02-27T18:53:38.715-06:00
15.000000,259.939948,0.750000,7.258975,44.935336,287.349948,359.913300,4.748652,4.029364,-93.171045,8.960000,2025-02-27T18:53:39.997-06:00,-0.300997,-0.951017,-0.034634,2025-02-27T18:53:39.714-06:00,-0.541412,0.162965,-0.037162,2025-02-27T18:53:39.720-06:00
16.000000,259.566168,0.308016,7.258975,44.935420,286.976168,359.913300,4.748652,4.029364,-93.171046,8.960000,2025-02-27T18:53:40.997-06:00,-0.294178,-0.956553,-0.047674,2025-02-27T18:53:40.718-06:00,-0.406466,0.112936,-0.120660,2025-02-27T18:53:40.715-06:00
17.000000,259.150457,0.308016,7.258975,44.935491,286.560457,359.913300,4.748652,4.029364,-93.171046,8.520000,2025-02-27T18:53:41.997-06:00,-0.283897,-0.953702,-0.059261,2025-02-27T18:53:41.713-06:00,-0.357395,0.138363,-0.166768,2025-02-27T18:53:41.719-06:00
18.000000,258.898443,0.308016,7.258975,44.935564,286.308443,0.248379,4.748652,4.029364,-93.171046,8.300000,2025-02-27T18:53:42.997-06:00,-0.302578,-0.953728,-0.050258,2025-02-27T18:53:42.718-06:00,-0.514745,0.134823,-0.084849,2025-02-27T18:53:42.714-06:00
19.000000,258.552557,0.470000,7.258975,44.935639,285.962556,0.248379,4.748652,4.029364,-93.171045,8.150000,2025-02-27T18:53:43.997-06:00,-0.301825,-0.946976,-0.036669,2025-02-27T18:53:43.712-06:00,-0.487193,0.205212,0.020520,2025-02-27T18:53:43.719-06:00
20.000000,258.742193,0.308016,7.258975,44.935712,286.152193,0.248379,4.748652,4.029364,-93.171045,8.150000,2025-02-27T18:53:44.997-06:00,-0.299398,-0.947738,-0.042984,2025-02-27T18:53:44.717-06:00,-0.361268,0.146814,0.048656,2025-02-27T18:53:44.713-06:00
21.000000,258.179326,0.308016,7.258975,44.935780,285.589326,0.248379,4.748652,4.029364,-93.171044,7.860000,2025-02-27T18:53:45.998-06:00,-0.298055,-0.947593,-0.035330,2025-02-27T18:53:45.712-06:00,-0.331074,0.151423,0.100290,2025-02-27T18:53:45.718-06:00
22.000000,258.074467,0.308016,7.258975,44.935846,285.484467,0.248379,4.748652,4.029364,-93.171044,7.510000,2025-02-27T18:53:46.998-06:00,-0.299305,-0.955077,-0.055032,2025-02-27T18:53:46.717-06:00,-0.375219,0.096477,-0.071477,2025-02-27T18:53:46.713-06:00
23.000000,258.024846,0.308016,7.258975,44.935911,285.434845,0.248379,4.748652,4.029364,-93.171044,7.380000,2025-02-27T18:53:47.998-06:00,-0.296479,-0.949877,-0.053842,2025-02-27T18:53:47.721-06:00,-0.298214,0.127357,0.034018,2025-02-27T18:53:47.717-06:00
24.000000,258.033207,0.308016,7.258975,44.935977,285.443207,0.248379,4.748652,4.029364,-93.171043,7.380000,2025-02-27T18:53:48.998-06:00,-0.286153,-0.946670,-0.062710,2025-02-27T18:53:48.716-06:00,-0.232023,0.172380,-0.087598,2025-02-27T18:53:48.712-06:00
25.000000,257.779850,0.308016,7.258975,44.936038,285.189850,359.387665,4.748652,4.029364,-93.171044,7.200000,2025-02-27T18:53:49.998-06:00,-0.288965,-0.955330,-0.071916,2025-02-27T18:53:49.721-06:00,-0.146399,0.031622,-0.103929,2025-02-27T18:53:49.717-06:00
26.000000,257.727421,1.500000,16.880931,44.936106,285.137421,357.458069,4.748652,4.029364,-93.171047,7.200000,2025-02-27T18:53:50.998-06:00,-0.290227,-0.957337,-0.063513,2025-02-27T18:53:50.715-06:00,-0.193812,0.032035,-0.098795,2025-02-27T18:53:50.712-06:00
27.000000,258.174505,2.590000,24.631891,44.936191,285.584505,357.458069,8.837958,4.029364,-93.171052,8.520000,2025-02-27T18:53:51.998-06:00,-0.291808,-0.943192,-0.065734,2025-02-27T18:53:51.720-06:00,-0.133292,0.154003,-0.130523,2025-02-27T18:53:51.716-06:00
28.000000,258.127325,1.370000,13.029225,44.936240,285.537325,0.000000,4.748652,4.029364,-93.171050,8.520000,2025-02-27T18:53:52.998-06:00,-0.280946,-0.966416,-0.062288,2025-02-27T18:53:52.715-06:00,-0.057182,-0.087837,-0.041303,2025-02-27T18:53:52.721-06:00
29.000000,257.762454,0.760000,9.697895,44.936270,285.172454,0.000000,4.748652,4.029364,-93.171050,6.350000,2025-02-27T18:53:53.998-06:00,-0.299664,-0.941566,-0.010529,2025-02-27T18:53:53.720-06:00,-0.201229,0.192393,0.323409,2025-02-27T18:53:53.716-06:00
30.000000,257.432742,0.308016,7.258975,44.936326,284.842742,0.000000,4.748652,4.029364,-93.171050,6.350000,2025-02-27T18:53:54.998-06:00,-0.307583,-0.952308,-0.010510,2025-02-27T18:53:54.714-06:00,-0.215608,0.040921,0.308683,2025-02-27T18:53:54.720-06:00
31.000000,257.245365,0.540000,7.258975,44.936382,284.655364,0.000000,4.748652,4.029364,-93.171050,6.400000,2025-02-27T18:53:55.999-06:00,-0.339941,-0.947170,0.090852,2025-02-27T18:53:55.719-06:00,-0.507782,0.101208,1.314401,2025-02-27T18:53:55.715-06:00
32.000000,257.302616,0.460000,7.258975,44.936443,284.712615,355.084595,4.748652,4.029364,-93.171056,6.400000,2025-02-27T18:53:56.999-06:00,-0.367451,-0.932114,0.140172,2025-02-27T18:53:56.714-06:00,-0.768711,0.233828,1.913944,2025-02-27T18:53:56.720-06:00
33.000000,258.613865,1.279936,16.654778,44.936482,286.023865,346.005249,2.000000,3.000000,-93.171092,6.222675,2025-02-27T18:53:57.999-06:00,-0.408286,-0.940543,0.183892,2025-02-27T18:53:57.718-06:00,-1.130586,0.142852,2.194032,2025-02-27T18:53:57.715-06:00
34.000000,258.753100,1.278114,17.406542,44.936532,286.163100,334.523163,2.000000,3.000000,-93.171110,5.949121,2025-02-27T18:53:58.999-06:00,-0.345393,-0.940911,0.126818,2025-02-27T18:53:58.713-06:00,-0.614465,0.169941,1.345273,2025-02-27T18:53:58.719-06:00
35.000000,258.771840,1.165467,16.033873,44.936567,286.181840,315.160004,2.979945,3.000000,-93.171193,5.888348,2025-02-27T18:53:59.999-06:00,-0.288339,-0.954564,0.044752,2025-02-27T18:53:59.718-06:00,-0.068239,0.056465,0.303328,2025-02-27T18:53:59.714-06:00
36.000000,258.576237,1.267920,17.673644,44.936543,285.986237,271.219452,2.742775,3.000000,-93.171310,5.807194,2025-02-27T18:54:00.999-06:00,-0.268279,-0.967733,0.016426,2025-02-27T18:54:00.713-06:00,0.111226,-0.096382,-0.132838,2025-02-27T18:54:00.719-06:00
37.000000,258.920807,0.739829,8.688271,44.936546,286.330807,271.219452,2.920426,3.000000,-93.171424,6.906215,2025-02-27T18:54:01.999-06:00,-0.245748,-0.961272,-0.000215,2025-02-27T18:54:01.717-06:00,0.267687,0.017095,-0.320693,2025-02-27T18:54:01.713-06:00
38.000000,258.842233,0.692815,7.850108,44.936537,286.252233,269.578369,2.885821,3.000000,-93.171518,7.150288,2025-02-27T18:54:02.999-06:00,-0.261490,-0.967597,0.001048,2025-02-27T18:54:02.712-06:00,0.131851,-0.062093,-0.332202,2025-02-27T18:54:02.718-06:00
39.000000,258.593686,0.691929,7.257804,44.936534,286.003686,269.578369,2.756296,3.000000,-93.171622,7.793653,2025-02-27T18:54:03.999-06:00,-0.262716,-0.958975,-0.013943,2025-02-27T18:54:03.717-06:00,0.084074,0.023242,-0.482429,2025-02-27T18:54:03.713-06:00
40.000000,258.431337,0.691457,7.257974,44.936534,285.841337,269.578369,2.576118,3.000000,-93.171728,8.172711,2025-02-27T18:54:04.999-06:00,-0.291982,-0.955463,-0.050193,2025-02-27T18:54:04.721-06:00,-0.179756,0.073490,-0.830710,2025-02-27T18:54:04.718-06:00
41.000000,258.176751,0.677538,7.257038,44.936534,285.586750,269.578369,2.413728,3.000000,-93.171839,8.417867,2025-02-27T18:54:05.999-06:00,-0.301073,-0.932478,-0.047333,2025-02-27T18:54:05.716-06:00,-0.222534,0.254011,-0.739874,2025-02-27T18:54:05.712-06:00
42.000000,258.111510,0.672542,7.258173,44.936541,285.521510,269.662079,2.287852,3.000000,-93.171950,8.443128,2025-02-27T18:54:06.999-06:00,-0.329649,-0.958976,-0.010389,2025-02-27T18:54:06.721-06:00,-0.476807,-0.006442,-0.465894,2025-02-27T18:54:06.717-06:00
43.000000,257.888800,0.680039,7.257628,44.936545,285.298799,269.599152,2.188429,3.000000,-93.172059,8.448670,2025-02-27T18:54:07.999-06:00,-0.398610,-0.923561,-0.023082,2025-02-27T18:54:07.715-06:00,-1.093064,0.325168,-0.575786,2025-02-27T18:54:07.712-06:00
44.000000,256.584441,0.686971,7.224749,44.936551,283.994441,269.599152,2.429077,3.000000,-93.172158,7.856795,2025-02-27T18:54:08.999-06:00,-0.416708,-0.917001,-0.039220,2025-02-27T18:54:08.720-06:00,-1.291753,0.411195,-0.698318,2025-02-27T18:54:08.716-06:00
45.000000,256.552050,0.687242,8.064064,44.936546,283.962050,268.258881,2.441753,3.000000,-93.172241,6.818990,2025-02-27T18:54:09.999-06:00,-0.418233,-0.914736,-0.052971,2025-02-27T18:54:09.715-06:00,-1.258637,0.413426,-0.844426,2025-02-27T18:54:09.721-06:00
46.000000,256.408646,0.692189,10.017482,44.936546,283.818646,268.258881,2.449553,3.000000,-93.172305,5.526003,2025-02-27T18:54:10.999-06:00,-0.433003,-0.909527,-0.060663,2025-02-27T18:54:10.720-06:00,-1.299119,0.427252,-0.818605,2025-02-27T18:54:10.716-06:00
47.000000,256.287386,0.697702,12.251862,44.936546,283.697386,268.258881,2.359643,3.000000,-93.172362,4.533718,2025-02-27T18:54:11.999-06:00,-0.467109,-0.904921,-0.072451,2025-02-27T18:54:11.714-06:00,-1.537558,0.453667,-0.839438,2025-02-27T18:54:11.721-06:00
48.000000,256.033689,0.740808,18.295632,44.936546,283.443689,268.258881,2.299702,3.000000,-93.172397,3.087728,2025-02-27T18:54:12.999-06:00,-0.426709,-0.914332,-0.047684,2025-02-27T18:54:12.719-06:00,-1.045176,0.316272,-0.584429,2025-02-27T18:54:12.715-06:00
49.000000,256.420361,0.697271,40.247749,44.936546,283.830360,268.258881,2.403613,3.000000,-93.172407,1.382157,2025-02-27T18:54:13.999-06:00,-0.252590,-0.965327,-0.005062,2025-02-27T18:54:13.714-06:00,0.632205,-0.165125,-0.051224,2025-02-27T18:54:13.720-06:00
50.000000,256.853178,1.014734,50.372418,44.936543,284.263178,268.258881,2.528914,3.000000,-93.172423,1.202208,2025-02-27T18:54:14.999-06:00,-0.174757,-0.990432,-0.011257,2025-02-27T18:54:14.718-06:00,1.395388,-0.413437,-0.046241,2025-02-27T18:54:14.715-06:00
51.000000,256.069055,0.855772,29.970297,44.936545,283.479055,268.258881,2.577689,3.000000,-93.172440,1.528267,2025-02-27T18:54:15.999-06:00,-0.204399,-0.975306,-0.090044,2025-02-27T18:54:15.713-06:00,1.034334,-0.248364,-0.661670,2025-02-27T18:54:15.719-06:00
52.000000,256.437019,0.705365,22.483367,44.936530,283.847019,268.258881,2.753539,3.000000,-93.172484,2.530489,2025-02-27T18:54:16.999-06:00,-0.232621,-0.965246,-0.219741,2025-02-27T18:54:16.718-06:00,0.730221,-0.137054,-1.743587,2025-02-27T18:54:16.714-06:00
53.000000,256.600372,0.685862,17.656818,44.936529,284.010371,268.258881,2.950638,3.000000,-93.172526,3.147176,2025-02-27T18:54:17.999-06:00,-0.268161,-0.950919,-0.278729,2025-02-27T18:54:17.713-06:00,0.221126,0.029909,-2.133805,2025-02-27T18:54:17.719-06:00
54.000000,256.437172,0.722406,21.184430,44.936588,283.847172,342.779053,2.871419,3.000000,-93.172590,2.763351,2025-02-27T18:54:18.999-06:00,-0.179413,-0.978405,-0.289216,2025-02-27T18:54:18.717-06:00,0.782810,-0.138538,-2.178264,2025-02-27T18:54:18.714-06:00
55.000000,256.005487,0.690745,16.619192,44.936622,283.415487,342.779053,7.366770,3.000000,-93.172605,3.351263,2025-02-27T18:54:19.999-06:00,-0.171129,-0.992628,-0.172870,2025-02-27T18:54:19.712-06:00,0.683821,-0.214313,-1.249606,2025-02-27T18:54:19.718-06:00
56.000000,256.775624,0.731617,12.284003,44.936646,284.185624,50.844883,5.031435,3.000000,-93.172423,4.805731,2025-02-27T18:54:20.999-06:00,-0.195274,-0.985549,-0.010964,2025-02-27T18:54:20.717-06:00,0.367267,-0.168222,0.140620,2025-02-27T18:54:20.713-06:00
57.000000,256.874636,0.754431,10.380753,44.936686,284.284636,48.821819,4.844584,3.000000,-93.172356,5.879657,2025-02-27T18:54:21.999-06:00,-0.215249,-0.962383,0.003360,2025-02-27T18:54:21.721-06:00,0.188191,0.098807,0.379836,2025-02-27T18:54:21.718-06:00
58.000000,256.286672,0.729955,8.612592,44.936730,283.696672,48.821819,2.854304,3.000000,-93.172285,6.835949,2025-02-27T18:54:22.999-06:00,-0.250800,-0.973818,0.012257,2025-02-27T18:54:22.716-06:00,-0.266741,0.020657,0.518337,2025-02-27T18:54:22.712-06:00
59.000000,256.645268,0.702722,7.935440,44.936774,284.055268,47.900414,2.731974,3.000000,-93.172216,7.174108,2025-02-27T18:54:23.999-06:00,-0.248025,-0.966088,-0.006707,2025-02-27T18:54:23.721-06:00,-0.205172,0.073643,0.318206,2025-02-27T18:54:23.717-06:00
60.000000,256.303545,0.737106,8.117340,44.936819,283.713545,47.900414,2.726765,3.000000,-93.172145,7.326811,2025-02-27T18:54:24.999-06:00,-0.257604,-0.971500,-0.004077,2025-02-27T18:54:24.715-06:00,-0.355365,0.020695,0.371419,2025-02-27T18:54:24.712-06:00
61.000000,256.006097,0.733734,7.453659,44.936873,283.416097,45.608715,2.542201,3.000000,-93.172067,7.926564,2025-02-27T18:54:25.999-06:00,-0.247226,-0.968645,0.018217,2025-02-27T18:54:25.720-06:00,-0.251844,0.048368,0.574460,2025-02-27T18:54:25.716-06:00
62.000000,257.072350,0.734628,7.257389,44.936932,284.482350,42.777126,2.385055,3.000000,-93.171992,8.411558,2025-02-27T18:54:26.999-06:00,-0.264264,-0.955637,0.027386,2025-02-27T18:54:26.715-06:00,-0.354502,0.168385,0.528141,2025-02-27T18:54:26.721-06:00
63.000000,256.948563,0.710181,7.258903,44.936988,284.358563,39.983902,2.257052,3.000000,-93.171924,8.225518,2025-02-27T18:54:27.999-06:00,-0.274507,-0.961517,0.008940,2025-02-27T18:54:27.720-06:00,-0.552665,0.139204,0.447386,2025-02-27T18:54:27.716-06:00
64.000000,257.267671,0.730676,7.257411,44.937053,284.677671,36.545486,3.891456,3.000000,-93.171857,8.489063,2025-02-27T18:54:28.999-06:00,-0.282445,-0.958449,0.013186,2025-02-27T18:54:28.714-06:00,-0.495236,0.127582,0.426710,2025-02-27T18:54:28.721-06:00
65.000000,257.052480,0.740927,7.319950,44.937113,284.462480,34.095963,4.057991,3.000000,-93.171798,8.197835,2025-02-27T18:54:29.999-06:00,-0.278645,-0.966446,-0.001363,2025-02-27T18:54:29.719-06:00,-0.508514,0.077014,0.272036,2025-02-27T18:54:29.715-06:00
66.000000,257.246876,0.732076,7.258965,44.937184,284.656876,32.381077,3.848543,3.000000,-93.171731,8.680773,2025-02-27T18:54:30.999-06:00,-0.271687,-0.950298,0.007486,2025-02-27T18:54:30.714-06:00,-0.408807,0.217238,0.339146,2025-02-27T18:54:30.720-06:00
67.000000,257.653505,0.737677,7.257727,44.937253,285.063504,29.049034,3.490755,3.000000,-93.171674,8.729541,2025-02-27T18:54:31.999-06:00,-0.288191,-0.957132,0.017009,2025-02-27T18:54:31.718-06:00,-0.436363,0.125776,0.407105,2025-02-27T18:54:31.715-06:00
68.000000,257.724609,0.705549,7.258466,44.937323,285.134609,27.551594,2.152788,3.000000,-93.171622,8.720433,2025-02-27T18:54:32.999-06:00,-0.268538,-0.945391,0.036136,2025-02-27T18:54:32.713-06:00,-0.249744,0.245972,0.421046,2025-02-27T18:54:32.719-06:00
69.000000,257.644212,0.707337,7.258957,44.937397,285.054212,23.538513,2.099180,3.000000,-93.171575,8.616678,2025-02-27T18:54:33.999-06:00,-0.301822,-0.957968,0.017052,2025-02-27T18:54:33.718-06:00,-0.491125,0.091773,0.235639,2025-02-27T18:54:33.714-06:00
70.000000,257.668800,0.740274,7.258810,44.937468,285.078800,21.147091,2.482611,3.000000,-93.171537,8.446515,2025-02-27T18:54:34.999-06:00,-0.322262,-0.956658,0.027899,2025-02-27T18:54:34.713-06:00,-0.681708,0.105366,0.220655,2025-02-27T18:54:34.719-06:00
71.000000,257.275602,0.747510,7.253618,44.937547,284.685602,17.952318,3.263448,3.000000,-93.171503,8.564826,2025-02-27T18:54:36.000-06:00,-0.318215,-0.922810,0.016878,2025-02-27T18:54:35.717-06:00,-0.552874,0.411116,0.144349,2025-02-27T18:54:35.713-06:00
72.000000,257.517709,0.717673,7.257765,44.937623,284.927709,16.142881,2.832397,3.000000,-93.171487,8.477124,2025-02-27T18:54:37.000-06:00,-0.334709,-0.952980,0.056945,2025-02-27T18:54:36.712-06:00,-0.729047,0.122496,0.339209,2025-02-27T18:54:36.718-06:00
73.000000,257.991023,0.710404,7.257405,44.937689,285.401022,13.623266,2.557316,3.000000,-93.171455,8.049453,2025-02-27T18:54:38.000-06:00,-0.301351,-0.949529,0.053194,2025-02-27T18:54:37.717-06:00,-0.291784,0.107626,0.354791,2025-02-27T18:54:37.713-06:00
74.000000,257.853429,0.710634,7.258836,44.937758,285.263428,12.481264,2.377725,3.000000,-93.171424,7.969817,2025-02-27T18:54:39.000-06:00,-0.292526,-0.942187,0.036882,2025-02-27T18:54:38.721-06:00,-0.342280,0.305019,0.239500,2025-02-27T18:54:38.718-06:00
75.000000,257.233696,0.756770,7.414528,44.937833,284.643696,8.879475,2.756858,3.000000,-93.171410,8.246593,2025-02-27T18:54:40.000-06:00,-0.292906,-0.964339,0.071194,2025-02-27T18:54:39.716-06:00,-0.168398,-0.117656,0.506624,2025-02-27T18:54:39.712-06:00
76.000000,257.457000,0.755733,7.406269,44.937906,284.867000,6.692725,2.514304,3.000000,-93.171406,8.259983,2025-02-27T18:54:41.000-06:00,-0.277673,-0.955297,0.078217,2025-02-27T18:54:40.721-06:00,-0.086088,0.106772,0.577885,2025-02-27T18:54:40.717-06:00
77.000000,257.702171,0.713680,7.657790,44.937966,285.112171,2.274370,2.358197,3.000000,-93.171403,7.549889,2025-02-27T18:54:42.000-06:00,-0.272220,-0.963964,0.047132,2025-02-27T18:54:41.715-06:00,-0.018680,-0.002611,0.359649,2025-02-27T18:54:41.712-06:00
78.000000,257.897850,0.708308,7.391103,44.938038,285.307850,1.070865,2.246993,3.000000,-93.171405,7.762439,2025-02-27T18:54:43.000-06:00,-0.253443,-0.947861,0.012820,2025-02-27T18:54:42.720-06:00,0.124568,0.142453,0.043366,2025-02-27T18:54:42.716-06:00
79.000000,258.018278,0.723478,7.258772,44.938116,285.428278,358.442566,2.180231,3.000000,-93.171388,8.272590,2025-02-27T18:54:44.000-06:00,-0.245592,-0.955841,0.006690,2025-02-27T18:54:43.715-06:00,0.360552,0.046416,0.052483,2025-02-27T18:54:43.721-06:00
80.000000,258.072097,0.727864,7.258857,44.938191,285.482097,355.715668,2.120744,3.000000,-93.171413,8.515880,2025-02-27T18:54:45.000-06:00,-0.246880,-0.965410,0.002489,2025-02-27T18:54:44.720-06:00,0.387793,-0.083480,0.068521,2025-02-27T18:54:44.716-06:00
81.000000,258.014248,0.731127,7.258458,44.938274,285.424247,352.446106,2.078488,3.000000,-93.171425,8.916734,2025-02-27T18:54:46.000-06:00,-0.242339,-0.963571,-0.045818,2025-02-27T18:54:45.714-06:00,0.453040,-0.026097,-0.269937,2025-02-27T18:54:45.720-06:00
82.000000,257.745999,0.701253,7.255639,44.938363,285.155999,354.089935,2.049305,3.000000,-93.171442,9.471843,2025-02-27T18:54:47.000-06:00,-0.282594,-0.969983,-0.057985,2025-02-27T18:54:46.719-06:00,0.085241,-0.170854,-0.243828,2025-02-27T18:54:46.715-06:00
83.000000,257.467701,0.732177,7.251982,44.938454,284.877701,358.654449,2.033295,3.000000,-93.171451,9.961550,2025-02-27T18:54:48.000-06:00,-0.306038,-0.931387,-0.065278,2025-02-27T18:54:47.714-06:00,-0.163618,0.270254,-0.405145,2025-02-27T18:54:47.720-06:00
84.000000,257.404513,0.722478,7.256388,44.938545,284.814512,358.654449,2.182917,3.000000,-93.171450,10.137942,2025-02-27T18:54:49.000-06:00,-0.296594,-0.949612,-0.057793,2025-02-27T18:54:48.718-06:00,0.009171,0.026318,-0.261503,2025-02-27T18:54:48.715-06:00
85.000000,256.733666,0.744877,7.241945,44.938634,284.143666,357.329102,2.285636,3.000000,-93.171452,10.081591,2025-02-27T18:54:50.000-06:00,-0.318565,-0.946793,-0.061765,2025-02-27T18:54:49.713-06:00,-0.237280,0.079022,-0.334957,2025-02-27T18:54:49.719-06:00
86.000000,257.587308,0.782308,7.256759,44.938733,284.997308,357.039703,2.169671,3.000000,-93.171442,10.583929,2025-02-27T18:54:51.000-06:00,-0.301581,-0.953914,-0.056951,2025-02-27T18:54:50.718-06:00,-0.162589,0.046241,-0.314247,2025-02-27T18:54:50.714-06:00
87.000000,257.024534,0.734668,7.257542,44.938812,284.434534,357.039703,2.925981,3.000000,-93.171456,9.763317,2025-02-27T18:54:52.000-06:00,-0.300550,-0.933565,-0.052862,2025-02-27T18:54:51.712-06:00,-0.021521,0.169864,-0.268543,2025-02-27T18:54:51.719-06:00
88.000000,256.596416,0.748261,7.250546,44.938896,284.006416,356.274811,2.652671,3.000000,-93.171465,9.480185,2025-02-27T18:54:53.000-06:00,-0.314994,-0.972129,-0.061447,2025-02-27T18:54:52.717-06:00,-0.246150,-0.117028,-0.332529,2025-02-27T18:54:52.713-06:00
89.000000,256.662055,0.720422,7.256284,44.938980,284.072055,356.274811,2.623786,3.000000,-93.171468,9.426461,2025-02-27T18:54:54.000-06:00,-0.266360,-0.945611,-0.054756,2025-02-27T18:54:53.712-06:00,0.115837,0.165876,-0.345653,2025-02-27T18:54:53.718-06:00
90.000000,256.459171,0.719700,7.257088,44.939065,283.869171,356.274811,2.364842,3.000000,-93.171475,9.432728,2025-02-27T18:54:55.000-06:00,-0.278020,-0.953012,-0.043023,2025-02-27T18:54:54.717-06:00,0.225263,-0.049550,-0.171429,2025-02-27T18:54:54.713-06:00
91.000000,256.492324,0.714821,7.257714,44.939154,283.902324,358.457062,2.373109,3.000000,-93.171474,9.634562,2025-02-27T18:54:56.000-06:00,-0.283718,-0.954487,-0.020068,2025-02-27T18:54:55.721-06:00,0.014974,0.045516,-0.125182,2025-02-27T18:54:55.718-06:00
92.000000,256.099104,0.723228,7.255840,44.939243,283.509103,359.175873,2.343397,3.000000,-93.171474,9.743108,2025-02-27T18:54:57.000-06:00,-0.302297,-0.963728,-0.016561,2025-02-27T18:54:56.716-06:00,-0.071929,-0.061143,-0.152794,2025-02-27T18:54:56.712-06:00
93.000000,256.526087,0.711328,7.258754,44.939334,283.936087,359.175873,2.197375,3.000000,-93.171477,9.878179,2025-02-27T18:54:58.000-06:00,-0.311303,-0.953931,-0.014157,2025-02-27T18:54:57.721-06:00,-0.121174,0.025698,-0.115248,2025-02-27T18:54:57.717-06:00
94.000000,256.010499,0.722884,7.254010,44.939419,283.420499,0.331671,2.129467,3.000000,-93.171475,9.653528,2025-02-27T18:54:59.000-06:00,-0.308256,-0.936833,-0.015552,2025-02-27T18:54:58.715-06:00,-0.166010,0.138971,-0.063087,2025-02-27T18:54:58.712-06:00
95.000000,255.289541,0.730681,7.229360,44.939507,282.699541,0.331671,2.196442,3.000000,-93.171474,9.584371,2025-02-27T18:55:00.000-06:00,-0.310228,-0.958075,-0.021310,2025-02-27T18:54:59.720-06:00,-0.229547,0.036452,-0.080033,2025-02-27T18:54:59.716-06:00
96.000000,255.240442,0.724397,7.239954,44.939590,282.650441,0.331671,2.114514,3.000000,-93.171473,9.205034,2025-02-27T18:55:01.000-06:00,-0.311423,-0.940567,-0.031238,2025-02-27T18:55:00.715-06:00,-0.189280,0.157933,-0.155600,2025-02-27T18:55:00.721-06:00
97.000000,255.785824,0.727134,7.258730,44.939678,283.195824,0.000000,2.077972,3.000000,-93.171475,9.403048,2025-02-27T18:55:02.000-06:00,-0.374408,-0.933249,-0.049694,2025-02-27T18:55:01.719-06:00,-0.792116,0.217956,-0.331675,2025-02-27T18:55:01.716-06:00
98.000000,255.745384,0.752517,7.257714,44.939755,283.155384,0.000000,2.046165,3.000000,-93.171475,8.790154,2025-02-27T18:55:03.000-06:00,-0.422641,-0.917509,-0.065734,2025-02-27T18:55:02.714-06:00,-1.249309,0.355792,-0.467732,2025-02-27T18:55:02.720-06:00
99.000000,256.173741,0.710713,7.380105,44.939824,283.583741,0.000000,2.027828,3.000000,-93.171476,7.803397,2025-02-27T18:55:04.000-06:00,-0.412328,-0.911741,-0.065365,2025-02-27T18:55:03.719-06:00,-1.103783,0.423239,-0.344042,2025-02-27T18:55:03.715-06:00
100.000000,256.217280,0.718481,9.061698,44.939877,283.627279,0.000000,2.019546,3.000000,-93.171477,6.422652,2025-02-27T18:55:05.000-06:00,-0.348649,-0.936065,-0.045283,2025-02-27T18:55:04.714-06:00,-0.395968,0.133970,-0.131083,2025-02-27T18:55:04.720-06:00
101.000000,256.002402,0.705037,10.627375,44.939918,283.412402,0.766425,2.014659,3.000000,-93.171480,5.370635,2025-02-27T18:55:06.000-06:00,-0.384576,-0.924407,-0.056630,2025-02-27T18:55:05.718-06:00,-0.703327,0.253511,-0.243805,2025-02-27T18:55:05.715-06:00
102.000000,255.878737,0.708827,12.501863,44.939957,283.288737,0.766425,2.011727,3.000000,-93.171481,4.560595,2025-02-27T18:55:07.000-06:00,-0.406414,-0.926630,-0.061929,2025-02-27T18:55:06.713-06:00,-0.788232,0.173040,-0.223489,2025-02-27T18:55:06.719-06:00
103.000000,256.246374,0.718383,16.380491,44.939986,283.656374,0.766425,2.039916,3.000000,-93.171479,3.544300,2025-02-27T18:55:08.000-06:00,-0.395004,-0.915734,-0.075707,2025-02-27T18:55:07.718-06:00,-0.650521,0.270969,-0.279873,2025-02-27T18:55:07.714-06:00
104.000000,256.108159,0.715603,27.162198,44.939999,283.518159,0.766425,2.065623,3.000000,-93.171478,2.134159,2025-02-27T18:55:09.000-06:00,-0.378817,-0.928811,-0.072205,2025-02-27T18:55:08.712-06:00,-0.504893,0.143450,-0.178719,2025-02-27T18:55:08.719-06:00
105.000000,256.148701,0.725872,47.197071,44.940009,283.558701,0.766425,2.057420,3.000000,-93.171478,1.238322,2025-02-27T18:55:10.000-06:00,-0.335535,-0.939827,-0.060887,2025-02-27T18:55:09.717-06:00,-0.075926,0.031659,-0.062845,2025-02-27T18:55:09.713-06:00
106.000000,256.278595,0.866814,180.000000,44.940012,283.688594,0.766425,2.051040,3.000000,-93.171479,0.306976,2025-02-27T18:55:11.000-06:00,-0.274554,-0.959412,-0.041290,2025-02-27T18:55:10.712-06:00,0.502174,-0.150472,0.112838,2025-02-27T18:55:10.718-06:00
107.000000,256.530008,0.955221,180.000000,44.940014,283.940008,0.766425,2.082103,3.000000,-93.171478,0.084732,2025-02-27T18:55:12.000-06:00,-0.266756,-0.961359,-0.039020,2025-02-27T18:55:11.716-06:00,0.529914,-0.155190,0.128208,2025-02-27T18:55:11.713-06:00
108.000000,256.653421,0.959672,180.000000,44.940016,284.063421,0.766425,2.074639,3.000000,-93.171477,0.229194,2025-02-27T18:55:13.000-06:00,-0.247399,-0.965214,-0.030838,2025-02-27T18:55:12.721-06:00,0.680913,-0.176647,0.185187,2025-02-27T18:55:12.717-06:00
109.000000,256.605933,0.966439,154.961311,44.940024,284.015933,0.766425,2.185488,3.000000,-93.171477,0.492753,2025-02-27T18:55:14.000-06:00,-0.314771,-0.949148,-0.058485,2025-02-27T18:55:13.716-06:00,0.013126,-0.018784,-0.039941,2025-02-27T18:55:13.712-06:00
110.000000,256.593479,0.720074,125.836282,44.940030,284.003479,0.766425,2.171220,3.000000,-93.171479,0.448325,2025-02-27T18:55:15.000-06:00,-0.309848,-0.948229,-0.058758,2025-02-27T18:55:14.721-06:00,0.065498,-0.013257,-0.018130,2025-02-27T18:55:14.717-06:00
111.000000,256.664852,0.944233,180.000000,44.940031,284.074852,0.766425,2.177107,3.000000,-93.171478,0.071086,2025-02-27T18:55:16.000-06:00,-0.284023,-0.955515,-0.050814,2025-02-27T18:55:15.715-06:00,0.290471,-0.075496,0.055208,2025-02-27T18:55:15.721-06:00
112.000000,256.567522,0.941264,180.000000,44.940029,283.977522,0.766425,2.165300,3.000000,-93.171475,0.083615,2025-02-27T18:55:17.000-06:00,-0.266415,-0.961122,-0.046223,2025-02-27T18:55:16.720-06:00,0.427773,-0.117497,0.091274,2025-02-27T18:55:16.716-06:00
113.000000,256.473296,0.932893,180.000000,44.940027,283.883295,0.766425,2.154969,3.000000,-93.171477,0.086985,2025-02-27T18:55:18.000-06:00,-0.278251,-0.958299,-0.045917,2025-02-27T18:55:17.715-06:00,0.294651,-0.082090,0.065883,2025-02-27T18:55:17.721-06:00
114.000000,256.418792,0.957262,180.000000,44.940029,283.828792,0.766425,2.161755,3.000000,-93.171475,0.345405,2025-02-27T18:55:19.000-06:00,-0.279081,-0.957407,-0.046137,2025-02-27T18:55:18.719-06:00,0.255845,-0.065207,0.060522,2025-02-27T18:55:18.716-06:00
115.000000,256.319622,0.942767,180.000000,44.940030,283.729621,0.766425,2.152769,3.000000,-93.171477,0.225531,2025-02-27T18:55:20.000-06:00,-0.259673,-0.963671,-0.047342,2025-02-27T18:55:19.714-06:00,0.381988,-0.106493,0.073669,2025-02-27T18:55:19.720-06:00
116.000000,258.239267,0.885637,180.000000,44.940041,285.649266,0.766425,2.185369,3.000000,-93.171483,0.783976,2025-02-27T18:55:21.000-06:00,-0.200238,-0.979473,-0.032457,2025-02-27T18:55:20.719-06:00,0.901160,-0.241933,0.209856,2025-02-27T18:55:20.715-06:00
117.000000,258.087763,1.017208,38.189659,44.940047,285.497763,0.766425,2.263280,3.000000,-93.171482,0.802205,2025-02-27T18:55:22.000-06:00,-0.129815,-1.009974,0.005041,2025-02-27T18:55:21.713-06:00,1.474715,-0.490944,0.484093,2025-02-27T18:55:21.720-06:00
118.000000,257.708565,0.729161,30.067376,44.940068,285.118564,0.766425,2.303571,3.000000,-93.171483,1.920720,2025-02-27T18:55:23.000-06:00,-0.153809,-1.002627,0.003573,2025-02-27T18:55:22.718-06:00,1.000081,-0.370291,0.425193,2025-02-27T18:55:22.714-06:00
119.000000,257.654062,0.702743,17.826145,44.940103,285.064062,0.766425,2.306303,3.000000,-93.171484,3.188454,2025-02-27T18:55:24.000-06:00,-0.158329,-0.976504,0.003373,2025-02-27T18:55:23.713-06:00,0.953965,-0.103062,0.486135,2025-02-27T18:55:23.719-06:00
120.000000,257.656723,0.711908,13.790870,44.940144,285.066723,0.766425,2.290988,3.000000,-93.171487,4.182826,2025-02-27T18:55:25.000-06:00,-0.209883,-0.952246,0.004324,2025-02-27T18:55:24.717-06:00,0.741986,0.046840,0.404062,2025-02-27T18:55:24.714-06:00
121.000000,257.148585,0.711532,11.115228,44.940194,284.558585,0.792688,2.276439,3.000000,-93.171496,5.140009,2025-02-27T18:55:26.000-06:00,-0.236254,-1.001395,-0.042999,2025-02-27T18:55:25.712-06:00,0.549776,-0.459897,0.014373,2025-02-27T18:55:25.718-06:00
122.000000,256.776734,0.716709,9.512164,44.940251,284.186734,0.792688,2.262617,3.000000,-93.171472,6.024993,2025-02-27T18:55:27.000-06:00,-0.204411,-0.962497,-0.128994,2025-02-27T18:55:26.717-06:00,0.450936,0.043629,-0.737138,2025-02-27T18:55:26.713-06:00
123.000000,257.029030,0.727952,8.935106,44.940310,284.439030,2.715422,4.235122,3.000000,-93.171467,6.601462,2025-02-27T18:55:28.000-06:00,-0.239842,-0.968938,-0.183568,2025-02-27T18:55:27.712-06:00,0.070795,-0.028461,-1.142236,2025-02-27T18:55:27.718-06:00
124.000000,256.870975,0.707211,8.299718,44.940366,284.280975,11.287885,4.806689,3.000000,-93.171449,6.905252,2025-02-27T18:55:29.000-06:00,-0.217448,-0.951421,-0.169133,2025-02-27T18:55:28.716-06:00,0.307947,0.139991,-0.949999,2025-02-27T18:55:28.713-06:00
125.000000,256.814773,0.702054,8.235051,44.940422,284.224773,14.105501,4.498827,3.000000,-93.171429,6.907980,2025-02-27T18:55:30.000-06:00,-0.221022,-0.971254,-0.128087,2025-02-27T18:55:29.721-06:00,0.316146,-0.038980,-0.729338,2025-02-27T18:55:29.717-06:00
126.000000,256.879689,0.696992,8.173241,44.940474,284.289689,20.918842,4.510213,3.000000,-93.171399,6.909995,2025-02-27T18:55:31.000-06:00,-0.215499,-0.961613,-0.114938,2025-02-27T18:55:30.716-06:00,0.413400,0.048942,-0.706883,2025-02-27T18:55:30.712-06:00
127.000000,256.697884,0.684888,7.502303,44.940531,284.107883,26.622221,4.609556,3.000000,-93.171358,7.398269,2025-02-27T18:55:32.000-06:00,-0.260518,-0.962718,-0.090688,2025-02-27T18:55:31.720-06:00,-0.000098,0.003193,-0.643602,2025-02-27T18:55:31.717-06:00
128.000000,256.284956,0.685759,7.253013,44.940592,283.694955,30.510998,4.480477,3.000000,-93.171307,7.997833,2025-02-27T18:55:33.000-06:00,-0.285906,-0.959529,-0.098959,2025-02-27T18:55:32.715-06:00,-0.308711,0.091677,-0.669645,2025-02-27T18:55:32.721-06:00
129.000000,256.052002,0.837588,8.454264,44.940649,283.462002,34.335281,5.086064,3.000000,-93.171252,8.014906,2025-02-27T18:55:34.000-06:00,-0.280667,-0.952078,-0.109688,2025-02-27T18:55:33.720-06:00,-0.322749,0.133597,-0.707183,2025-02-27T18:55:33.716-06:00
130.000000,256.243328,0.781241,8.357008,44.940690,283.653328,43.928638,4.377131,3.000000,-93.171193,7.570159,2025-02-27T18:55:34.999-06:00,-0.288071,-0.954429,-0.076678,2025-02-27T18:55:34.714-06:00,-0.350088,0.121944,-0.424191,2025-02-27T18:55:34.721-06:00
131.000000,256.111208,0.735043,8.194008,44.940724,283.521208,51.639160,4.753587,3.000000,-93.171125,7.254734,2025-02-27T18:55:35.999-06:00,-0.280851,-0.955193,-0.097574,2025-02-27T18:55:35.719-06:00,-0.330753,0.128364,-0.558573,2025-02-27T18:55:35.715-06:00
132.000000,256.068172,0.716288,8.367563,44.940755,283.478171,53.994328,5.782979,3.000000,-93.171053,6.929779,2025-02-27T18:55:37.000-06:00,-0.280021,-0.946689,-0.100818,2025-02-27T18:55:36.714-06:00,-0.275698,0.203696,-0.480076,2025-02-27T18:55:36.720-06:00
133.000000,256.140800,0.707145,8.530976,44.940791,283.550800,53.994328,5.513865,3.000000,-93.170984,6.714523,2025-02-27T18:55:38.000-06:00,-0.303189,-0.954106,-0.005625,2025-02-27T18:55:37.718-06:00,-0.424030,0.092848,0.383008,2025-02-27T18:55:37.715-06:00
134.000000,256.128995,0.713469,8.702144,44.940827,283.538995,53.994328,5.053720,3.000000,-93.170915,6.643216,2025-02-27T18:55:39.000-06:00,-0.305877,-0.947990,-0.010805,2025-02-27T18:55:38.713-06:00,-0.413325,0.142598,0.368943,2025-02-27T18:55:38.719-06:00
135.000000,255.906691,0.691523,8.650982,44.940865,283.316691,50.304905,4.466189,3.000000,-93.170852,6.472682,2025-02-27T18:55:40.000-06:00,-0.293064,-0.954428,0.014365,2025-02-27T18:55:39.718-06:00,-0.306082,0.103014,0.574169,2025-02-27T18:55:39.714-06:00
136.000000,255.472988,0.694276,8.733041,44.940908,282.882988,44.542995,4.054617,3.000000,-93.170790,6.410325,2025-02-27T18:55:41.000-06:00,-0.278925,-0.956946,0.028903,2025-02-27T18:55:40.713-06:00,-0.050398,0.031961,0.655661,2025-02-27T18:55:40.719-06:00
137.000000,255.792806,0.707671,8.557894,44.940953,283.202806,44.542995,4.291168,3.000000,-93.170729,6.700599,2025-02-27T18:55:42.000-06:00,-0.272648,-0.970591,0.004862,2025-02-27T18:55:41.717-06:00,-0.034875,-0.073225,0.460990,2025-02-27T18:55:41.714-06:00
138.000000,255.302964,0.691351,8.493447,44.941001,282.712964,39.291161,3.586798,3.000000,-93.170677,6.570052,2025-02-27T18:55:43.000-06:00,-0.263572,-0.959500,0.008378,2025-02-27T18:55:42.712-06:00,0.037595,0.038496,0.416184,2025-02-27T18:55:42.718-06:00
139.000000,255.025718,0.693056,8.088901,44.941054,282.435718,35.530735,2.192289,3.000000,-93.170624,6.918685,2025-02-27T18:55:44.000-06:00,-0.295985,-0.947202,-0.003650,2025-02-27T18:55:43.717-06:00,-0.249328,0.130857,0.353770,2025-02-27T18:55:43.713-06:00
140.000000,255.452766,0.692813,7.807355,44.941108,282.862765,35.098267,2.159566,3.000000,-93.170571,7.190080,2025-02-27T18:55:45.000-06:00,-0.310113,-0.954240,0.013489,2025-02-27T18:55:44.721-06:00,-0.403162,0.088742,0.495604,2025-02-27T18:55:44.718-06:00
141.000000,255.699641,0.705023,8.108289,44.941163,283.109641,29.604988,2.327875,3.000000,-93.170527,7.042503,2025-02-27T18:55:46.000-06:00,-0.324147,-0.942878,0.033601,2025-02-27T18:55:45.716-06:00,-0.450460,0.179026,0.714341,2025-02-27T18:55:45.712-06:00
142.000000,255.864897,0.706917,8.276830,44.941226,283.274897,24.616247,2.257120,3.000000,-93.170508,6.916607,2025-02-27T18:55:47.000-06:00,-0.352866,-0.928891,0.030699,2025-02-27T18:55:46.721-06:00,-0.702451,0.291032,0.654371,2025-02-27T18:55:46.717-06:00
143.000000,255.451644,0.673312,8.156699,44.941284,282.861644,19.460375,2.204061,3.000000,-93.170482,6.688003,2025-02-27T18:55:48.000-06:00,-0.404875,-0.932159,-0.031501,2025-02-27T18:55:47.715-06:00,-1.155644,0.224968,0.146041,2025-02-27T18:55:47.712-06:00
144.000000,254.817484,0.696513,9.518241,44.941334,282.227484,19.460375,2.254350,3.000000,-93.170466,5.891660,2025-02-27T18:55:49.000-06:00,-0.405637,-0.917138,-0.039650,2025-02-27T18:55:48.720-06:00,-1.139508,0.392764,-0.062547,2025-02-27T18:55:48.716-06:00
145.000000,254.963450,0.715848,11.933824,44.941373,282.373449,10.038003,2.211959,3.000000,-93.170455,4.856523,2025-02-27T18:55:50.000-06:00,-0.454568,-0.902039,-0.057190,2025-02-27T18:55:49.715-06:00,-1.434087,0.480255,-0.342207,2025-02-27T18:55:49.721-06:00
