seconds_elapsed,location_altitude,location_speedAccuracy,location_bearingAccuracy,location_latitude,location_altitudeAboveMeanSeaLevel,location_bearing,location_horizontalAccuracy,location_verticalAccuracy,location_longitude,location_speed,location_local_time,accelerometerUncalibrated_z,accelerometerUncalibrated_y,accelerometerUncalibrated_x,accelerometerUncalibrated_local_time,accelerometer_z,accelerometer_y,accelerometer_x,accelerometer_local_time
0.000000,257.986686,-0.463333,1.279021,44.941513,285.396686,71.989583,168.864729,7.333333,-93.166306,1.070000,2025-02-27T19:11:33.490-06:00,-0.324659,-0.943253,0.181424,2025-02-27T19:11:33.462-06:00,-0.350011,0.119784,1.439356,2025-02-27T19:11:33.468-06:00
1.000000,257.518188,1.200000,14.727467,44.941449,284.928188,221.484375,14.000000,4.000000,-93.167030,5.290000,2025-02-27T19:11:34.999-06:00,-0.250153,-0.960063,0.133374,2025-02-27T19:11:34.447-06:00,0.203091,0.026197,0.878747,2025-02-27T19:11:34.443-06:00
2.000000,257.098145,0.990000,11.162856,44.941373,284.508144,200.039062,3.535534,4.000000,-93.167053,5.290000,2025-02-27T19:11:35.999-06:00,-0.242841,-0.966734,0.178892,2025-02-27T19:11:35.441-06:00,0.190732,-0.032974,1.127653,2025-02-27T19:11:35.448-06:00
3.000000,257.964478,1.340000,15.525898,44.941307,285.374477,181.217926,3.535534,3.000000,-93.167074,5.570000,2025-02-27T19:11:36.999-06:00,-0.233576,-0.969677,0.120327,2025-02-27T19:11:36.446-06:00,0.139796,-0.038709,0.494456,2025-02-27T19:11:36.442-06:00
4.000000,257.450195,1.280000,8.087572,44.941236,284.860195,181.217926,3.535534,3.000000,-93.167072,5.760000,2025-02-27T19:11:37.999-06:00,-0.236556,-0.975179,0.101108,2025-02-27T19:11:37.441-06:00,0.071625,-0.116283,0.177813,2025-02-27T19:11:37.447-06:00
5.000000,258.179138,1.540000,13.045558,44.941166,285.589138,181.253586,3.535534,3.000000,-93.167075,7.660000,2025-02-27T19:11:38.999-06:00,-0.221442,-0.974409,0.055067,2025-02-27T19:11:38.445-06:00,0.139275,-0.042432,-0.263712,2025-02-27T19:11:38.441-06:00
6.000000,258.166504,0.790000,5.775270,44.941086,285.576504,181.253586,3.535534,3.000000,-93.167072,8.880000,2025-02-27T19:11:40.000-06:00,-0.293033,-0.953237,0.014042,2025-02-27T19:11:39.450-06:00,-0.614984,0.191503,-0.535320,2025-02-27T19:11:39.446-06:00
7.000000,258.308105,1.210000,7.576633,44.941008,285.718105,180.861176,3.535534,3.000000,-93.167077,8.480000,2025-02-27T19:11:41.000-06:00,-0.306846,-0.949249,0.011748,2025-02-27T19:11:40.444-06:00,-0.684400,0.189017,-0.503971,2025-02-27T19:11:40.441-06:00
8.000000,258.235291,1.080000,7.001398,44.940938,285.645290,180.861176,3.535534,3.000000,-93.167075,8.480000,2025-02-27T19:11:42.000-06:00,-0.297930,-0.955280,0.019228,2025-02-27T19:11:41.449-06:00,-0.566137,0.128222,-0.455102,2025-02-27T19:11:41.445-06:00
9.000000,258.500793,0.660000,5.600190,44.940867,285.910793,180.861176,3.535534,3.000000,-93.167070,7.690000,2025-02-27T19:11:43.000-06:00,-0.309785,-0.940795,0.023304,2025-02-27T19:11:42.444-06:00,-0.599081,0.246764,-0.426114,2025-02-27T19:11:42.450-06:00
10.000000,259.002197,0.810000,6.951338,44.940795,286.412197,180.112579,3.535534,3.000000,-93.167069,7.690000,2025-02-27T19:11:44.000-06:00,-0.305250,-0.955648,0.010445,2025-02-27T19:11:43.448-06:00,-0.578329,0.120783,-0.456367,2025-02-27T19:11:43.444-06:00
11.000000,259.183472,1.550000,12.803657,44.940728,286.593472,180.112579,3.535534,3.000000,-93.167084,7.690000,2025-02-27T19:11:45.000-06:00,-0.312018,-0.949456,0.019678,2025-02-27T19:11:44.443-06:00,-0.606412,0.161471,-0.396348,2025-02-27T19:11:44.449-06:00
12.000000,259.807800,0.570000,5.791601,44.940671,287.217800,180.112579,3.535534,3.000000,-93.167073,7.590000,2025-02-27T19:11:46.000-06:00,-0.341129,-0.936532,0.011233,2025-02-27T19:11:45.447-06:00,-0.781735,0.266394,-0.483042,2025-02-27T19:11:45.444-06:00
13.000000,259.807805,0.570000,7.258975,44.940603,287.217805,180.112579,4.748652,4.029364,-93.167062,7.590000,2025-02-27T19:11:47.000-06:00,-0.334950,-0.940749,0.015242,2025-02-27T19:11:46.442-06:00,-0.738469,0.219405,-0.426039,2025-02-27T19:11:46.448-06:00
14.000000,259.712039,0.308016,7.258975,44.940567,287.122038,180.112579,4.748652,4.029364,-93.167078,5.460000,2025-02-27T19:11:48.000-06:00,-0.332143,-0.938602,0.001310,2025-02-27T19:11:47.447-06:00,-0.582103,0.226532,-0.444393,2025-02-27T19:11:47.443-06:00
15.000000,259.351321,1.250000,16.205694,44.940501,286.761321,180.112579,4.748652,4.029364,-93.167084,6.250000,2025-02-27T19:11:49.000-06:00,-0.332036,-0.943016,0.011294,2025-02-27T19:11:48.441-06:00,-0.578351,0.168691,-0.341006,2025-02-27T19:11:48.448-06:00
16.000000,259.843874,0.770000,12.620966,44.940473,287.253874,180.112579,4.748652,4.029364,-93.167074,5.460000,2025-02-27T19:11:50.000-06:00,-0.330872,-0.943167,0.014302,2025-02-27T19:11:49.446-06:00,-0.585467,0.187264,-0.274445,2025-02-27T19:11:49.442-06:00
17.000000,260.228029,1.340000,23.150991,44.940436,287.638029,180.112579,4.748652,4.029364,-93.167059,4.690000,2025-02-27T19:11:51.000-06:00,-0.336378,-0.943530,0.008289,2025-02-27T19:11:50.441-06:00,-0.572884,0.156739,-0.296833,2025-02-27T19:11:50.447-06:00
18.000000,260.760866,2.300000,42.744373,44.940402,288.170866,180.112579,4.748652,4.029364,-93.167076,4.360000,2025-02-27T19:11:52.000-06:00,-0.333426,-0.941321,0.002306,2025-02-27T19:11:51.445-06:00,-0.504841,0.176752,-0.293590,2025-02-27T19:11:51.441-06:00
19.000000,260.513916,0.980000,34.375715,44.940401,287.923916,180.112579,4.748652,4.029364,-93.167071,2.310000,2025-02-27T19:11:53.000-06:00,-0.321106,-0.945687,0.002538,2025-02-27T19:11:52.450-06:00,-0.369303,0.123975,-0.249119,2025-02-27T19:11:52.446-06:00
20.000000,260.841919,0.308016,10.804347,44.940380,288.251919,180.112579,4.748652,4.029364,-93.167066,2.310000,2025-02-27T19:11:54.000-06:00,-0.298229,-0.952389,0.011078,2025-02-27T19:11:53.444-06:00,-0.106465,0.047884,-0.144362,2025-02-27T19:11:53.441-06:00
21.000000,261.051880,0.308016,12.541729,44.940368,288.461880,180.112579,4.748652,4.029364,-93.167058,1.990000,2025-02-27T19:11:55.000-06:00,-0.281335,-0.957653,0.015271,2025-02-27T19:11:54.449-06:00,0.083862,-0.006304,-0.093140,2025-02-27T19:11:54.445-06:00
22.000000,260.879029,0.308016,17.331973,44.940360,288.289028,180.112579,4.748652,4.029364,-93.167056,1.440000,2025-02-27T19:11:56.000-06:00,-0.274937,-0.958480,0.019531,2025-02-27T19:11:55.444-06:00,0.169096,-0.024060,-0.045764,2025-02-27T19:11:55.450-06:00
23.000000,261.207459,0.308016,19.051941,44.940349,288.617459,179.591095,4.748652,4.029364,-93.167057,1.310000,2025-02-27T19:11:57.000-06:00,-0.283762,-0.956424,0.016805,2025-02-27T19:11:56.448-06:00,0.103895,-0.009673,-0.066699,2025-02-27T19:11:56.445-06:00
24.000000,261.462891,0.308016,19.198494,44.940335,288.872891,179.591095,4.748652,4.029364,-93.167057,1.300000,2025-02-27T19:11:58.000-06:00,-0.284854,-0.955842,0.017865,2025-02-27T19:11:57.443-06:00,0.106659,-0.010554,-0.044463,2025-02-27T19:11:57.449-06:00
25.000000,261.613403,0.308016,19.198494,44.940320,289.023403,179.591095,4.748652,4.029364,-93.167052,1.300000,2025-02-27T19:11:58.999-06:00,-0.286666,-0.955821,0.018291,2025-02-27T19:11:58.447-06:00,0.088111,-0.005530,-0.049397,2025-02-27T19:11:58.444-06:00
26.000000,261.708679,0.308016,23.769564,44.940312,289.118679,179.591095,4.748652,4.029364,-93.167052,1.050000,2025-02-27T19:11:59.999-06:00,-0.293715,-0.953315,0.015050,2025-02-27T19:11:59.442-06:00,0.004252,0.020100,-0.069151,2025-02-27T19:11:59.448-06:00
27.000000,261.817261,0.920000,79.304460,44.940305,289.227261,179.591095,4.748652,4.029364,-93.167052,0.940000,2025-02-27T19:12:00.999-06:00,-0.285018,-0.956244,0.015913,2025-02-27T19:12:00.447-06:00,0.090321,-0.005799,-0.046602,2025-02-27T19:12:00.443-06:00
28.000000,261.727905,0.690000,65.776049,44.940299,289.137905,179.591095,4.748652,4.029364,-93.167051,0.850000,2025-02-27T19:12:01.999-06:00,-0.289689,-0.954832,0.016061,2025-02-27T19:12:01.441-06:00,0.047692,0.005552,-0.048434,2025-02-27T19:12:01.448-06:00
29.000000,261.802429,0.690000,139.774106,44.940299,289.212429,179.591095,4.748652,4.029364,-93.167051,0.400000,2025-02-27T19:12:02.999-06:00,-0.282728,-0.956580,0.017981,2025-02-27T19:12:02.446-06:00,0.116497,-0.011474,-0.021172,2025-02-27T19:12:02.442-06:00
30.000000,261.711792,0.804985,180.000000,44.940300,289.121792,179.591095,4.748652,4.029364,-93.167050,0.180000,2025-02-27T19:12:03.999-06:00,-0.268490,-0.960919,0.022761,2025-02-27T19:12:03.441-06:00,0.241601,-0.049788,0.022299,2025-02-27T19:12:03.447-06:00
31.000000,262.121216,0.804985,180.000000,44.940299,289.531216,179.591095,4.748652,4.029364,-93.167050,0.000000,2025-02-27T19:12:04.999-06:00,-0.267638,-0.961051,0.022623,2025-02-27T19:12:04.445-06:00,0.202306,-0.036673,0.021688,2025-02-27T19:12:04.441-06:00
32.000000,262.121216,0.804985,180.000000,44.940299,289.531216,179.591095,4.748652,4.029364,-93.167050,0.000000,2025-02-27T19:12:05.999-06:00,-0.268142,-0.960739,0.023193,2025-02-27T19:12:05.450-06:00,0.167304,-0.025832,0.018823,2025-02-27T19:12:05.446-06:00
33.000000,262.121216,0.308016,180.000000,44.940299,289.531216,179.591095,2.491431,3.000000,-93.167050,0.000000,2025-02-27T19:12:06.999-06:00,-0.267821,-0.960764,0.022841,2025-02-27T19:12:06.444-06:00,0.161598,-0.020420,0.015178,2025-02-27T19:12:06.441-06:00
34.000000,262.121216,0.308016,180.000000,44.940299,289.531216,179.591095,3.178158,3.000000,-93.167050,0.000000,2025-02-27T19:12:07.999-06:00,-0.267652,-0.961007,0.022804,2025-02-27T19:12:07.449-06:00,0.153276,-0.021828,0.019122,2025-02-27T19:12:07.445-06:00
35.000000,262.121216,0.308016,180.000000,44.940299,289.531216,179.591095,3.175688,3.000000,-93.167050,0.000000,2025-02-27T19:12:08.999-06:00,-0.267843,-0.960962,0.022885,2025-02-27T19:12:08.444-06:00,0.140507,-0.018018,0.019086,2025-02-27T19:12:08.450-06:00
36.000000,262.121216,0.249804,180.000000,44.940299,289.531216,179.591095,2.810446,3.000000,-93.167050,0.000000,2025-02-27T19:12:09.999-06:00,-0.267711,-0.960780,0.022950,2025-02-27T19:12:09.448-06:00,0.132531,-0.013332,0.018916,2025-02-27T19:12:09.445-06:00
37.000000,262.121216,0.308016,180.000000,44.940299,289.531216,179.591095,3.113369,3.000000,-93.167050,0.000000,2025-02-27T19:12:10.999-06:00,-0.267892,-0.960812,0.022501,2025-02-27T19:12:10.443-06:00,0.120194,-0.011230,0.016657,2025-02-27T19:12:10.449-06:00
38.000000,262.121216,0.308016,180.000000,44.940299,289.531216,179.591095,3.187454,3.000000,-93.167050,0.000000,2025-02-27T19:12:11.999-06:00,-0.267832,-0.961051,0.022816,2025-02-27T19:12:11.447-06:00,0.121787,-0.012665,0.016344,2025-02-27T19:12:11.444-06:00
39.000000,262.121216,0.308016,180.000000,44.940299,289.531216,179.591095,3.175123,3.000000,-93.167050,0.000000,2025-02-27T19:12:12.999-06:00,-0.242787,-0.968131,0.030795,2025-02-27T19:12:12.442-06:00,0.355506,-0.078870,0.094513,2025-02-27T19:12:12.448-06:00
40.000000,263.849555,0.733164,180.000000,44.940268,291.259555,179.591095,3.238693,3.000000,-93.167042,0.007613,2025-02-27T19:12:13.999-06:00,-0.179534,-0.984681,0.050832,2025-02-27T19:12:13.447-06:00,0.918496,-0.225960,0.276093,2025-02-27T19:12:13.443-06:00
41.000000,263.975620,1.253680,180.000000,44.940266,291.385620,179.591095,3.216032,3.000000,-93.167040,0.302168,2025-02-27T19:12:14.999-06:00,-0.108622,-1.006166,0.068764,2025-02-27T19:12:14.441-06:00,1.572463,-0.424347,0.445155,2025-02-27T19:12:14.448-06:00
42.000000,264.093787,1.270485,85.679268,44.940248,291.503786,179.591095,3.106567,3.000000,-93.167038,1.200193,2025-02-27T19:12:15.999-06:00,-0.127242,-0.998673,0.063221,2025-02-27T19:12:15.446-06:00,1.334936,-0.336194,0.405189,2025-02-27T19:12:15.442-06:00
43.000000,262.690743,0.790796,12.595815,44.940199,290.100743,179.591095,2.995910,3.000000,-93.167039,3.737927,2025-02-27T19:12:16.999-06:00,-0.123612,-1.004107,0.049415,2025-02-27T19:12:16.441-06:00,1.263486,-0.361836,0.303140,2025-02-27T19:12:16.447-06:00
44.000000,263.246295,0.682075,9.174638,44.940141,290.656295,179.591095,2.905373,3.000000,-93.167036,5.900736,2025-02-27T19:12:17.999-06:00,-0.153581,-0.989203,0.038466,2025-02-27T19:12:17.445-06:00,0.874822,-0.191435,0.225231,2025-02-27T19:12:17.441-06:00
45.000000,263.255621,0.670449,7.405216,44.940079,290.665621,179.591095,2.834970,3.000000,-93.167040,7.323921,2025-02-27T19:12:18.999-06:00,-0.161570,-0.986239,0.033256,2025-02-27T19:12:18.450-06:00,0.777660,-0.163629,0.184788,2025-02-27T19:12:18.446-06:00
46.000000,263.187846,0.663916,7.258970,44.940017,290.597846,180.917877,2.746488,3.000000,-93.167043,7.656051,2025-02-27T19:12:19.999-06:00,-0.170355,-0.987344,0.038819,2025-02-27T19:12:19.444-06:00,0.652895,-0.150986,0.207203,2025-02-27T19:12:19.441-06:00
47.000000,263.451966,0.694999,7.251487,44.939939,290.861966,180.917877,2.639727,3.000000,-93.167036,8.611200,2025-02-27T19:12:20.999-06:00,-0.182601,-0.988374,0.041949,2025-02-27T19:12:20.449-06:00,0.410929,-0.132468,0.137471,2025-02-27T19:12:20.445-06:00
48.000000,262.954024,0.682850,7.257863,44.939853,290.364024,180.917877,2.447396,3.000000,-93.167047,9.315726,2025-02-27T19:12:21.999-06:00,-0.221048,-0.979932,0.039507,2025-02-27T19:12:21.444-06:00,-0.022619,-0.045378,0.001677,2025-02-27T19:12:21.450-06:00
49.000000,263.276130,0.698741,7.258676,44.939755,290.686130,180.917877,2.277956,3.000000,-93.167049,10.399451,2025-02-27T19:12:22.999-06:00,-0.210360,-0.973435,0.040376,2025-02-27T19:12:22.448-06:00,0.048811,0.019742,0.037060,2025-02-27T19:12:22.445-06:00
50.000000,263.253021,0.704389,7.258603,44.939663,290.663020,180.917877,2.166049,3.000000,-93.167048,10.547513,2025-02-27T19:12:23.999-06:00,-0.225145,-0.983915,0.037576,2025-02-27T19:12:23.443-06:00,-0.109725,-0.076882,-0.005310,2025-02-27T19:12:23.449-06:00
51.000000,263.581177,0.682081,7.257335,44.939560,290.991177,180.917877,2.091589,3.000000,-93.167046,11.016751,2025-02-27T19:12:24.999-06:00,-0.236915,-0.962539,0.036788,2025-02-27T19:12:24.447-06:00,-0.199793,0.124654,-0.038664,2025-02-27T19:12:24.444-06:00
52.000000,263.707984,0.698493,7.258715,44.939451,291.117984,180.292148,2.097033,3.000000,-93.167048,11.672438,2025-02-27T19:12:25.999-06:00,-0.263294,-0.960480,0.032653,2025-02-27T19:12:25.442-06:00,-0.443241,0.127234,-0.073446,2025-02-27T19:12:25.448-06:00
53.000000,263.873934,0.693590,7.258530,44.939344,291.283934,180.470646,2.200449,3.000000,-93.167049,11.973436,2025-02-27T19:12:26.999-06:00,-0.274833,-0.960269,0.019962,2025-02-27T19:12:26.447-06:00,-0.535518,0.157254,-0.186300,2025-02-27T19:12:26.443-06:00
54.000000,264.098404,0.698600,7.258025,44.939239,291.508404,179.537705,2.179083,3.000000,-93.167047,11.858424,2025-02-27T19:12:27.999-06:00,-0.270388,-0.962581,0.007414,2025-02-27T19:12:27.441-06:00,-0.480608,0.133897,-0.182519,2025-02-27T19:12:27.448-06:00
55.000000,264.244336,0.691617,7.258328,44.939136,291.654336,179.350318,2.094910,3.000000,-93.167047,11.595936,2025-02-27T19:12:28.999-06:00,-0.264638,-0.954917,0.016153,2025-02-27T19:12:28.446-06:00,-0.376483,0.168223,-0.151807,2025-02-27T19:12:28.442-06:00
56.000000,264.223390,0.702915,7.258918,44.939033,291.633390,178.607497,2.050529,3.000000,-93.167045,11.401752,2025-02-27T19:12:29.999-06:00,-0.274790,-0.963029,0.014308,2025-02-27T19:12:29.441-06:00,-0.449844,0.097894,-0.110062,2025-02-27T19:12:29.447-06:00
57.000000,264.504815,0.697116,7.258519,44.938928,291.914815,180.509143,2.256536,3.000000,-93.167052,11.431136,2025-02-27T19:12:30.999-06:00,-0.232344,-0.966690,0.017644,2025-02-27T19:12:30.445-06:00,-0.037399,0.068550,-0.031025,2025-02-27T19:12:30.441-06:00
58.000000,264.707003,0.681340,7.257758,44.938823,292.117003,179.636215,2.136377,3.000000,-93.167052,11.437737,2025-02-27T19:12:31.999-06:00,-0.223133,-0.969729,0.021004,2025-02-27T19:12:31.450-06:00,0.092799,0.028377,-0.020099,2025-02-27T19:12:31.446-06:00
59.000000,264.367432,0.686619,7.258962,44.938712,291.777432,180.472351,2.072258,3.000000,-93.167050,11.983619,2025-02-27T19:12:32.999-06:00,-0.222788,-0.974122,0.027427,2025-02-27T19:12:32.444-06:00,0.129692,-0.031080,0.063670,2025-02-27T19:12:32.441-06:00
60.000000,264.502804,0.689407,7.258972,44.938595,291.912804,180.219040,2.037288,3.000000,-93.167056,12.684465,2025-02-27T19:12:33.999-06:00,-0.233172,-0.971869,0.032266,2025-02-27T19:12:33.449-06:00,0.008067,0.000922,0.101042,2025-02-27T19:12:33.445-06:00
61.000000,264.772111,0.688349,7.258559,44.938473,292.182111,180.219040,2.113534,3.000000,-93.167059,13.409202,2025-02-27T19:12:34.999-06:00,-0.241045,-0.971494,0.019747,2025-02-27T19:12:34.444-06:00,-0.054501,-0.002759,-0.015960,2025-02-27T19:12:34.450-06:00
62.000000,265.095615,0.682873,7.257589,44.938350,292.505615,179.689194,2.056166,3.000000,-93.167056,13.782765,2025-02-27T19:12:35.999-06:00,-0.248789,-0.961944,0.007225,2025-02-27T19:12:35.448-06:00,-0.097934,0.091455,-0.091315,2025-02-27T19:12:35.445-06:00
63.000000,264.680967,0.777183,7.258972,44.938227,292.090967,180.000000,2.027444,3.000000,-93.167047,14.000470,2025-02-27T19:12:36.999-06:00,-0.257444,-0.965889,0.012401,2025-02-27T19:12:36.443-06:00,-0.186513,0.056308,-0.082616,2025-02-27T19:12:36.449-06:00
64.000000,264.980998,0.699084,7.258668,44.938109,292.390998,180.672806,2.373317,3.000000,-93.167054,13.671948,2025-02-27T19:12:37.999-06:00,-0.255233,-0.960507,0.009359,2025-02-27T19:12:37.447-06:00,-0.143574,0.089880,-0.102794,2025-02-27T19:12:37.444-06:00
65.000000,265.030274,0.693557,7.258876,44.937985,292.440274,180.672806,2.180644,3.000000,-93.167055,13.717192,2025-02-27T19:12:38.999-06:00,-0.252545,-0.956544,0.008630,2025-02-27T19:12:38.442-06:00,-0.072579,0.133309,-0.097964,2025-02-27T19:12:38.448-06:00
66.000000,264.951211,0.693022,7.258974,44.937860,292.361210,181.013885,2.087073,3.000000,-93.167057,13.794018,2025-02-27T19:12:39.999-06:00,-0.263300,-0.937850,0.026425,2025-02-27T19:12:39.447-06:00,-0.018779,0.256803,0.054562,2025-02-27T19:12:39.443-06:00
67.000000,264.910436,0.676950,7.258953,44.937732,292.320436,180.398468,2.087411,3.000000,-93.167059,14.055077,2025-02-27T19:12:40.999-06:00,-0.293189,-0.947840,-0.010450,2025-02-27T19:12:40.441-06:00,-0.293641,0.156685,-0.165900,2025-02-27T19:12:40.448-06:00
68.000000,264.369088,0.683765,7.257348,44.937604,291.779088,180.398468,2.041514,3.000000,-93.167055,14.257058,2025-02-27T19:12:41.999-06:00,-0.303402,-0.956278,0.004392,2025-02-27T19:12:41.446-06:00,-0.293565,0.063797,-0.086017,2025-02-27T19:12:41.442-06:00
69.000000,264.753361,0.678169,7.258931,44.937476,292.163361,180.398468,2.019624,3.000000,-93.167065,14.285567,2025-02-27T19:12:42.999-06:00,-0.302081,-0.945125,0.002462,2025-02-27T19:12:42.441-06:00,-0.265750,0.146951,-0.139960,2025-02-27T19:12:42.447-06:00
70.000000,264.592042,0.684092,7.258975,44.937355,292.002041,180.398468,2.030603,3.000000,-93.167065,13.919073,2025-02-27T19:12:43.999-06:00,-0.293980,-0.952675,0.008531,2025-02-27T19:12:43.445-06:00,-0.195325,0.097942,-0.074602,2025-02-27T19:12:43.441-06:00
71.000000,263.927630,0.696154,7.256988,44.937233,291.337630,180.000000,2.014720,3.000000,-93.167067,13.651580,2025-02-27T19:12:44.999-06:00,-0.292079,-0.953807,0.012157,2025-02-27T19:12:44.450-06:00,-0.157608,0.066771,-0.010134,2025-02-27T19:12:44.446-06:00
72.000000,263.838188,0.687661,7.257411,44.937106,291.248188,178.838943,2.007028,3.000000,-93.167070,13.816213,2025-02-27T19:12:45.999-06:00,-0.286868,-0.949581,0.009049,2025-02-27T19:12:45.444-06:00,-0.141832,0.119348,-0.010535,2025-02-27T19:12:45.441-06:00
73.000000,263.918969,0.683003,7.258243,44.936977,291.328969,178.838943,2.003324,3.000000,-93.167072,13.986139,2025-02-27T19:12:46.999-06:00,-0.283715,-0.962223,0.004925,2025-02-27T19:12:46.449-06:00,-0.082869,0.000967,-0.021588,2025-02-27T19:12:46.445-06:00
74.000000,263.794330,0.679891,7.258117,44.936850,291.204330,179.416763,2.001576,3.000000,-93.167074,14.000189,2025-02-27T19:12:47.999-06:00,-0.285836,-0.958924,0.017207,2025-02-27T19:12:47.444-06:00,-0.091285,0.025639,0.054743,2025-02-27T19:12:47.450-06:00
75.000000,263.539398,0.679648,7.257817,44.936725,290.949398,180.224640,2.000752,3.000000,-93.167076,14.031185,2025-02-27T19:12:48.999-06:00,-0.303419,-0.953793,0.002131,2025-02-27T19:12:48.448-06:00,-0.230221,0.054776,-0.057905,2025-02-27T19:12:48.444-06:00
76.000000,263.536737,0.675126,7.258667,44.936597,290.946736,180.224640,2.040363,3.000000,-93.167074,14.187179,2025-02-27T19:12:49.999-06:00,-0.305493,-0.947781,0.003453,2025-02-27T19:12:49.443-06:00,-0.244546,0.106239,-0.054180,2025-02-27T19:12:49.449-06:00
77.000000,260.585122,0.728305,7.210241,44.936477,287.995122,180.000000,2.019750,3.000000,-93.167075,13.803114,2025-02-27T19:12:50.999-06:00,-0.281252,-0.957979,0.000245,2025-02-27T19:12:50.447-06:00,-0.022748,0.034194,-0.068832,2025-02-27T19:12:50.444-06:00
78.000000,261.959400,0.696764,7.257499,44.936356,289.369400,180.705322,2.009404,3.000000,-93.167069,13.398227,2025-02-27T19:12:51.999-06:00,-0.250261,-0.964122,0.002522,2025-02-27T19:12:51.442-06:00,0.265891,-0.025160,0.047751,2025-02-27T19:12:51.448-06:00
79.000000,262.329349,0.695769,7.258919,44.936227,289.739349,180.000000,2.102292,3.000000,-93.167073,13.761262,2025-02-27T19:12:52.999-06:00,-0.253779,-0.957801,0.003947,2025-02-27T19:12:52.447-06:00,0.274115,0.008124,0.040180,2025-02-27T19:12:52.443-06:00
80.000000,262.424658,0.673498,7.258882,44.936093,289.834657,180.000000,2.048020,3.000000,-93.167075,14.473461,2025-02-27T19:12:53.999-06:00,-0.264748,-0.969870,0.001651,2025-02-27T19:12:53.441-06:00,0.155823,-0.098130,-0.015096,2025-02-27T19:12:53.448-06:00
81.000000,262.121808,0.674637,7.258205,44.935958,289.531808,180.326797,2.022258,3.000000,-93.167080,14.882010,2025-02-27T19:12:54.999-06:00,-0.278947,-0.957141,0.002602,2025-02-27T19:12:54.446-06:00,0.000499,0.029239,-0.013469,2025-02-27T19:12:54.442-06:00
82.000000,262.455187,0.677202,7.258913,44.935823,289.865187,180.326797,2.010184,3.000000,-93.167079,15.160169,2025-02-27T19:12:55.999-06:00,-0.283316,-0.955327,0.001502,2025-02-27T19:12:55.441-06:00,-0.039459,0.048760,0.002242,2025-02-27T19:12:55.447-06:00
83.000000,262.162615,0.670808,7.258899,44.935693,289.572614,180.110107,2.004660,3.000000,-93.167077,14.850215,2025-02-27T19:12:56.999-06:00,-0.284009,-0.952533,0.005509,2025-02-27T19:12:56.445-06:00,-0.023160,0.065427,0.036154,2025-02-27T19:12:56.441-06:00
84.000000,261.857424,0.677896,7.258155,44.935561,289.267424,180.110107,2.002129,3.000000,-93.167076,14.693523,2025-02-27T19:12:57.999-06:00,-0.305563,-0.947085,-0.011290,2025-02-27T19:12:57.450-06:00,-0.219833,0.125907,-0.086508,2025-02-27T19:12:57.446-06:00
85.000000,261.772440,0.674976,7.258387,44.935427,289.182440,180.110123,2.000975,3.000000,-93.167077,14.809604,2025-02-27T19:12:58.999-06:00,-0.312182,-0.952937,-0.018325,2025-02-27T19:12:58.444-06:00,-0.332844,0.074285,-0.155520,2025-02-27T19:12:58.441-06:00
86.000000,261.828510,0.675558,7.258850,44.935296,289.238510,180.110123,2.075331,3.000000,-93.167078,14.659369,2025-02-27T19:12:59.999-06:00,-0.318728,-0.951112,-0.012210,2025-02-27T19:12:59.449-06:00,-0.293375,0.055897,-0.110282,2025-02-27T19:12:59.445-06:00
87.000000,261.904539,0.682877,7.258925,44.935172,289.314539,180.000000,2.368579,3.000000,-93.167068,14.130709,2025-02-27T19:13:00.999-06:00,-0.337785,-0.937254,-0.012582,2025-02-27T19:13:00.444-06:00,-0.514461,0.195453,-0.144497,2025-02-27T19:13:00.450-06:00
88.000000,261.277188,0.679221,7.256760,44.935054,288.687188,180.000000,2.258695,3.000000,-93.167074,13.510269,2025-02-27T19:13:01.999-06:00,-0.389435,-0.925346,-0.022685,2025-02-27T19:13:01.448-06:00,-0.955844,0.317141,-0.208234,2025-02-27T19:13:01.444-06:00
89.000000,261.739838,0.693607,7.258903,44.934936,289.149838,180.000000,2.125844,3.000000,-93.167086,13.107464,2025-02-27T19:13:02.999-06:00,-0.393637,-0.922863,-0.023092,2025-02-27T19:13:02.443-06:00,-0.975763,0.327049,-0.231035,2025-02-27T19:13:02.449-06:00
90.000000,262.393707,0.678879,7.256820,44.934832,289.803706,180.000000,2.179551,3.000000,-93.167075,11.975145,2025-02-27T19:13:03.999-06:00,-0.380483,-0.931176,0.003032,2025-02-27T19:13:03.447-06:00,-0.757427,0.208923,0.078915,2025-02-27T19:13:03.444-06:00
91.000000,261.904612,0.693074,7.258124,44.934747,289.314612,180.000000,2.197188,3.000000,-93.167070,10.313094,2025-02-27T19:13:04.999-06:00,-0.371991,-0.931604,0.045773,2025-02-27T19:13:04.442-06:00,-0.659160,0.206945,0.521394,2025-02-27T19:13:04.448-06:00
92.000000,261.205514,0.675710,7.248323,44.934666,288.615514,179.267487,2.112189,3.000000,-93.167059,9.174894,2025-02-27T19:13:05.999-06:00,-0.391235,-0.918730,-0.021830,2025-02-27T19:13:05.447-06:00,-0.784658,0.305872,-0.165902,2025-02-27T19:13:05.443-06:00
93.000000,261.468015,0.674774,7.257743,44.934577,288.878015,179.267487,2.065014,3.000000,-93.167040,9.500104,2025-02-27T19:13:06.999-06:00,-0.401236,-0.926863,-0.094334,2025-02-27T19:13:06.441-06:00,-0.787685,0.199300,-0.768820,2025-02-27T19:13:06.447-06:00
94.000000,261.318844,0.680950,7.258577,44.934504,288.728844,179.780182,2.039046,3.000000,-93.167063,8.886395,2025-02-27T19:13:07.999-06:00,-0.338880,-0.942599,-0.071494,2025-02-27T19:13:07.446-06:00,-0.159961,0.034269,-0.460776,2025-02-27T19:13:07.442-06:00
95.000000,,,,,,,,,,,,-0.355797,-0.935015,-0.073345,2025-02-27T19:13:08.450-06:00,-0.264945,0.060665,-0.400977,2025-02-27T19:13:08.447-06:00
