seconds_elapsed,location_altitude,location_speedAccuracy,location_bearingAccuracy,location_latitude,location_altitudeAboveMeanSeaLevel,location_bearing,location_horizontalAccuracy,location_verticalAccuracy,location_longitude,location_speed,location_local_time,accelerometerUncalibrated_z,accelerometerUncalibrated_y,accelerometerUncalibrated_x,accelerometerUncalibrated_local_time,accelerometer_z,accelerometer_y,accelerometer_x,accelerometer_local_time
0,255.436627,0.328987,9.672463,44.934394,282.846627,327.718346,2.255533,3,-93.177206,3.698254,2025-04-04T03:28:27Z,-0.191796,-0.982342,1.8e-5,2025-04-04T03:28:26Z,0.513905,-0.131527,0.060956,2025-04-04T03:28:26Z
1,255.374178,0.324134,8.474458,44.934432,282.784178,350.983215,2.254461,3,-93.177208,4.159477,2025-04-04T03:28:28Z,-0.176612,-0.98628,0.031055,2025-04-04T03:28:27Z,0.554808,-0.136433,0.378233,2025-04-04T03:28:27Z
2,255.302706,0.341147,8.655854,44.934483,282.712705,359.073503,2.244709,3,-93.177209,5.254274,2025-04-04T03:28:29Z,-0.173825,-0.986451,0.036478,2025-04-04T03:28:28Z,0.507399,-0.122966,0.512239,2025-04-04T03:28:28Z
3,255.248839,0.33948,7.9532,44.934538,282.658839,1.212806,2.265383,3,-93.177206,6.217158,2025-04-04T03:28:30Z,-0.182096,-0.990773,0.034588,2025-04-04T03:28:29Z,0.357463,-0.147223,0.492615,2025-04-04T03:28:29Z
4,255.184843,0.349179,7.544213,44.9346,282.59484200000003,1.594299,2.30508,3,-93.177206,7.016499,2025-04-04T03:28:31Z,-0.183191,-0.979189,0.040303,2025-04-04T03:28:30Z,0.330876,-0.028855,0.461269,2025-04-04T03:28:30Z
5,255.131916,0.334769,7.258421,44.934672,282.541915,2.116801,2.267257,3,-93.177202,7.843053,2025-04-04T03:28:32Z,-0.195969,-0.984378,0.037364,2025-04-04T03:28:31Z,0.184034,-0.076332,0.38459,2025-04-04T03:28:31Z
6,255.133489,0.340062,7.258437,44.934749,282.543489,2.206812,2.212251,3,-93.177199,8.612538,2025-04-04T03:28:33Z,-0.21235,-0.972796,0.035892,2025-04-04T03:28:32Z,0.012765,0.041014,0.321935,2025-04-04T03:28:32Z
7,255.01885,0.316852,7.258929,44.934834,282.42885,0.247816,2.148912,3,-93.177199,9.296646,2025-04-04T03:28:34Z,-0.217525,-0.980653,0.033011,2025-04-04T03:28:33Z,-0.059129,-0.01206,0.245143,2025-04-04T03:28:33Z
8,254.855182,0.317309,7.258922,44.934923,282.265181,0.247816,2.100724,3,-93.177195,9.762988,2025-04-04T03:28:35Z,-0.245677,-0.963168,0.030764,2025-04-04T03:28:34Z,-0.289026,0.105737,0.198656,2025-04-04T03:28:34Z
9,254.7476,0.31169,7.258963,44.935015,282.1576,0.247816,2.06148,3,-93.177196,10.070613,2025-04-04T03:28:36Z,-0.249141,-0.972039,0.036924,2025-04-04T03:28:35Z,-0.348307,0.048522,0.146772,2025-04-04T03:28:35Z
10,254.633508,0.309668,7.258971,44.935107,282.043508,0.247816,2.598155,3,-93.177196,10.154616,2025-04-04T03:28:37Z,-0.253053,-0.979118,0.032522,2025-04-04T03:28:36Z,-0.453407,-0.011959,0.119483,2025-04-04T03:28:36Z
11,254.578735,0.324024,7.258717,44.935204,281.988735,0.247816,2.600944,3,-93.177191,10.550084,2025-04-04T03:28:38Z,-0.232175,-0.948249,-0.00591,2025-04-04T03:28:37Z,-0.191419,0.272928,0.068558,2025-04-04T03:28:37Z
12,254.268332,0.284322,7.258007,44.935307,281.678332,0,2.328389,3,-93.177192,10.830658,2025-04-04T03:28:39Z,-0.241168,-0.970176,0.014977,2025-04-04T03:28:38Z,-0.193531,0.059073,0.124597,2025-04-04T03:28:38Z
13,254.083424,0.282894,7.258581,44.935409,281.493424,0,2.178829,3,-93.177194,11.13137,2025-04-04T03:28:40Z,-0.248258,-0.970977,0.0207,2025-04-04T03:28:39Z,-0.24395,0.040761,0.047133,2025-04-04T03:28:39Z
14,253.905291,0.28729,7.258754,44.935511,281.315291,0,2.097761,3,-93.177193,11.350285,2025-04-04T03:28:41Z,-0.261147,-0.965524,0.037331,2025-04-04T03:28:40Z,-0.31665,0.068697,0.055247,2025-04-04T03:28:40Z
15,253.909438,0.286611,7.258722,44.935617,281.319438,0,2.431842,3,-93.17719,11.617866,2025-04-04T03:28:42Z,-0.252815,-0.964729,0.036308,2025-04-04T03:28:41Z,-0.229152,0.089154,0.029824,2025-04-04T03:28:41Z
16,253.73624,0.283493,7.258448,44.935723,281.14624,0,2.228651,3,-93.17719,11.724187,2025-04-04T03:28:43Z,-0.27524,-0.958187,0.023571,2025-04-04T03:28:42Z,-0.418852,0.1283,-0.013914,2025-04-04T03:28:42Z
17,253.721443,0.283903,7.258541,44.935832,281.131443,0,2.120159,3,-93.177191,11.871637,2025-04-04T03:28:44Z,-0.279176,-0.95134,0.018612,2025-04-04T03:28:43Z,-0.464664,0.198832,-0.013597,2025-04-04T03:28:43Z
18,253.54986,0.28817,7.25835,44.935937,280.95986,0,2.063577,3,-93.17719,11.756423,2025-04-04T03:28:45Z,-0.283286,-0.986375,0.016096,2025-04-04T03:28:44Z,-0.571014,-0.10759,-0.062935,2025-04-04T03:28:44Z
19,253.675387,0.306597,7.25897,44.93604,281.085387,0,2.033701,3,-93.177188,11.520258,2025-04-04T03:28:46Z,-0.254223,-0.940848,0.004654,2025-04-04T03:28:45Z,-0.228011,0.315283,-0.029225,2025-04-04T03:28:45Z
20,253.590044,0.306928,7.258972,44.936145,281.000043,0,2.017938,3,-93.177186,11.425435,2025-04-04T03:28:47Z,-0.265667,-0.972068,0.018519,2025-04-04T03:28:46Z,-0.211852,-0.024077,0.06995,2025-04-04T03:28:46Z
21,253.272733,0.287972,7.258022,44.936253,280.682733,0.115845,2.009455,3,-93.177189,11.647895,2025-04-04T03:28:48Z,-0.254409,-0.961375,0.010947,2025-04-04T03:28:47Z,-0.145659,0.082777,-0.041394,2025-04-04T03:28:47Z
22,253.25724,0.29785,7.258758,44.936355,280.66724,0.115845,2.172389,3,-93.17719,11.66825,2025-04-04T03:28:49Z,-0.261912,-0.960354,0.024254,2025-04-04T03:28:48Z,-0.162543,0.096181,0.002834,2025-04-04T03:28:48Z
23,253.094311,0.297317,7.258731,44.936459,280.504311,0.115845,2.092125,3,-93.177189,11.644973,2025-04-04T03:28:50Z,-0.262283,-0.971774,0.011566,2025-04-04T03:28:49Z,-0.173504,-0.020446,-0.057483,2025-04-04T03:28:49Z
24,252.958996,0.305941,7.258966,44.936558,280.368995,0.115845,2.072939,3,-93.177193,11.533639,2025-04-04T03:28:51Z,-0.25845,-0.959328,0.013749,2025-04-04T03:28:50Z,-0.130897,0.095809,0.008088,2025-04-04T03:28:50Z
25,252.773955,0.299942,7.258838,44.936664,280.183955,0,2.038705,3,-93.177193,11.450441,2025-04-04T03:28:52Z,-0.262399,-0.968371,0.018161,2025-04-04T03:28:51Z,-0.158084,0.007968,0.002458,2025-04-04T03:28:51Z
26,252.615693,0.300946,7.258885,44.936774,280.025693,0,2.020224,3,-93.177191,11.685875,2025-04-04T03:28:53Z,-0.268184,-0.96489,0.01826,2025-04-04T03:28:52Z,-0.197815,0.031836,0.005189,2025-04-04T03:28:52Z
27,252.709583,0.302414,7.258915,44.936874,280.119583,0,2.030431,3,-93.177185,11.564652,2025-04-04T03:28:54Z,-0.270746,-0.970292,0.016312,2025-04-04T03:28:53Z,-0.224755,-0.015739,-0.030866,2025-04-04T03:28:53Z
28,252.775575,0.31104,7.258957,44.936978,280.185575,0,2.23068,3,-93.177184,11.339048,2025-04-04T03:28:55Z,-0.272979,-0.955651,0.011125,2025-04-04T03:28:54Z,-0.276657,0.138735,-0.023409,2025-04-04T03:28:54Z
29,252.85419,0.30836,7.258974,44.937084,280.26419,0.129609,2.122143,3,-93.177184,11.418996,2025-04-04T03:28:56Z,-0.272963,-0.953371,-0.003716,2025-04-04T03:28:55Z,-0.219692,0.141085,-0.054809,2025-04-04T03:28:55Z
30,252.811474,0.303798,7.258941,44.93719,280.221474,0.129609,2.064219,3,-93.177185,11.362281,2025-04-04T03:28:57Z,-0.267331,-0.961229,0.005071,2025-04-04T03:28:56Z,-0.15299,0.069582,-0.049174,2025-04-04T03:28:56Z
31,252.915002,0.29881,7.258816,44.937292,280.325002,0.129609,2.034431,3,-93.177186,11.175281,2025-04-04T03:28:58Z,-0.254483,-0.96093,0.023044,2025-04-04T03:28:57Z,0.058482,0.035949,0.060696,2025-04-04T03:28:57Z
32,252.954002,0.30446,7.258952,44.937391,280.364002,0.129609,2.144908,3,-93.177188,11.129687,2025-04-04T03:28:59Z,-0.251389,-0.963764,0.014725,2025-04-04T03:28:58Z,0.091903,0.010954,0.011203,2025-04-04T03:28:58Z
33,252.779418,0.302126,7.258914,44.937493,280.189418,0.129609,2.189145,3,-93.177189,11.254644,2025-04-04T03:29:00Z,-0.250619,-0.974372,0.009753,2025-04-04T03:28:59Z,0.069775,-0.075295,-0.011155,2025-04-04T03:28:59Z
34,252.771752,0.306513,7.258971,44.937596,280.181752,0.258363,2.102148,3,-93.177188,11.380642,2025-04-04T03:29:01Z,-0.248867,-0.969034,0.015296,2025-04-04T03:29:00Z,0.149173,-0.046922,-0.052932,2025-04-04T03:29:00Z
35,252.895013,0.305718,7.258969,44.937702,280.305013,0.258363,2.054548,3,-93.177186,11.560085,2025-04-04T03:29:02Z,-0.237053,-0.972631,0.010317,2025-04-04T03:29:01Z,0.081586,-0.032458,0.015693,2025-04-04T03:29:01Z
36,252.872579,0.318838,7.258911,44.937806,280.282578,0.258363,2.029305,3,-93.177186,11.666731,2025-04-04T03:29:03Z,-0.239444,-0.957948,0.001343,2025-04-04T03:29:02Z,0.169963,0.083537,0.007768,2025-04-04T03:29:02Z
37,252.849639,0.30361900000000003,7.258961,44.937909,280.259639,0.258363,2.235928,3,-93.177183,11.636375,2025-04-04T03:29:04Z,-0.243994,-0.963887,0.022275,2025-04-04T03:29:03Z,0.195128,0.006063,0.074652,2025-04-04T03:29:03Z
38,252.535124,0.296711,7.258904,44.938017,279.945124,0,2.194345,3,-93.177181,11.871246,2025-04-04T03:29:05Z,-0.273704,-0.967222,0.006395,2025-04-04T03:29:04Z,-0.117145,-0.01718,-0.026837,2025-04-04T03:29:04Z
39,252.436475,0.289354,7.258813,44.938129000000004,279.846475,0,2.1007,3,-93.17718,12.001955,2025-04-04T03:29:06Z,-0.249265,-0.969853,0.013047,2025-04-04T03:29:05Z,0.105305,-0.045972,6.36e-4,2025-04-04T03:29:05Z
40,252.216891,0.297312,7.258907,44.938238,279.626891,0,2.05271,3,-93.177179,12.04806,2025-04-04T03:29:07Z,-0.253338,-0.957356,0.012944,2025-04-04T03:29:06Z,0.07958,0.077992,0.00586,2025-04-04T03:29:06Z
41,252.361109,0.29547,7.258863,44.938348,279.771108,0,2.253839,3,-93.177176,12.209338,2025-04-04T03:29:08Z,-0.25336,-0.973812,0.01206,2025-04-04T03:29:07Z,0.056934,-0.077896,-0.001685,2025-04-04T03:29:07Z
42,252.031762,0.290832,7.258759,44.938461,279.441761,0,2.166966,3,-93.177174,12.315506,2025-04-04T03:29:09Z,-0.251097,-0.966815,0.011441,2025-04-04T03:29:08Z,0.064631,-0.007895,0.007275,2025-04-04T03:29:08Z
43,251.912561,0.290936,7.258828,44.938578,279.322561,0.29064,2.136856,3,-93.177177,12.488964,2025-04-04T03:29:10Z,-0.249639,-0.964947,0.007438,2025-04-04T03:29:09Z,0.089258,0.009795,-0.033387,2025-04-04T03:29:09Z
44,251.824399,0.281287,7.258659,44.938691,279.234399,0.29064,2.070301,3,-93.177178,12.641425,2025-04-04T03:29:11Z,-0.25164,-0.966604,0.011539,2025-04-04T03:29:10Z,0.063263,-0.00392,0.01836,2025-04-04T03:29:10Z
45,251.445426,0.28329,7.258689,44.938809,278.855425,0.29064,2.035157,3,-93.17717,12.74204,2025-04-04T03:29:12Z,-0.283571,-0.967058,0.002819,2025-04-04T03:29:11Z,-0.245028,-0.01185,-0.088354,2025-04-04T03:29:11Z
46,251.35331300000001,0.283558,7.258649,44.938926,278.763312,0.29064,2.468075,3,-93.177169,12.789184,2025-04-04T03:29:13Z,-0.276141,-0.953337,0.004835,2025-04-04T03:29:12Z,-0.240724,0.139434,-0.033687,2025-04-04T03:29:12Z
47,251.344611,0.301069,7.25893,44.939038,278.754611,0.29064,2.235876,3,-93.17717,12.375834,2025-04-04T03:29:14Z,-0.281607,-0.950823,-0.012827,2025-04-04T03:29:13Z,-0.195665,0.142621,-0.128026,2025-04-04T03:29:13Z
48,251.194638,0.293831,7.258759,44.939151,278.604637,0.307261,2.120168,3,-93.177171,12.476928,2025-04-04T03:29:15Z,-0.285419,-0.961583,-0.006027,2025-04-04T03:29:14Z,-0.22827,0.032545,-0.101243,2025-04-04T03:29:14Z
49,250.903841,0.294327,7.258751,44.939259,278.313841,0.307261,2.062061,3,-93.177171,12.056239,2025-04-04T03:29:16Z,-0.285081,-0.957878,-0.005055,2025-04-04T03:29:15Z,-0.222295,0.062028,-0.055053,2025-04-04T03:29:15Z
50,250.893311,0.300521,7.258906,44.939359,278.30331,0.307261,2.107596,3,-93.17717,11.679306,2025-04-04T03:29:17Z,-0.3282,-0.942798,-0.012789,2025-04-04T03:29:16Z,-0.628736,0.219609,-0.146818,2025-04-04T03:29:16Z
51,250.886599,0.305,7.258968,44.939458,278.296599,0.307235,2.057722,3,-93.177168,11.189207,2025-04-04T03:29:18Z,-0.35392,-0.940491,-0.030399,2025-04-04T03:29:17Z,-0.845529,0.226697,-0.284438,2025-04-04T03:29:17Z
52,250.837987,0.293308,7.258931,44.939555,278.247987,0.307235,2.519192,3,-93.177169,10.400999,2025-04-04T03:29:19Z,-0.359662,-0.93772,-0.025959,2025-04-04T03:29:18Z,-0.809798,0.225696,-0.216446,2025-04-04T03:29:18Z
53,250.643832,0.288321,7.258922,44.939644,278.053832,1.354637,2.285463,3,-93.177169,9.46892,2025-04-04T03:29:20Z,-0.364357,-0.939447,-0.040606,2025-04-04T03:29:19Z,-0.835347,0.196597,-0.245438,2025-04-04T03:29:19Z
54,250.456412,0.303945,7.258949,44.939724,277.866411,0.750977,2.226348,3,-93.177171,8.622233,2025-04-04T03:29:21Z,-0.379545,-0.934925,-0.038859,2025-04-04T03:29:20Z,-0.883498,0.222087,-0.203522,2025-04-04T03:29:20Z
55,250.286299,0.34091,7.2561,44.939788,277.696299,359.679157,2.138325,3,-93.177176,7.33137,2025-04-04T03:29:22Z,-0.392862,-0.926007,-0.039788,2025-04-04T03:29:21Z,-0.938916,0.275687,-0.257415,2025-04-04T03:29:21Z
56,250.189071,0.482714,10.575377,44.939841,277.599071,357.414059,2.175576,3,-93.177176,6.016783,2025-04-04T03:29:23Z,-0.388989,-0.931492,-0.039374,2025-04-04T03:29:22Z,-0.852388,0.22031,-0.229835,2025-04-04T03:29:22Z
57,250.685528,0.520307,12.626092,44.939888,278.095528,0.188147,2.300637,3,-93.177176,4.873486,2025-04-04T03:29:24Z,-0.378839,-0.929084,-0.032885,2025-04-04T03:29:23Z,-0.678468,0.209708,-0.188526,2025-04-04T03:29:23Z
58,251.020148,0.477179,14.511438,44.939916,278.430148,0.188147,2.82689,3,-93.177176,3.587516,2025-04-04T03:29:25Z,-0.373365,-0.936909,-0.034917,2025-04-04T03:29:24Z,-0.626956,0.139998,-0.204385,2025-04-04T03:29:24Z
59,251.173636,0.433039,16.588115,44.939941,278.583636,0.188147,2.803357,3,-93.177179,2.546158,2025-04-04T03:29:26Z,-0.345946,-0.942573,-0.030256,2025-04-04T03:29:25Z,-0.342877,0.073271,-0.113729,2025-04-04T03:29:25Z
60,251.40018800000001,0.377276,18.788383,44.93996,278.810188,0.188147,2.688592,3,-93.17719,1.79791,2025-04-04T03:29:27Z,-0.319388,-0.948376,-0.029677,2025-04-04T03:29:26Z,-0.085304,0.020191,-0.076567,2025-04-04T03:29:26Z
61,251.588695,0.347479,23.61128,44.939968,278.998695,0.188147,2.602518,3,-93.177186,1.033912,2025-04-04T03:29:28Z,-0.287277,-0.95731,-0.020661,2025-04-04T03:29:27Z,0.212124,-0.066102,0.018148,2025-04-04T03:29:27Z
62,251.754223,0.332911,45.431738,44.939972,279.164223,0.188147,2.535571,3,-93.177184,0.533565,2025-04-04T03:29:29Z,-0.274786,-0.961114,-0.017798,2025-04-04T03:29:28Z,0.313496,-0.091812,0.038356,2025-04-04T03:29:28Z
63,251.686825,0.331361,82.225806,44.93997,279.096825,0.188147,2.5381,3,-93.177184,0.288849,2025-04-04T03:29:29Z,-0.257009,-0.965211,-0.012511,2025-04-04T03:29:29Z,0.49948,-0.139188,0.098448,2025-04-04T03:29:29Z
64,251.800551,0.346384,60.805688,44.939974,279.210551,0.188147,2.831361,3,-93.177184,0.384039,2025-04-04T03:29:30Z,-0.258201,-0.964987,-0.01266,2025-04-04T03:29:30Z,0.503447,-0.140131,0.09048,2025-04-04T03:29:30Z
65,251.962721,0.355884,48.067054,44.939979,279.372721,0.188147,2.770109,3,-93.177188,0.556429,2025-04-04T03:29:31Z,-0.258368,-0.965037,-0.012887,2025-04-04T03:29:31Z,0.499475,-0.140274,0.092695,2025-04-04T03:29:31Z
66,251.906618,0.322067,56.246756,44.939978,279.316618,0.188147,2.807935,3,-93.177185,0.429678,2025-04-04T03:29:32Z,-0.257915,-0.965123,-0.013145,2025-04-04T03:29:32Z,0.481912,-0.134392,0.084914,2025-04-04T03:29:32Z
67,251.89044,0.322212,107.013142,44.939974,279.30044,0.188147,2.762993,3,-93.177185,0.225706,2025-04-04T03:29:33Z,-0.258155,-0.964991,-0.013055,2025-04-04T03:29:33Z,0.441108,-0.120948,0.078043,2025-04-04T03:29:33Z
68,251.851707,0.321868,146.208101,44.939974,279.261707,0.188147,2.757493,3,-93.177185,0.165163,2025-04-04T03:29:34Z,-0.258343,-0.965196,-0.012703,2025-04-04T03:29:34Z,0.398427,-0.109073,0.072339,2025-04-04T03:29:34Z
69,251.807671,0.321992,131.110051,44.939976,279.217671,0.188147,2.710149,3,-93.177186,0.184133,2025-04-04T03:29:35Z,-0.258031,-0.965091,-0.013279,2025-04-04T03:29:35Z,0.370021,-0.09744,0.058846,2025-04-04T03:29:35Z
70,251.844302,0.305312,180,44.939975,279.254302,0.188147,2.697793,3,-93.177186,0,2025-04-04T03:29:36Z,-0.258199,-0.964925,-0.013217,2025-04-04T03:29:36Z,0.34488,-0.088838,0.05318,2025-04-04T03:29:36Z
71,251.844302,0.305312,180,44.939975,279.254302,0.188147,2.681577,3,-93.177186,0,2025-04-04T03:29:37Z,-0.258197,-0.965022,-0.012827,2025-04-04T03:29:37Z,0.322748,-0.083657,0.051847,2025-04-04T03:29:37Z
72,251.844302,0.305312,180,44.939975,279.254302,0.188147,2.68932,3,-93.177186,0,2025-04-04T03:29:38Z,-0.258383,-0.965159,-0.0129,2025-04-04T03:29:38Z,0.306419,-0.07942,0.042676,2025-04-04T03:29:38Z
73,251.844302,0.305312,180,44.939975,279.254302,0.188147,2.67642,3,-93.177186,0,2025-04-04T03:29:39Z,-0.258167,-0.964949,-0.013189,2025-04-04T03:29:39Z,0.282905,-0.071334,0.042501,2025-04-04T03:29:39Z
74,251.844302,0.305312,180,44.939975,279.254302,0.188147,2.642599,3,-93.177186,0,2025-04-04T03:29:40Z,-0.258027,-0.964941,-0.013072,2025-04-04T03:29:40Z,0.271815,-0.065416,0.034987,2025-04-04T03:29:40Z
75,251.844302,0.305312,180,44.939975,279.254302,0.188147,2.619196,3,-93.177186,0,2025-04-04T03:29:41Z,-0.258235,-0.964945,-0.012786,2025-04-04T03:29:41Z,0.249066,-0.061205,0.032792,2025-04-04T03:29:41Z
76,251.844302,0.305312,180,44.939975,279.254302,0.188147,2.588408,3,-93.177186,0,2025-04-04T03:29:42Z,-0.257949,-0.965041,-0.013173,2025-04-04T03:29:42Z,0.238463,-0.055917,0.024,2025-04-04T03:29:42Z
77,251.844302,0.305312,180,44.939975,279.254302,0.188147,2.598188,3,-93.177186,0,2025-04-04T03:29:43Z,-0.257974,-0.964967,-0.012865,2025-04-04T03:29:43Z,0.216087,-0.051449,0.026677,2025-04-04T03:29:43Z
78,251.844302,0.305312,180,44.939975,279.254302,0.188147,2.612889,3,-93.177186,0,2025-04-04T03:29:44Z,-0.206366,-0.97782,2.6e-5,2025-04-04T03:29:44Z,0.686761,-0.166937,0.142542,2025-04-04T03:29:44Z
79,251.801198,0.32094,124.605326,44.939983,279.211198,0.188147,2.600229,3,-93.177183,0.194226,2025-04-04T03:29:45Z,-0.157112,-0.991796,0.009648,2025-04-04T03:29:45Z,1.112873,-0.286709,0.238082,2025-04-04T03:29:45Z
80,251.585225,0.335284,30.105999,44.939992,278.995225,0.188147,2.622123,3,-93.177183,0.817534,2025-04-04T03:29:46Z,-0.088842,-1.012797,0.02677,2025-04-04T03:29:46Z,1.640136,-0.454168,0.413255,2025-04-04T03:29:46Z
81,251.58464,0.458011,31.983908,44.940014,278.994639,0.188147,2.605927,3,-93.177186,2.31374,2025-04-04T03:29:47Z,-0.139701,-1.000396,0.005278,2025-04-04T03:29:47Z,0.914808,-0.274566,0.211534,2025-04-04T03:29:47Z
82,251.64848,0.209307,17.355048,44.940049,279.05848,0.188147,2.575631,3,-93.177187,3.608408,2025-04-04T03:29:48Z,-0.140366,-0.992507,-0.010661,2025-04-04T03:29:48Z,0.697576,-0.160433,0.073152,2025-04-04T03:29:48Z
83,251.704932,0.39641,12.885204,44.94009,279.114932,0.188147,2.556345,3,-93.177188,4.40041,2025-04-04T03:29:49Z,-0.125051,-0.974306,-0.010448,2025-04-04T03:29:49Z,0.909096,0.020962,0.135336,2025-04-04T03:29:49Z
84,251.634904,0.330832,7.388919,44.940138,279.044904,0.188147,2.551562,3,-93.177187,5.246886,2025-04-04T03:29:50Z,-0.135524,-0.999236,-0.002651,2025-04-04T03:29:50Z,0.970714,-0.269547,0.178951,2025-04-04T03:29:50Z
85,251.315327,0.311225,7.751781,44.940198,278.725327,359.867554,2.523984,3,-93.177186,6.608487,2025-04-04T03:29:51Z,-0.150359,-0.999621,0.008996,2025-04-04T03:29:51Z,0.765236,-0.254245,0.200905,2025-04-04T03:29:51Z
86,251.195235,0.297209,7.258917,44.940269,278.605234,359.867554,2.479654,3,-93.177184,7.880978,2025-04-04T03:29:52Z,-0.16408,-0.984219,0.012017,2025-04-04T03:29:52Z,0.506003,-0.076367,0.117645,2025-04-04T03:29:52Z
87,251.12276,0.302317,7.25896,44.940349,278.53276,359.867554,2.391531,3,-93.177181,8.903759,2025-04-04T03:29:53Z,-0.190304,-0.97723,0.012359,2025-04-04T03:29:53Z,0.234824,-0.004007,0.092822,2025-04-04T03:29:53Z
88,250.926005,0.276844,7.258602,44.940437,278.336004,359.867554,2.309184,3,-93.177181,9.740718,2025-04-04T03:29:54Z,-0.219579,-0.979681,-0.009716,2025-04-04T03:29:54Z,-0.08187,-0.025317,-0.071423,2025-04-04T03:29:54Z
89,250.720746,0.274066,7.258404,44.940531,278.130745,359.867554,2.317552,3,-93.177181,10.33367,2025-04-04T03:29:55Z,-0.255555,-0.968729,-0.015467,2025-04-04T03:29:55Z,-0.476222,0.106998,-0.160466,2025-04-04T03:29:55Z
90,250.487753,0.282451,7.258483,44.940629,277.897753,359.867554,2.321574,3,-93.177182,10.698755,2025-04-04T03:29:56Z,-0.282374,-0.956947,7.18e-4,2025-04-04T03:29:56Z,-0.671023,0.179515,-0.173922,2025-04-04T03:29:56Z
91,250.252989,0.282765,7.257437,44.940724,277.662989,0,2.461486,3,-93.177181,10.55182,2025-04-04T03:29:57Z,-0.278423,-0.953728,0.002952,2025-04-04T03:29:57Z,-0.617993,0.225502,-0.167826,2025-04-04T03:29:57Z
92,250.067781,0.289156,7.257566,44.940817,277.477781,359.816467,3.788102,3,-93.177178,10.350427,2025-04-04T03:29:58Z,-0.296364,-0.957787,0.011893,2025-04-04T03:29:58Z,-0.669781,0.147708,-0.18796,2025-04-04T03:29:58Z
93,250.086673,0.294651,7.258218,44.940904,277.496673,359.816467,3.020533,3,-93.177179,10.046091,2025-04-04T03:29:59Z,-0.286481,-0.953844,0.00838,2025-04-04T03:29:59Z,-0.582137,0.197671,-0.163438,2025-04-04T03:29:59Z
94,249.899276,0.293671,7.258225,44.940992,277.309275,359.816467,2.582147,3,-93.177178,9.820044,2025-04-04T03:30:00Z,-0.333262,-0.9445,-0.012172,2025-04-04T03:30:00Z,-1.002679,0.273524,-0.309261,2025-04-04T03:30:00Z
95,249.931228,0.290895,7.258354,44.941079,277.341228,0.80077,2.344526,3,-93.177178,9.483004,2025-04-04T03:30:01Z,-0.394548,-0.93476,-0.02991,2025-04-04T03:30:01Z,-1.549468,0.354554,-0.406158,2025-04-04T03:30:01Z
96,249.726949,0.268262,7.258696,44.941152,277.136949,0.80077,2.347947,3,-93.177176,8.286846,2025-04-04T03:30:02Z,-0.395199,-0.92299,-0.014636,2025-04-04T03:30:02Z,-1.434548,0.44892,-0.479759,2025-04-04T03:30:02Z
