seconds_elapsed,location_altitude,location_speedAccuracy,location_bearingAccuracy,location_latitude,location_altitudeAboveMeanSeaLevel,location_bearing,location_horizontalAccuracy,location_verticalAccuracy,location_longitude,location_speed,location_local_time,accelerometerUncalibrated_z,accelerometerUncalibrated_y,accelerometerUncalibrated_x,accelerometerUncalibrated_local_time,accelerometer_z,accelerometer_y,accelerometer_x,accelerometer_local_time
0,261.874427,0.307472,18.980553,44.941276,289.284427,173.45854,3.696808,3,-93.167067,6.78163,2025-04-04T03:31:44Z,-0.174675,-0.984276,-0.021591,2025-04-04T03:31:44Z,0.285145,-0.051504,-0.301393,2025-04-04T03:31:44Z
1,261.805748,0.411728,8.612374,44.941211,289.215748,177.72028,3.548006,3,-93.16707,7.213238,2025-04-04T03:31:45Z,-0.190767,-0.983627,0.023567,2025-04-04T03:31:45Z,0.102568,-0.033599,0.036956,2025-04-04T03:31:45Z
2,261.766633,0.353249,7.247471,44.94114,289.176633,181.253586,3.303527,3,-93.167076,7.761576,2025-04-04T03:31:46Z,-0.19552,-0.982669,0.042452,2025-04-04T03:31:46Z,0.029078,-0.037118,0.167782,2025-04-04T03:31:46Z
3,261.74609,0.357053,7.251955,44.941065,289.15609,181.253586,2.998209,3,-93.167081,8.272044,2025-04-04T03:31:47Z,-0.213464,-0.976967,0.034302,2025-04-04T03:31:47Z,-0.190258,0.037808,0.16686,2025-04-04T03:31:47Z
4,261.820627,0.335551,7.254175,44.940986,289.230627,180.861176,2.694853,3,-93.167084,8.554752,2025-04-04T03:31:48Z,-0.239511,-0.968903,0.017121,2025-04-04T03:31:48Z,-0.423026,0.112067,0.045344,2025-04-04T03:31:48Z
5,261.845017,0.327795,7.255588,44.940908,289.255017,180.861176,2.454549,3,-93.167088,8.471024,2025-04-04T03:31:49Z,-0.277664,-0.958945,0.015783,2025-04-04T03:31:49Z,-0.754574,0.201672,-0.041878,2025-04-04T03:31:49Z
6,261.942391,0.329758,7.255664,44.940834,289.352391,180.861176,2.298061,3,-93.16709,8.122512,2025-04-04T03:31:50Z,-0.282655,-0.961049,0.026665,2025-04-04T03:31:50Z,-0.748977,0.166463,0.008245,2025-04-04T03:31:50Z
7,262.117783,0.344464,7.256779,44.940762,289.527783,180.112579,2.198701,3,-93.167091,7.780475,2025-04-04T03:31:51Z,-0.283272,-0.952259,0.013872,2025-04-04T03:31:51Z,-0.729947,0.250859,-0.058846999999999997,2025-04-04T03:31:51Z
8,262.082677,0.282954,7.253264,44.940695,289.492677,180.112579,2.135752,3,-93.167094,7.38573,2025-04-04T03:31:52Z,-0.309798,-0.954441,0.017516,2025-04-04T03:31:52Z,-0.903191,0.19905,-0.06698,2025-04-04T03:31:52Z
9,262.080397,0.288723,7.680211,44.940636,289.490397,180.112579,2.095426,3,-93.167094,6.671232,2025-04-04T03:31:53Z,-0.316412,-0.948091,0.016451,2025-04-04T03:31:53Z,-0.954245,0.276227,-0.100277,2025-04-04T03:31:53Z
10,262.111411,0.340476,9.275879,44.940582,289.521411,180.112579,2.069108,3,-93.167093,6.004571,2025-04-04T03:31:54Z,-0.320292,-0.943752,0.00704,2025-04-04T03:31:54Z,-0.892607,0.285358,-0.091834,2025-04-04T03:31:54Z
11,262.390815,0.401185,11.126687,44.940531,289.800815,180.112579,2.054343,3,-93.167091,5.356882,2025-04-04T03:31:55Z,-0.329221,-0.944966,-0.008841,2025-04-04T03:31:55Z,-0.958846,0.276804,-0.247616,2025-04-04T03:31:55Z
12,262.648892,0.432258,14.142633,44.94049,290.058892,180.112579,2.045286,3,-93.167093,4.468641,2025-04-04T03:31:56Z,-0.329973,-0.951166,0.007023,2025-04-04T03:31:56Z,-0.924742,0.198803,-0.081968,2025-04-04T03:31:56Z
13,262.676192,0.44377,15.140043,44.940458,290.086192,180.112579,2.038817,3,-93.167093,3.609906,2025-04-04T03:31:57Z,-0.335206,-0.94442,-0.005006,2025-04-04T03:31:57Z,-0.906484,0.251794,-0.152454,2025-04-04T03:31:57Z
14,262.707654,0.442357,16.792155,44.940433,290.117654,180.112579,2.033965,3,-93.167094,2.751048,2025-04-04T03:31:58Z,-0.334242,-0.946,-0.005855,2025-04-04T03:31:58Z,-0.819134,0.214921,-0.159501,2025-04-04T03:31:58Z
15,262.72373,0.419916,19.355998,44.940417,290.133729,180.112579,2.030191,3,-93.167094,1.913958,2025-04-04T03:31:59Z,-0.313503,-0.950281,-3.88e-4,2025-04-04T03:31:59Z,-0.548715,0.156222,-0.080634,2025-04-04T03:31:59Z
16,262.828201,0.405308,23.100497,44.940404,290.238201,180.112579,2.111439,3,-93.167092,1.42367,2025-04-04T03:32:00Z,-0.282175,-0.958534,0.007916,2025-04-04T03:32:00Z,-0.186303,0.061309,-0.003638,2025-04-04T03:32:00Z
17,262.872714,0.406991,30.54539,44.940393,290.282714,180.112579,2.101309,3,-93.167091,1.140555,2025-04-04T03:32:01Z,-0.272188,-0.961103,0.007505,2025-04-04T03:32:01Z,-0.051073,0.026149,0.017297,2025-04-04T03:32:01Z
18,262.815935,0.37307,44.618822,44.94039,290.225935,180.112579,2.092866,3,-93.167091,0.764362,2025-04-04T03:32:02Z,-0.269935,-0.962033,0.009738,2025-04-04T03:32:02Z,-0.005904,0.011073,0.03092,2025-04-04T03:32:02Z
19,262.843088,0.323177,55.236312,44.940387,290.253088,180.112579,2.090133,3,-93.167091,0.449196,2025-04-04T03:32:03Z,-0.272264,-0.960965,0.009559,2025-04-04T03:32:03Z,-0.009522,0.014368,0.026829,2025-04-04T03:32:03Z
20,262.814997,0.31163,157.559521,44.940385,290.224997,180.112579,2.083695,3,-93.167091,0.157677,2025-04-04T03:32:04Z,-0.267638,-0.962423,0.008722,2025-04-04T03:32:04Z,0.048704,-0.001041,0.03053,2025-04-04T03:32:04Z
21,262.787296,0.310382,180,44.940385,290.197296,180.112579,2.078115,3,-93.167091,0.032832,2025-04-04T03:32:05Z,-0.243588,-0.968548,0.015262,2025-04-04T03:32:05Z,0.286643,-0.065177,0.084587,2025-04-04T03:32:05Z
22,262.777845,0.310157,180,44.940385,290.187845,180.112579,2.074006,3,-93.167092,0.034125,2025-04-04T03:32:06Z,-0.243045,-0.968741,0.015548,2025-04-04T03:32:06Z,0.291831,-0.065212,0.088336,2025-04-04T03:32:06Z
23,262.753443,0.309753,180,44.940384,290.163443,180.112579,2.069653,3,-93.167093,0.026069,2025-04-04T03:32:07Z,-0.243162,-0.968846,0.015602,2025-04-04T03:32:07Z,0.284009,-0.065319,0.084042,2025-04-04T03:32:07Z
24,262.789639,0.309284,180,44.940384,290.199638,180.112579,2.065783,3,-93.167094,0.020858,2025-04-04T03:32:08Z,-0.243149,-0.968743,0.015394,2025-04-04T03:32:08Z,0.273471,-0.061201,0.07704,2025-04-04T03:32:08Z
25,262.746903,0.308774,180,44.940384,290.156903,180.112579,2.064896,3,-93.167094,0.009593,2025-04-04T03:32:09Z,-0.242746,-0.96865,0.015183,2025-04-04T03:32:09Z,0.264926,-0.057121,0.069891,2025-04-04T03:32:09Z
26,262.697051,0.309702,180,44.940384,290.107051,180.112579,2.070396,3,-93.167095,0.012336,2025-04-04T03:32:10Z,-0.243266,-0.968715,0.015576,2025-04-04T03:32:10Z,0.247496,-0.05353,0.066477,2025-04-04T03:32:10Z
27,262.726321,0.307728,180,44.940384,290.136321,180.112579,2.071478,3,-93.167096,0,2025-04-04T03:32:11Z,-0.243383,-0.968674,0.015591,2025-04-04T03:32:11Z,0.233922,-0.049175,0.057546,2025-04-04T03:32:11Z
28,262.726321,0.307728,180,44.940384,290.136321,180.112579,2.067904,3,-93.167096,0,2025-04-04T03:32:12Z,-0.243162,-0.96864,0.015348,2025-04-04T03:32:12Z,0.216848,-0.045831,0.056508,2025-04-04T03:32:12Z
29,262.726321,0.307728,180,44.940384,290.136321,180.112579,2.064509,3,-93.167096,0,2025-04-04T03:32:13Z,-0.221487,-0.974268,0.020417,2025-04-04T03:32:13Z,0.408772,-0.095437,0.099686,2025-04-04T03:32:13Z
30,262.662334,0.311584,77.35639,44.94038,290.072333,180.112579,2.083331,3,-93.167098,0.321451,2025-04-04T03:32:14Z,-0.209951,-0.977263,0.023151,2025-04-04T03:32:14Z,0.502336,-0.116206,0.113386,2025-04-04T03:32:14Z
31,262.576476,0.311118,40.871554,44.940374,289.986476,180.112579,2.079164,3,-93.167091,0.609057,2025-04-04T03:32:16Z,-0.213323,-0.976364,0.022334,2025-04-04T03:32:15Z,0.449915,-0.102693,0.1064,2025-04-04T03:32:15Z
32,262.589102,0.307804,180,44.940377,289.999102,180.112579,2.075206,3,-93.167091,0,2025-04-04T03:32:17Z,-0.133495,-0.996762,0.042293,2025-04-04T03:32:16Z,1.171556,-0.290421,0.290854,2025-04-04T03:32:16Z
33,262.615739,0.207401,26.303799,44.940338,290.025738,179.591095,2.071446,3,-93.167089,2.75937,2025-04-04T03:32:18Z,-0.041958,-1.017895,0.058937,2025-04-04T03:32:17Z,1.983969,-0.476275,0.442552,2025-04-04T03:32:17Z
34,262.761798,0.567385,29.164045,44.940294,290.171798,179.591095,2.067874,3,-93.16709,4.542695,2025-04-04T03:32:19Z,-0.112352,-1.002384,0.041061,2025-04-04T03:32:18Z,1.168319,-0.286683,0.268286,2025-04-04T03:32:18Z
35,262.905174,0.348856,7.747595,44.940242,290.315174,179.591095,2.06448,3,-93.167089,5.574032,2025-04-04T03:32:20Z,-0.153468,-0.991088,0.029958,2025-04-04T03:32:19Z,0.612739,-0.150323,0.154141,2025-04-04T03:32:19Z
36,263.021451,0.352725,7.309296,44.940183,290.431451,179.591095,2.061256,3,-93.167089,6.436041,2025-04-04T03:32:21Z,-0.164031,-0.987151,0.022036,2025-04-04T03:32:20Z,0.407065,-0.081727,0.10467,2025-04-04T03:32:20Z
37,263.067997,0.340967,7.257787,44.940117,290.477997,179.591095,2.056251,3,-93.16709,7.222155,2025-04-04T03:32:22Z,-0.152379,-0.98788,0.020474,2025-04-04T03:32:21Z,0.521147,-0.108228,0.104397,2025-04-04T03:32:21Z
38,263.023087,0.337582,7.258445,44.940044,290.433087,179.591095,2.047872,3,-93.167089,8.110021,2025-04-04T03:32:23Z,-0.15378,-0.989005,0.019144,2025-04-04T03:32:22Z,0.467418,-0.076201,0.077048,2025-04-04T03:32:22Z
39,262.959876,0.328676,7.25876,44.939963,290.369876,180.917877,2.036312,3,-93.167091,8.854813,2025-04-04T03:32:24Z,-0.160011,-0.995821,0.023909,2025-04-04T03:32:23Z,0.393518,-0.15308,0.070639,2025-04-04T03:32:23Z
40,263.124794,0.335786,7.258695,44.939872,290.534794,180.917877,2.024156,3,-93.167094,9.916812,2025-04-04T03:32:25Z,-0.163551,-0.992518,0.036631,2025-04-04T03:32:24Z,0.33453,-0.129204,0.079941,2025-04-04T03:32:24Z
41,263.394792,0.330969,7.258817,44.939773,290.804791,180.917877,2.014644,3,-93.167097,10.730819,2025-04-04T03:32:26Z,-0.188786,-0.980079,0.028988,2025-04-04T03:32:25Z,0.050514,0.005933,0.008152,2025-04-04T03:32:25Z
42,263.524572,0.316524,7.258943,44.939672,290.934572,180.917877,2.008495,3,-93.167098,11.215779,2025-04-04T03:32:27Z,-0.218403,-0.979953,0.023465,2025-04-04T03:32:26Z,-0.229151,0.005917,-0.04949,2025-04-04T03:32:26Z
43,263.705875,0.311688,7.258965,44.939571,291.115875,182.265173,2.004631,3,-93.167099,11.301019,2025-04-04T03:32:28Z,-0.208563,-0.972128,0.021481,2025-04-04T03:32:27Z,-0.15358,0.082708,-0.08607,2025-04-04T03:32:27Z
44,263.919423,0.327168,7.258791,44.939466,291.329423,182.182543,2.002502,3,-93.167101,11.692532,2025-04-04T03:32:29Z,-0.201509,-0.976475,0.033521,2025-04-04T03:32:28Z,-0.086898,0.041177,0.013343,2025-04-04T03:32:28Z
45,264.066698,0.314123,7.258963,44.939356,291.476698,182.276346,2.001332,3,-93.167102,12.171062,2025-04-04T03:32:30Z,-0.194728,-0.984019,0.031119,2025-04-04T03:32:29Z,-0.014244,-0.031256,-0.0047,2025-04-04T03:32:29Z
46,264.263366,0.311842,7.258971,44.939242,291.673366,182.364375,2.000691,3,-93.167103,12.606082,2025-04-04T03:32:31Z,-0.203765,-0.981329,0.014213,2025-04-04T03:32:30Z,-0.083433,-0.005085,-0.066472,2025-04-04T03:32:30Z
47,264.468167,0.305659,7.258973,44.939124,291.878167,182.582262,2.00035,3,-93.167105,12.971126,2025-04-04T03:32:32Z,-0.212271,-0.972173,0.019008,2025-04-04T03:32:31Z,-0.192016,0.07807,-0.059161,2025-04-04T03:32:31Z
48,264.51206,0.294729,7.258909,44.939006,291.92206,179.571304,2.000175,3,-93.167106,13.174303,2025-04-04T03:32:33Z,-0.22761,-0.975946,0.014242,2025-04-04T03:32:32Z,-0.29579,0.02836,-0.052269,2025-04-04T03:32:32Z
49,264.670064,0.291009,7.25885,44.938885,292.080064,180.472351,2.000087,3,-93.167108,13.346018,2025-04-04T03:32:34Z,-0.227166,-0.969121,0.01202,2025-04-04T03:32:33Z,-0.265363,0.116671,-0.052933,2025-04-04T03:32:33Z
50,264.840616,0.299231,7.258935,44.938764,292.250616,180.472351,2.000043,3,-93.167109,13.440679,2025-04-04T03:32:35Z,-0.232026,-0.967456,0.012121,2025-04-04T03:32:34Z,-0.262288,0.105637,-0.047638,2025-04-04T03:32:34Z
51,264.959473,0.302668,7.25896,44.938642,292.369473,180.21904,2.000021,3,-93.167109,13.573696,2025-04-04T03:32:36Z,-0.228371,-0.974326,0.012536,2025-04-04T03:32:35Z,-0.229787,0.043881,-0.063007,2025-04-04T03:32:35Z
52,265.216445,0.300481,7.258947,44.938518,292.626445,180.21904,2.00001,3,-93.16711,13.722436,2025-04-04T03:32:37Z,-0.22555,-0.970694,0.014425,2025-04-04T03:32:36Z,-0.160213,0.056189,-0.032844,2025-04-04T03:32:36Z
53,265.266524,0.301239,7.258955,44.938393,292.676524,179.689194,2.000005,3,-93.16711,13.907668,2025-04-04T03:32:38Z,-0.226836,-0.973086,0.014716,2025-04-04T03:32:37Z,-0.173943,0.058159,-0.018311,2025-04-04T03:32:37Z
54,265.411093,0.294151,7.258911,44.938265,292.821093,179.689194,2.000918,3,-93.167109,14.118249,2025-04-04T03:32:39Z,-0.225973,-0.972401,0.010867,2025-04-04T03:32:38Z,-0.146408,0.05604,-0.049791,2025-04-04T03:32:38Z
55,265.328731,0.295416,7.258916,44.938138,292.738731,179.070343,2.000435,3,-93.167113,14.212788,2025-04-04T03:32:40Z,-0.233159,-0.971674,0.001477,2025-04-04T03:32:39Z,-0.197868,0.043696,-0.159082,2025-04-04T03:32:39Z
56,265.396236,0.285734,7.258769,44.938008,292.806235,180.672791,2.000204,3,-93.167111,14.326633,2025-04-04T03:32:41Z,-0.236134,-0.957189,0.005789,2025-04-04T03:32:40Z,-0.171822,0.180381,-0.089698,2025-04-04T03:32:40Z
57,265.396854,0.2681,7.25842,44.937879,292.806854,181.013885,2.000096,3,-93.16711,14.424351,2025-04-04T03:32:42Z,-0.238729,-0.958306,0.008385,2025-04-04T03:32:41Z,-0.094095,0.144736,-0.10458,2025-04-04T03:32:41Z
58,265.217616,0.21248,7.256854,44.937746,292.627616,181.013885,2.000044,3,-93.167111,14.624047,2025-04-04T03:32:43Z,-0.248016,-0.954682,6.13e-4,2025-04-04T03:32:42Z,-0.089901,0.154014,-0.055785,2025-04-04T03:32:42Z
59,264.943361,0.195259,7.256659,44.937613,292.353361,180.398468,2.072114,3,-93.167111,14.820328,2025-04-04T03:32:44Z,-0.258508,-0.964197,0.00748,2025-04-04T03:32:43Z,-0.168678,0.071732,-0.036126,2025-04-04T03:32:43Z
60,264.781437,0.220033,7.257042,44.937479,292.191437,180.398468,2.292049,3,-93.167113,14.810025,2025-04-04T03:32:45Z,-0.257861,-0.963415,0.012604,2025-04-04T03:32:44Z,-0.143261,0.066705,-0.035394,2025-04-04T03:32:44Z
61,264.71164,0.222106,7.256941,44.937345,292.12164,180.398468,2.13317,3,-93.167114,14.889313,2025-04-04T03:32:46Z,-0.2644,-0.962514,0.011932,2025-04-04T03:32:45Z,-0.174882,0.060755,-0.043466,2025-04-04T03:32:45Z
62,264.388472,0.226433,7.25693,44.93721,291.798471,180,2.34435,3,-93.167115,14.912275,2025-04-04T03:32:47Z,-0.26962,-0.963683,0.002697,2025-04-04T03:32:46Z,-0.227443,0.053874,-0.091674,2025-04-04T03:32:46Z
63,264.285632,0.240088,7.257118,44.937075,291.695632,178.838943,2.155935,3,-93.167115,14.879371,2025-04-04T03:32:48Z,-0.27849,-0.961718,-0.004386,2025-04-04T03:32:47Z,-0.32063,0.073015,-0.093807,2025-04-04T03:32:47Z
64,264.066747,0.252584,7.25688,44.936942,291.476747,178.838943,2.070741,3,-93.167116,14.770195,2025-04-04T03:32:49Z,-0.271105,-0.960876,0.001848,2025-04-04T03:32:48Z,-0.238249,0.080917,-0.039627,2025-04-04T03:32:48Z
65,264.030563,0.259087,7.256843,44.936808,291.440563,179.416763,2.032311,3,-93.167115,14.778143,2025-04-04T03:32:50Z,-0.270953,-0.963601,0.005745,2025-04-04T03:32:49Z,-0.209048,0.046304,-0.035085,2025-04-04T03:32:49Z
66,263.933568,0.26687,7.257125,44.936676,291.343568,180.22464,2.014743,3,-93.167115,14.726718,2025-04-04T03:32:51Z,-0.253228,-0.964996,-8.42e-4,2025-04-04T03:32:50Z,-0.037705,0.033773,-0.077396,2025-04-04T03:32:50Z
67,263.815424,0.257842,7.257416,44.936541,291.225424,180.22464,2.006759,3,-93.167117,14.949459,2025-04-04T03:32:52Z,-0.247489,-0.970567,-0.001974,2025-04-04T03:32:51Z,0.011725,-0.013681,-0.076054,2025-04-04T03:32:51Z
68,263.667234,0.234418,7.257406,44.936405,291.077234,180.705322,2.140296,3,-93.167119,15.107632,2025-04-04T03:32:53Z,-0.241172,-0.961375,0.006711,2025-04-04T03:32:52Z,0.094975,0.056431,0.042428,2025-04-04T03:32:52Z
69,263.400765,0.223594,7.257573,44.936269,290.810765,180,2.06348,3,-93.167115,15.213969,2025-04-04T03:32:54Z,-0.261158,-0.970152,-0.002149,2025-04-04T03:32:53Z,-0.096941,-0.02368,0.034561,2025-04-04T03:32:53Z
70,263.18563,0.226605,7.257071,44.936132,290.59563000000003,180,2.0283,3,-93.167116,15.170348,2025-04-04T03:32:55Z,-0.281463,-0.959842,-0.013347,2025-04-04T03:32:54Z,-0.26274,0.070936,-0.138103,2025-04-04T03:32:54Z
71,262.761254,0.258467,7.257459,44.935999,290.171254,180.326797,2.215823,3,-93.167119,14.941903,2025-04-04T03:32:56Z,-0.281905,-0.959059,-0.012438,2025-04-04T03:32:55Z,-0.283251,0.084199,-0.125737,2025-04-04T03:32:55Z
72,262.679139,0.262383,7.25713,44.935865,290.089139,180.326797,2.097755,3,-93.167119,14.803007,2025-04-04T03:32:57Z,-0.278356,-0.960249,-0.005363,2025-04-04T03:32:56Z,-0.217022,0.061098,-0.080772,2025-04-04T03:32:56Z
73,262.580869,0.270205,7.257495,44.935734,289.990869,180.110107,2.044766,3,-93.167119,14.600364,2025-04-04T03:32:58Z,-0.282603,-0.956116,-0.011254,2025-04-04T03:32:57Z,-0.236039,0.096462,-0.080895,2025-04-04T03:32:57Z
74,262.370628,0.269689,7.257346,44.935605,289.780628,180.110107,2.020678,3,-93.16712,14.366605,2025-04-04T03:32:59Z,-0.294053,-0.956628,-0.008653,2025-04-04T03:32:58Z,-0.348894,0.09134,-0.068854,2025-04-04T03:32:58Z
75,262.385808,0.274954,7.257701,44.935478,289.795808,180.110123,2.009685,3,-93.16712,14.030312,2025-04-04T03:33:00Z,-0.293671,-0.954491,-0.015453,2025-04-04T03:32:59Z,-0.313288,0.103677,-0.100801,2025-04-04T03:32:59Z
76,262.270756,0.272178,7.257799,44.935355,289.680756,180.110123,2.034293,3,-93.16712,13.727629,2025-04-04T03:33:01Z,-0.29197,-0.953449,-0.011409,2025-04-04T03:33:00Z,-0.270324,0.107832,-0.065627,2025-04-04T03:33:00Z
77,262.190295,0.264245,7.257782,44.935234,289.600295,180,2.016544,3,-93.16712,13.440017,2025-04-04T03:33:02Z,-0.296175,-0.953501,-0.009641,2025-04-04T03:33:01Z,-0.308713,0.099859,-0.044923,2025-04-04T03:33:01Z
78,262.192039,0.273258,7.258223,44.935115,289.602039,180,2.008028,3,-93.167119,13.077303,2025-04-04T03:33:03Z,-0.321531,-0.952545,-0.004994,2025-04-04T03:33:02Z,-0.472911,0.099669,-0.06986,2025-04-04T03:33:02Z
79,262.314557,0.259989,7.258328,44.935003,289.724557,180,2.003987,3,-93.167114,12.444648,2025-04-04T03:33:04Z,-0.33665,-0.942717,-0.018414,2025-04-04T03:33:03Z,-0.613169,0.186858,-0.158434,2025-04-04T03:33:03Z
80,262.255594,0.245936,7.258401,44.934899,289.665594,180,2.002051,3,-93.167115,11.675963,2025-04-04T03:33:05Z,-0.359076,-0.941141,-0.027835,2025-04-04T03:33:04Z,-0.765058,0.179797,-0.24781,2025-04-04T03:33:04Z
81,262.486354,0.254063,7.258626,44.934804,289.896354,180,2.012928,3,-93.167113,10.510327,2025-04-04T03:33:06Z,-0.357061,-0.941361,-0.003361,2025-04-04T03:33:05Z,-0.696188,0.163136,0.07769,2025-04-04T03:33:05Z
82,262.416803,0.254565,7.25864,44.934718,289.826803,179.267487,2.089707,3,-93.167106,9.568054,2025-04-04T03:33:07Z,-0.374257,-0.935028,0.05837,2025-04-04T03:33:06Z,-0.786037,0.204473,0.632088,2025-04-04T03:33:06Z
83,262.490915,0.285488,7.258909,44.934639,289.900915,179.267487,2.051736,3,-93.167087,8.616372,2025-04-04T03:33:08Z,-0.359365,-0.931756,-0.024006,2025-04-04T03:33:07Z,-0.614397,0.228176,-0.183497,2025-04-04T03:33:07Z
84,262.539121,0.294352,7.25893,44.93457,289.949121,179.267487,2.134227,3,-93.167073,7.777315,2025-04-04T03:33:09Z,-0.368998,-0.941603,-0.075131,2025-04-04T03:33:08Z,-0.676129,0.119974,-0.595116,2025-04-04T03:33:08Z
85,262.602542,0.324728,8.975421,44.934516,290.012542,179.780182,2.135807,3,-93.167068,6.260417,2025-04-04T03:33:10Z,-0.419672,-0.91983,-0.087601,2025-04-04T03:33:09Z,-1.177995,0.333908,-0.670711,2025-04-04T03:33:09Z
86,262.536266,0.291995,10.466849,44.934479,289.946266,179.780182,2.101793,3,-93.167065,4.46879,2025-04-04T03:33:11Z,-0.409399,-0.926024,-0.071857,2025-04-04T03:33:10Z,-1.035285,0.264708,-0.489159,2025-04-04T03:33:10Z
87,262.398623,0.392673,17.848711,44.934456,289.808622,179.780182,2.144756,3,-93.167063,2.931414,2025-04-04T03:33:12Z,-0.365462,-0.935716,-0.047217,2025-04-04T03:33:11Z,-0.614888,0.160988,-0.221919,2025-04-04T03:33:11Z
88,NA,NA,NA,NA,NA,NA,NA,NA,NA,NA,NA,-0.298151,-0.954012,-0.027547,2025-04-04T03:33:12Z,0.054992,-0.014651,-0.044674,2025-04-04T03:33:12Z
