seconds_elapsed,location_altitude,location_speedAccuracy,location_bearingAccuracy,location_latitude,location_altitudeAboveMeanSeaLevel,location_bearing,location_horizontalAccuracy,location_verticalAccuracy,location_longitude,location_speed,location_local_time,accelerometerUncalibrated_z,accelerometerUncalibrated_y,accelerometerUncalibrated_x,accelerometerUncalibrated_local_time,accelerometer_z,accelerometer_y,accelerometer_x,accelerometer_local_time
0,262.184243,0.678967,12.46653,44.934361,289.594243,329.092943,2.396561,3,-93.166975,4.412529,2025-04-04T03:36:40Z,-0.218087,-0.97845,-0.0863,2025-04-04T03:36:39Z,0.245283,-0.084741,-0.984683,2025-04-04T03:36:39Z
1,262.11215,0.670917,11.529963,44.93441,289.52215,351.608015,2.412602,3,-93.166974,4.713614,2025-04-04T03:36:41Z,-0.210328,-0.979068,0.043972,2025-04-04T03:36:40Z,0.08054,-0.043494,0.053425,2025-04-04T03:36:40Z
2,261.979242,0.660086,10.657566,44.934459,289.389241,0.150174,2.367792,3,-93.166972,5.013702,2025-04-04T03:36:42Z,-0.133391,-0.99672,0.083379,2025-04-04T03:36:41Z,0.788493,-0.199603,0.529436,2025-04-04T03:36:41Z
3,262.19899,0.693538,9.84044,44.934514,289.60899,0.150174,2.409162,3,-93.166971,5.70769,2025-04-04T03:36:43Z,-0.145688,-0.990847,0.077209,2025-04-04T03:36:42Z,0.613844,-0.128352,0.524036,2025-04-04T03:36:42Z
4,262.209608,0.654475,7.499136,44.934587,289.619607,0.150174,2.452617,3,-93.166966,7.071061,2025-04-04T03:36:44Z,-0.155485,-0.990907,0.079774,2025-04-04T03:36:43Z,0.424836,-0.108833,0.599091,2025-04-04T03:36:43Z
5,262.135539,0.656452,7.25894,44.934663,289.545538,359.502319,2.59186,3,-93.166963,7.947002,2025-04-04T03:36:45Z,-0.163004,-0.986558,0.063405,2025-04-04T03:36:44Z,0.298004,-0.055807,0.510189,2025-04-04T03:36:44Z
6,261.987713,0.657271,7.258247,44.934748,289.397713,359.502319,2.422557,3,-93.166963,8.865786,2025-04-04T03:36:46Z,-0.171425,-0.986797,0.058329,2025-04-04T03:36:45Z,0.145499,-0.041165,0.533544,2025-04-04T03:36:45Z
7,262.086532,0.661375,7.258954,44.93484,289.496532,0,2.444568,3,-93.166961,9.609884,2025-04-04T03:36:47Z,-0.178929,-0.982279,0.054997,2025-04-04T03:36:46Z,0.051336,0.00634,0.493537,2025-04-04T03:36:46Z
8,262.114386,0.654934,7.258795,44.934935,289.524386,0,2.470834,3,-93.166962,10.260159,2025-04-04T03:36:48Z,-0.176188,-0.983039,0.044495,2025-04-04T03:36:47Z,0.05322,0.002193,0.362083,2025-04-04T03:36:47Z
9,262.501382,0.663479,7.258768,44.935027,289.911381,0,2.82321,3,-93.166964,10.383937,2025-04-04T03:36:49Z,-0.183422,-0.985247,0.0521,2025-04-04T03:36:48Z,-0.051901,-0.0128,0.387289,2025-04-04T03:36:48Z
10,262.72985,0.653881,7.258152,44.935139,290.13985,0,2.889483,3,-93.166962,11.537068,2025-04-04T03:36:50Z,-0.190484,-0.967816,0.030562,2025-04-04T03:36:49Z,-0.116181,0.157098,0.220097,2025-04-04T03:36:49Z
11,262.562436,0.66013,7.258752,44.935246,289.972436,0,2.737609,3,-93.166962,11.841018,2025-04-04T03:36:51Z,-0.221708,-0.990319,0.049498,2025-04-04T03:36:50Z,-0.298209,-0.09139,0.183153,2025-04-04T03:36:50Z
12,262.762067,0.807366,7.258967,44.935351,290.172067,0,2.465419,3,-93.166963,11.804333,2025-04-04T03:36:52Z,-0.215682,-0.972018,0.048669,2025-04-04T03:36:51Z,-0.365616,0.111133,0.12765,2025-04-04T03:36:51Z
13,263.495304,0.760557,7.255506,44.935468,290.905304,0,2.458442,3,-93.16696,12.337148,2025-04-04T03:36:53Z,-0.213301,-0.975378,0.047231,2025-04-04T03:36:52Z,-0.320361,0.07498,0.169687,2025-04-04T03:36:52Z
14,263.080072,0.661059,7.258833,44.935586,290.490072,0,2.231446,3,-93.166961,12.695705,2025-04-04T03:36:54Z,-0.241003,-0.968978,0.03428,2025-04-04T03:36:53Z,-0.559303,0.133119,0.087123,2025-04-04T03:36:53Z
15,263.071122,0.663274,7.258824,44.935705,290.481122,0.230505,2.256012,3,-93.16696,12.874225,2025-04-04T03:36:55Z,-0.262871,-0.961695,0.030688,2025-04-04T03:36:54Z,-0.724685,0.195457,0.035057,2025-04-04T03:36:54Z
16,263.18234,0.656912,7.258779,44.93582,290.59234,0.230505,2.294109,3,-93.166962,12.706018,2025-04-04T03:36:56Z,-0.252044,-0.964991,0.025338,2025-04-04T03:36:55Z,-0.566849,0.152258,-0.063474,2025-04-04T03:36:55Z
17,263.270895,0.664079,7.258171,44.935931,290.680895,0.230505,2.303762,3,-93.166961,12.388426,2025-04-04T03:36:57Z,-0.247382,-0.965789,0.045629,2025-04-04T03:36:56Z,-0.415401,0.128347,0.035814,2025-04-04T03:36:56Z
18,263.249192,0.654666,7.258868,44.936044,290.659192,0.230505,2.53909,3,-93.166962,12.344212,2025-04-04T03:36:58Z,-0.225895,-0.973185,0.050377,2025-04-04T03:36:57Z,-0.191252,0.032054,0.093583,2025-04-04T03:36:57Z
19,262.930853,0.788707,7.258815,44.936165,290.340853,0.230505,2.478187,3,-93.166948,13.029554,2025-04-04T03:36:59Z,-0.217263,-0.957367,0.03395,2025-04-04T03:36:58Z,-0.059337,0.191685,-0.021062,2025-04-04T03:36:58Z
20,261.919272,0.90113,7.251261,44.936295,289.329272,359.878601,2.23358,3,-93.16696,13.920987,2025-04-04T03:37:00Z,-0.23241,-0.985831,0.048508,2025-04-04T03:36:59Z,-0.185522,-0.100465,0.065154,2025-04-04T03:36:59Z
21,262.714949,0.664845,7.258972,44.936387,290.124949,359.878601,2.252789,3,-93.166961,12.544114,2025-04-04T03:37:01Z,-0.22874,-0.974427,0.039183,2025-04-04T03:37:00Z,-0.167754,0.025793,0.029391,2025-04-04T03:37:00Z
22,262.857322,0.664176,7.258897,44.936504,290.267322,359.878601,2.197156,3,-93.166961,12.756494,2025-04-04T03:37:02Z,-0.244506,-0.960933,0.028633,2025-04-04T03:37:01Z,-0.276243,0.142442,-0.071525,2025-04-04T03:37:01Z
23,263.008416,0.660844,7.258859,44.936621,290.418415,0.133635,2.09908,3,-93.166958,12.815795,2025-04-04T03:37:03Z,-0.251843,-0.969515,0.027296,2025-04-04T03:37:02Z,-0.325012,0.055884,-0.073816,2025-04-04T03:37:02Z
24,263.334257,0.661021,7.258166,44.936735,290.744257,0.133635,2.161942,3,-93.166957,12.752793,2025-04-04T03:37:04Z,-0.238967,-0.972887,0.035892,2025-04-04T03:37:03Z,-0.2016,0.022508,-0.012813,2025-04-04T03:37:03Z
25,263.68184,0.672569,7.25808,44.936847,291.09184,0.133635,2.611977,3,-93.166955,12.58782,2025-04-04T03:37:05Z,-0.22592,-0.976393,0.041811,2025-04-04T03:37:04Z,-0.083551,-0.008995,0.053149,2025-04-04T03:37:04Z
26,263.735137,0.668968,7.258616,44.936962,291.145137,0.679126,2.310367,3,-93.166954,12.694246,2025-04-04T03:37:06Z,-0.224949,-0.970794,0.041965,2025-04-04T03:37:05Z,-0.027112,0.035992,0.042989,2025-04-04T03:37:05Z
27,263.641847,0.677841,7.258822,44.937081,291.051847,359.884857,2.991198,3,-93.166951,13.037093,2025-04-04T03:37:07Z,-0.220611,-0.963957,0.042312,2025-04-04T03:37:06Z,0.046694,0.094455,0.066722,2025-04-04T03:37:06Z
28,264.216111,0.779352,7.257928,44.937198,291.62611,359.884857,2.497472,3,-93.166958,13.106952,2025-04-04T03:37:08Z,-0.221864,-0.979953,0.033954,2025-04-04T03:37:07Z,-0.006305,-0.056465,0.013013,2025-04-04T03:37:07Z
29,265.144968,0.728776,7.253112,44.937314,292.554968,359.884857,2.841327,3,-93.166953,13.063664,2025-04-04T03:37:09Z,-0.219803,-0.971395,0.033102,2025-04-04T03:37:08Z,0.023148,0.028759,-0.002174,2025-04-04T03:37:08Z
30,264.776455,0.682296,7.258338,44.937433,292.186455,359.884857,2.419123,3,-93.166952,13.200783,2025-04-04T03:37:10Z,-0.229951,-0.978158,0.043596,2025-04-04T03:37:09Z,-0.077992,-0.03836,0.020303,2025-04-04T03:37:09Z
31,264.953509,0.711964,7.257931,44.937554,292.363509,0.56581,2.289621,3,-93.166956,13.327371,2025-04-04T03:37:11Z,-0.239453,-0.96679,0.044616,2025-04-04T03:37:10Z,-0.145564,0.064432,0.024815,2025-04-04T03:37:10Z
32,265.185927,0.678671,7.257935,44.937674,292.595927,0.56581,2.301183,3,-93.166951,13.256896,2025-04-04T03:37:12Z,-0.239765,-0.968079,0.050658,2025-04-04T03:37:11Z,-0.145032,0.051751,0.032378,2025-04-04T03:37:11Z
33,265.475142,0.705557,7.257339,44.937796,292.885141,0,2.148256,3,-93.166953,13.438836,2025-04-04T03:37:13Z,-0.236021,-0.962536,0.054682,2025-04-04T03:37:12Z,-0.073824,0.094485,0.099030000000000007,2025-04-04T03:37:12Z
34,265.587091,0.661605,7.257968,44.937915,292.997091,0,2.07274,3,-93.166955,13.382594,2025-04-04T03:37:14Z,-0.239818,-0.953734,0.022237,2025-04-04T03:37:13Z,-0.093157,0.184618,-0.111355,2025-04-04T03:37:13Z
35,265.491266,0.661416,7.258884,44.938035,292.901266,0,2.035777,3,-93.166957,13.314448,2025-04-04T03:37:15Z,-0.244613,-0.948257,0.027371,2025-04-04T03:37:14Z,0.066658,0.185135,-0.068849,2025-04-04T03:37:14Z
36,265.079683,0.6535,7.258403,44.938156,292.489683,0,2.017516,3,-93.166958,13.325792,2025-04-04T03:37:16Z,-0.271582,-0.961385,0.027632,2025-04-04T03:37:15Z,-0.148914,0.047429,-0.095557,2025-04-04T03:37:15Z
37,264.744319,0.659969,7.25784,44.938277,292.154319,0.435847,2.008599,3,-93.166958,13.323354,2025-04-04T03:37:17Z,-0.277312,-0.962131,0.034965,2025-04-04T03:37:16Z,-0.188132,0.027415,-0.12105,2025-04-04T03:37:16Z
38,264.681699,0.6564,7.258402,44.938394,292.091699,0.435847,2.004241,3,-93.166957,13.15488,2025-04-04T03:37:18Z,-0.279646,-0.956868,0.035588,2025-04-04T03:37:17Z,-0.208998,0.073483,-0.115552,2025-04-04T03:37:17Z
39,264.502584,0.657177,7.258155,44.938511,291.912584,0.435847,2.166588,3,-93.166955,12.989778,2025-04-04T03:37:19Z,-0.279603,-0.957827,0.039377,2025-04-04T03:37:18Z,-0.194892,0.0704,-0.06943,2025-04-04T03:37:18Z
40,264.347168,0.660349,7.258192,44.938626,291.757168,0.435847,2.083571,3,-93.166956,12.832445,2025-04-04T03:37:20Z,-0.280002,-0.96147,0.037419,2025-04-04T03:37:19Z,-0.224386,0.03912,-0.020451,2025-04-04T03:37:19Z
41,263.686212,0.667921,7.253215,44.93873,291.096212,0.435847,2.100749,3,-93.166956,11.989715,2025-04-04T03:37:21Z,-0.27419,-0.956442,0.02962,2025-04-04T03:37:20Z,-0.130928,0.082697,-0.057166,2025-04-04T03:37:20Z
42,263.942766,0.668706,7.258482,44.938851,291.352766,0.435847,2.063838,3,-93.166955,12.605064,2025-04-04T03:37:22Z,-0.273705,-0.96765,0.029974,2025-04-04T03:37:21Z,-0.140387,-0.018351,-0.073024,2025-04-04T03:37:21Z
43,263.78663,0.662932,7.258604,44.93896,291.19663,0.283038,2.038993,3,-93.166955,12.419641,2025-04-04T03:37:23Z,-0.279311,-0.951771,0.003233,2025-04-04T03:37:22Z,-0.250385,0.143636,-0.202328,2025-04-04T03:37:22Z
44,263.741631,0.657324,7.258672,44.939068,291.151631,0.283038,2.020122,3,-93.166955,12.043415,2025-04-04T03:37:24Z,-0.293527,-0.952058,0.005244,2025-04-04T03:37:23Z,-0.316382,0.128055,-0.064367,2025-04-04T03:37:23Z
45,263.671897,0.664443,7.258611,44.939174,291.081897,0.225612,2.010484,3,-93.166952,11.800202,2025-04-04T03:37:25Z,-0.31172,-0.952347,-0.006372,2025-04-04T03:37:24Z,-0.440273,0.111388,-0.10698,2025-04-04T03:37:24Z
46,263.354028,0.660789,7.257277,44.939273,290.764028,0.225612,2.03374,3,-93.166952,11.234747,2025-04-04T03:37:26Z,-0.331152,-0.948881,-0.00763,2025-04-04T03:37:25Z,-0.604721,0.137635,-0.155147,2025-04-04T03:37:25Z
47,263.301989,0.669435,7.257883,44.939367,290.711989,359.584442,2.018342,3,-93.166951,10.539336,2025-04-04T03:37:27Z,-0.347181,-0.942189,-0.010808,2025-04-04T03:37:26Z,-0.721309,0.191886,-0.215452,2025-04-04T03:37:26Z
48,262.605515,0.778606,7.243473,44.939452,290.015515,359.584442,2.165035,3,-93.166952,9.727311,2025-04-04T03:37:28Z,-0.362936,-0.939417,-0.011322,2025-04-04T03:37:27Z,-0.806596,0.199976,-0.240039,2025-04-04T03:37:27Z
49,262.957048,0.669902,7.256686,44.939528,290.367048,0,2.096418,3,-93.166951,8.77757,2025-04-04T03:37:29Z,-0.368987,-0.936029,-0.009119,2025-04-04T03:37:28Z,-0.77261,0.203054,-0.209725,2025-04-04T03:37:28Z
50,262.875576,0.663856,7.25729,44.939595,290.285576,0,2.058483,3,-93.166951,7.778456,2025-04-04T03:37:30Z,-0.361832,-0.936994,-7.71e-4,2025-04-04T03:37:29Z,-0.581413,0.158697,-0.135024,2025-04-04T03:37:29Z
51,262.846409,0.675675,8.280371,44.93965,290.256409,359.69223,2.041063,3,-93.166953,6.598345,2025-04-04T03:37:31Z,-0.356463,-0.941815,-0.001998,2025-04-04T03:37:30Z,-0.466458,0.090002,-0.175052,2025-04-04T03:37:30Z
52,262.900814,0.664794,9.28715,44.939701,290.310814,359.69223,2.040078,3,-93.166953,5.798285,2025-04-04T03:37:32Z,-0.338329,-0.941921,9.69e-4,2025-04-04T03:37:31Z,-0.315781,0.095248,-0.153255,2025-04-04T03:37:31Z
53,262.945619,0.662506,11.334871,44.93974,290.355619,359.69223,2.032062,3,-93.166953,4.734312,2025-04-04T03:37:33Z,-0.339551,-0.948423,0.005829,2025-04-04T03:37:32Z,-0.294084,0.023662,-0.088155,2025-04-04T03:37:32Z
54,263.116523,0.663751,13.149029,44.939775,290.526523,359.69223,2.140577,3,-93.166953,4.083906,2025-04-04T03:37:34Z,-0.341427,-0.9434,0.005397,2025-04-04T03:37:33Z,-0.282515,0.063125,-0.112105,2025-04-04T03:37:33Z
55,263.149782,0.673591,17.055284,44.9398,290.559781,0,2.156135,3,-93.166952,3.199862,2025-04-04T03:37:35Z,-0.330262,-0.945878,0.010228,2025-04-04T03:37:34Z,-0.137206,0.025257,-0.071932,2025-04-04T03:37:34Z
56,262.899197,0.865596,24.218835,44.939826,290.309197,0,2.644087,3,-93.166951,2.768345,2025-04-04T03:37:36Z,-0.303802,-0.95331,0.019356,2025-04-04T03:37:35Z,0.163888,-0.061329,0.011029,2025-04-04T03:37:35Z
57,261.858468,1.129057,20.713862,44.939856,289.268468,0,2.572521,3,-93.166965,3.078351,2025-04-04T03:37:37Z,-0.283671,-0.958666,0.023711,2025-04-04T03:37:36Z,0.346593,-0.108642,0.06042,2025-04-04T03:37:36Z
58,262.631448,0.668939,36.42935,44.939851,290.041448,0,2.561422,3,-93.166956,1.469616,2025-04-04T03:37:38Z,-0.275269,-0.960692,0.024243,2025-04-04T03:37:37Z,0.390962,-0.115264,0.07774,2025-04-04T03:37:37Z
59,262.603167,0.679768,39.802323,44.939864,290.013167,0,2.626359,3,-93.166956,1.330258,2025-04-04T03:37:39Z,-0.247504,-0.967811,0.027907,2025-04-04T03:37:38Z,0.607174,-0.167619,0.138977,2025-04-04T03:37:38Z
60,262.617535,0.864174,43.246589,44.939878,290.027535,0,2.707858,3,-93.166956,1.412815,2025-04-04T03:37:40Z,-0.222909,-0.973993,0.030086,2025-04-04T03:37:39Z,0.788318,-0.206357,0.171337,2025-04-04T03:37:39Z
61,263.537418,0.938591,22.564482,44.939896,290.947418,0,2.696778,3,-93.166958,1.716156,2025-04-04T03:37:41Z,-0.152246,-0.990695,0.046489,2025-04-04T03:37:40Z,1.384928,-0.341548,0.338935,2025-04-04T03:37:40Z
62,263.273703,0.795402,24.18477,44.939923,290.683703,0,2.647008,3,-93.166957,2.592268,2025-04-04T03:37:42Z,-0.111481,-0.997726,0.055934,2025-04-04T03:37:41Z,1.684036,-0.380584,0.405553,2025-04-04T03:37:41Z
63,262.995526,0.676717,15.373724,44.939957,290.405526,0,2.603874,3,-93.16696,3.532649,2025-04-04T03:37:43Z,-0.141763,-0.994957,0.052501,2025-04-04T03:37:42Z,1.334196,-0.336302,0.31408,2025-04-04T03:37:42Z
64,263.037232,0.673485,10.724656,44.940011,290.447232,0,2.566132,3,-93.16696,5.087388,2025-04-04T03:37:44Z,-0.15428,-0.998156,0.06014,2025-04-04T03:37:43Z,1.071999,-0.33803,0.265288,2025-04-04T03:37:43Z
65,263.073762,0.662428,8.513342,44.940073,290.483762,0,2.53283,3,-93.166958,6.303058,2025-04-04T03:37:45Z,-0.157752,-0.985826,0.049287,2025-04-04T03:37:44Z,0.834576,-0.155117,0.25233,2025-04-04T03:37:44Z
66,262.79897,0.668807,7.362445,44.940143,290.20897,0,2.500624,3,-93.166957,7.349987,2025-04-04T03:37:46Z,-0.165967,-0.963296,0.038192,2025-04-04T03:37:45Z,0.84329,0.03471,0.209157,2025-04-04T03:37:45Z
67,261.978569,0.708428,7.210827,44.940216,289.388569,0.195503,2.414659,3,-93.166948,8.10334,2025-04-04T03:37:47Z,-0.177635,-0.986384,0.053327,2025-04-04T03:37:46Z,0.815637,-0.20623,0.226905,2025-04-04T03:37:46Z
68,262.042516,0.672951,7.251609,44.940299,289.452516,0.195503,2.305315,3,-93.166956,8.932678,2025-04-04T03:37:48Z,-0.195868,-0.992581,0.040076,2025-04-04T03:37:47Z,0.534668,-0.246268,0.042093,2025-04-04T03:37:47Z
69,262.238442,0.67155,7.258951,44.940388,289.648442,0.195503,2.424626,3,-93.166954,9.512829,2025-04-04T03:37:49Z,-0.188371,-0.986531,0.042963,2025-04-04T03:37:48Z,0.492043,-0.158138,0.037796,2025-04-04T03:37:48Z
70,262.811093,0.662413,7.25149,44.940484,290.221093,0.195503,2.407954,3,-93.166955,10.280478,2025-04-04T03:37:50Z,-0.191066,-0.978046,0.0371,2025-04-04T03:37:49Z,0.374744,-0.052088,0.035523,2025-04-04T03:37:49Z
71,262.261188,0.663061,7.258459,44.940589,289.671188,0.195503,2.6003,3,-93.16695,11.190017,2025-04-04T03:37:51Z,-0.207755,-0.969867,0.040829,2025-04-04T03:37:50Z,0.170293,0.036641,0.031092,2025-04-04T03:37:50Z
72,262.672324,0.666844,7.258793,44.940691,290.082324,0.195503,2.682449,3,-93.166951,11.4669,2025-04-04T03:37:52Z,-0.246404,-0.966402,0.049708,2025-04-04T03:37:51Z,-0.135209,0.045446,-0.050535,2025-04-04T03:37:51Z
73,262.345397,0.667096,7.258727,44.940796,289.755397,359.438293,2.363911,3,-93.166949,11.584893,2025-04-04T03:37:53Z,-0.244167,-0.96901,0.064629,2025-04-04T03:37:52Z,-0.119321,0.016744,0.058775,2025-04-04T03:37:52Z
74,262.621759,0.673272,7.258467,44.940906,290.031758,359.107178,2.192336,3,-93.16695,11.921789,2025-04-04T03:37:54Z,-0.251477,-0.965677,0.054711,2025-04-04T03:37:53Z,-0.20811,0.057603,-0.0219,2025-04-04T03:37:53Z
75,262.730305,0.825754,7.258525,44.941015,290.140304,359.107178,2.100983,3,-93.166946,12.053579,2025-04-04T03:37:55Z,-0.254945,-0.9624,0.063351,2025-04-04T03:37:54Z,-0.241046,0.080434,-0.008927,2025-04-04T03:37:54Z
76,262.568292,0.664037,7.258918,44.941126,289.978292,0.206405,2.052626,3,-93.166956,12.317193,2025-04-04T03:37:56Z,-0.266286,-0.969097,0.046124,2025-04-04T03:37:55Z,-0.343216,0.020365,-0.145163,2025-04-04T03:37:55Z
77,262.100729,0.669378,7.258478,44.941235,289.510729,0.206405,2.027221,3,-93.166959,12.224999,2025-04-04T03:37:57Z,-0.28113,-0.970631,0.052101,2025-04-04T03:37:56Z,-0.51191,0.006306,-0.177174,2025-04-04T03:37:56Z
78,261.604205,0.664277,7.257675,44.941344,289.014205,0.206405,2.014124,3,-93.166958,12.097427,2025-04-04T03:37:58Z,-0.265587,-0.961431,0.02427,2025-04-04T03:37:57Z,-0.363384,0.10341500000000001,-0.219434,2025-04-04T03:37:57Z
79,261.957634,0.663044,7.258791,44.941451,289.367634,0,2.007379,3,-93.166959,11.922825,2025-04-04T03:37:59Z,-0.236827,-0.952126,0.010918,2025-04-04T03:37:58Z,-0.169409,0.218838,-0.277035,2025-04-04T03:37:58Z
80,261.84252300000003,0.66132,7.258921,44.941556,289.252523,0,2.003891,3,-93.166959,11.7282,2025-04-04T03:38:00Z,-0.265544,-0.939735,0.011548,2025-04-04T03:37:59Z,-0.208252,0.297451,-0.136893,2025-04-04T03:37:59Z
