seconds_elapsed,location_altitude,location_speedAccuracy,location_bearingAccuracy,location_latitude,location_altitudeAboveMeanSeaLevel,location_bearing,location_horizontalAccuracy,location_verticalAccuracy,location_longitude,location_speed,location_local_time,accelerometerUncalibrated_z,accelerometerUncalibrated_y,accelerometerUncalibrated_x,accelerometerUncalibrated_local_time,accelerometer_z,accelerometer_y,accelerometer_x,accelerometer_local_time
0,260.790416,-0.6325,0.143768,44.934153,288.200416,2.501953,141.874661,4.25,-93.166975,0.855,2025-04-04T03:15:05Z,-0.208528,-0.976189,0.060989,2025-04-04T03:15:05Z,0.171521,-0.023201,0.392796,2025-04-04T03:15:05Z
1,262.365479,1.13,11.456677000000001,44.934498,289.775478,14.765625,5.018246,4,-93.167018,6.42,2025-04-04T03:15:06Z,-0.171823,-0.987964,0.021966,2025-04-04T03:15:06Z,0.458947,-0.124302,0.041755,2025-04-04T03:15:06Z
2,261.986511,0.37,3.071562,44.934558,289.396511,0.150172,3.803991,4,-93.167022,6.42,2025-04-04T03:15:07Z,-0.170248,-0.992379,0.028201,2025-04-04T03:15:07Z,0.370789,-0.135983,0.058217,2025-04-04T03:15:07Z
3,261.712158,0.06,0.492645,44.934614,289.122158,359.502319,3.535534,3,-93.16701,7.97,2025-04-04T03:15:08Z,-0.172398,-0.987853,0.021953,2025-04-04T03:15:08Z,0.30055,-0.082927,-0.061748,2025-04-04T03:15:08Z
4,260.787354,0.19,1.355483,44.934702,288.197353,359.502319,3.535534,3,-93.16702,8.7,2025-04-04T03:15:09Z,-0.199034,-0.97741,0.01913,2025-04-04T03:15:09Z,0.069589,-0.0024,-0.136626,2025-04-04T03:15:09Z
5,261.250732,0.27,1.768409,44.934794,288.660732,0,3.535534,3,-93.167018,9.87,2025-04-04T03:15:10Z,-0.189869,-0.983896,0.026628,2025-04-04T03:15:10Z,0.107595,-0.042635,-0.129479,2025-04-04T03:15:10Z
6,261.738464,0.47,3.006444,44.934889,289.148464,0,3.535534,3,-93.167011,10.28,2025-04-04T03:15:11Z,-0.192714,-0.983132,0.029841,2025-04-04T03:15:11Z,0.093544,-0.05342,-0.112182,2025-04-04T03:15:11Z
7,261.957031,0.94,5.441115,44.934984,289.367031,0,3.535534,3,-93.167009,10.28,2025-04-04T03:15:12Z,-0.201634,-0.978322,0.027483,2025-04-04T03:15:12Z,0.009892,-0.006249,-0.126931,2025-04-04T03:15:12Z
8,262.506104,0.32,1.825266,44.935084,289.916103,0,3.535534,3,-93.167003,10.8,2025-04-04T03:15:13Z,-0.200615,-0.979761,0.023718,2025-04-04T03:15:13Z,-0.031807,0.004819,-0.134361,2025-04-04T03:15:13Z
9,262.281616,0.15,0.814581,44.935191,289.691616,0,3.535534,3,-93.167005,11.86,2025-04-04T03:15:14Z,-0.200237,-0.97855,0.019629,2025-04-04T03:15:14Z,-0.007666,-3.81e-4,-0.123162,2025-04-04T03:15:14Z
10,262.474976,1.38,5.683698,44.935303,289.884975,0,3.535534,3,-93.167007,12.23,2025-04-04T03:15:15Z,-0.213732,-0.98041,0.040676,2025-04-04T03:15:15Z,-0.107985,-0.012196,-0.048404,2025-04-04T03:15:15Z
11,262.133118,1.82,5.475766,44.935422,289.543118,0,3.535534,3,-93.167001,12.23,2025-04-04T03:15:16Z,-0.209992,-0.972186,0.029238,2025-04-04T03:15:16Z,-0.113885,0.071898,-0.136215,2025-04-04T03:15:16Z
12,261.974609,1.65,5.165952,44.935541,289.384609,0,3.535534,3,-93.166969,12.92,2025-04-04T03:15:17Z,-0.212779,-0.977449,0.023763,2025-04-04T03:15:17Z,-0.138492,0.0134,-0.149919,2025-04-04T03:15:17Z
13,261.974623,1.65,10.348063,44.935656,289.384622,0,4.748652,4.029364,-93.166947,12.92,2025-04-04T03:15:18Z,-0.223026,-0.97021,0.020471,2025-04-04T03:15:18Z,-0.231746,0.088938,-0.171005,2025-04-04T03:15:18Z
14,260.998183,1.77,10.759219,44.935789,288.408183,0.230502,4.748652,4.029364,-93.166961,13.33,2025-04-04T03:15:19Z,-0.234961,-0.972468,0.017223,2025-04-04T03:15:19Z,-0.308528,0.057952,-0.169188,2025-04-04T03:15:19Z
15,260.716079,1.77,10.568931,44.935915,288.126079,0.230502,4.748652,4.029364,-93.166985,13.57,2025-04-04T03:15:20Z,-0.232531,-0.966754,0.001817,2025-04-04T03:15:20Z,-0.301311,0.120628,-0.188415,2025-04-04T03:15:20Z
16,260.782973,1.56,9.31499,44.936041,288.192973,0.230502,4.748652,4.029364,-93.167022,13.57,2025-04-04T03:15:21Z,-0.233976,-0.972013,0.007543,2025-04-04T03:15:21Z,-0.308902,0.067515,-0.098654,2025-04-04T03:15:21Z
17,260.943496,2.33,13.912773,44.936161,288.353496,0.230502,4.748652,4.029364,-93.167017,13.57,2025-04-04T03:15:22Z,-0.232259,-0.970048,-0.011088,2025-04-04T03:15:22Z,-0.271507,0.089694,-0.186953,2025-04-04T03:15:22Z
18,261.233903,1.07,7.258975,44.936301,288.643903,359.878601,4.748652,4.029364,-93.167004,14.3,2025-04-04T03:15:23Z,-0.247413,-0.969328,-0.004059,2025-04-04T03:15:23Z,-0.398578,0.088951,-0.186301,2025-04-04T03:15:23Z
19,261.773926,0.3,1.386399,44.936422,289.183926,359.878601,3.535534,3,-93.167004,14.13,2025-04-04T03:15:24Z,-0.246207,-0.965101,-0.001586,2025-04-04T03:15:24Z,-0.349832,0.11769,-0.198752,2025-04-04T03:15:24Z
20,261.773942,0.308016,7.258975,44.936549,289.183941,359.878601,4.748652,4.029364,-93.167004,14.13,2025-04-04T03:15:25Z,-0.244451,-0.969846,0.002525,2025-04-04T03:15:25Z,-0.29914,0.065729,-0.17498,2025-04-04T03:15:25Z
21,261.720108,0.308016,7.258975,44.936674,289.130108,0.133633,4.748652,4.029364,-93.167001,14.03,2025-04-04T03:15:26Z,-0.239584,-0.968768,0.014839,2025-04-04T03:15:26Z,-0.23756,0.075032,-0.1274,2025-04-04T03:15:26Z
22,262.096878,0.308017,7.258975,44.9368,289.506878,0.133633,4.748652,4.029364,-93.167,14.07,2025-04-04T03:15:27Z,-0.236042,-0.97325,0.009575,2025-04-04T03:15:27Z,-0.199721,0.031631,-0.11107,2025-04-04T03:15:27Z
23,262.454117,1.3,7.486639,44.936926,289.864117,0.133633,4.748652,4.029364,-93.166999,14.07,2025-04-04T03:15:28Z,-0.242919,-0.966322,-0.002161,2025-04-04T03:15:28Z,-0.277593,0.096152,-0.124422,2025-04-04T03:15:28Z
24,262.560196,0.51,7.258975,44.937055,289.970196,0.679115,4.748652,4.029364,-93.167002,14.07,2025-04-04T03:15:29Z,-0.231893,-0.971407,-0.003671,2025-04-04T03:15:29Z,-0.18335,0.078801,-0.138089,2025-04-04T03:15:29Z
25,262.779801,0.308016,7.258975,44.937185,290.189801,359.884857,4.748652,4.029364,-93.167002,14.27,2025-04-04T03:15:30Z,-0.242838,-0.967364,0.023669,2025-04-04T03:15:30Z,-0.13167,0.028244,-0.056439,2025-04-04T03:15:30Z
26,262.952286,0.308016,7.258975,44.937313,290.362286,359.884857,4.748652,4.029364,-93.166996,14.23,2025-04-04T03:15:31Z,-0.241063,-0.972557,0.025485,2025-04-04T03:15:31Z,-0.190537,0.033749,-0.057075,2025-04-04T03:15:31Z
27,263.244645,0.56,7.258975,44.937444,290.654645,359.884857,4.748652,4.029364,-93.166994,14.4,2025-04-04T03:15:32Z,-0.246671,-0.964878,0.027433,2025-04-04T03:15:32Z,-0.177377,0.068211,-0.017706,2025-04-04T03:15:32Z
28,263.239884,0.308016,7.258975,44.937573,290.649884,359.884857,4.748652,4.029364,-93.166994,14.4,2025-04-04T03:15:33Z,-0.242896,-0.969936,0.016752,2025-04-04T03:15:33Z,-0.17276,0.046505,-0.100423,2025-04-04T03:15:33Z
29,263.359086,1.4,7.834244,44.937702,290.769086,0.565801,4.748652,4.029364,-93.166974,14.48,2025-04-04T03:15:34Z,-0.243676,-0.966723,0.011955,2025-04-04T03:15:34Z,-0.14816,0.057801,-0.088172,2025-04-04T03:15:34Z
30,262.686296,1.57,8.737273,44.937835,290.096296,0,4.748652,4.029364,-93.166966,14.56,2025-04-04T03:15:35Z,-0.253594,-0.956875,0.008167,2025-04-04T03:15:35Z,-0.228342,0.159914,-0.075857,2025-04-04T03:15:35Z
31,263.716691,0.4,7.258975,44.937961,291.126691,0,4.748652,4.029364,-93.166994,14.56,2025-04-04T03:15:36Z,-0.25462,-0.939572,-5.4e-5,2025-04-04T03:15:36Z,-0.161485,0.308607,-0.077775,2025-04-04T03:15:36Z
32,263.707292,0.308016,7.258975,44.938087,291.117291,0,4.748652,4.029364,-93.166992,14.37,2025-04-04T03:15:37Z,-0.255728,-0.961417,-0.004434,2025-04-04T03:15:37Z,-0.027385,0.058899,-0.140291,2025-04-04T03:15:37Z
33,265.340254,1.26694,7.258974,44.938193,292.750254,0,2,3,-93.167007,14.253411,2025-04-04T03:15:38Z,-0.275681,-0.959697,6.98e-4,2025-04-04T03:15:38Z,-0.171321,0.057189,-0.116626,2025-04-04T03:15:38Z
34,265.0624,1.269197,7.258974,44.938323,292.4724,0.43584,2,3,-93.167008,14.245383,2025-04-04T03:15:39Z,-0.29784,-0.953452,-0.008767,2025-04-04T03:15:39Z,-0.40019,0.128488,-0.25304,2025-04-04T03:15:39Z
35,264.670661,1.270482,7.25896,44.938452,292.080661,0.43584,2.047339,3,-93.167009,14.249991,2025-04-04T03:15:40Z,-0.299552,-0.95327,0.006643,2025-04-04T03:15:40Z,-0.38424,0.121322,-0.124607,2025-04-04T03:15:40Z
36,264.661027,1.270767,7.367488,44.938576,292.071026,0.43584,2.022368,3,-93.167009,13.97498,2025-04-04T03:15:41Z,-0.304152,-0.952914,-0.001013,2025-04-04T03:15:41Z,-0.406055,0.112291,-0.169213,2025-04-04T03:15:41Z
37,264.588449,1.271119,7.526909,44.938699,291.998449,0.43584,2.010682,3,-93.167008,13.683062,2025-04-04T03:15:42Z,-0.302605,-0.952688,0.003661,2025-04-04T03:15:42Z,-0.368318,0.116971,-0.142336,2025-04-04T03:15:42Z
38,264.373371,1.272328,7.751188,44.938815,291.783371,0.43584,2.005256,3,-93.166997,13.298872,2025-04-04T03:15:43Z,-0.29953,-0.954055,0.007897,2025-04-04T03:15:43Z,-0.360242,0.098028,-0.084792,2025-04-04T03:15:43Z
39,264.874154,0.665633,7.258171,44.938923,292.284154,0.283034,2.002662,3,-93.167002,12.671599,2025-04-04T03:15:44Z,-0.299406,-0.957673,-0.003066,2025-04-04T03:15:44Z,-0.379732,0.066265,-0.113208,2025-04-04T03:15:44Z
40,264.513129,0.663661,7.258922,44.93904,291.923129,0.283034,2.001335,3,-93.167006,12.64309,2025-04-04T03:15:45Z,-0.290052,-0.948832,-0.028008,2025-04-04T03:15:45Z,-0.254363,0.158114,-0.147172,2025-04-04T03:15:45Z
41,264.251574,0.661776,7.258211,44.939143,291.661574,0.225609,2.08235,3,-93.167004,11.966565,2025-04-04T03:15:46Z,-0.298851,-0.946616,-0.002039,2025-04-04T03:15:46Z,-0.250437,0.141096,-0.042275,2025-04-04T03:15:46Z
42,263.645332,0.66359,7.255002,44.939249,291.055332,0.225609,2.043198,3,-93.167004,11.760592,2025-04-04T03:15:47Z,-0.300803,-0.958214,-0.0184,2025-04-04T03:15:47Z,-0.258722,0.045559,-0.206986,2025-04-04T03:15:47Z
43,263.514772,0.661126,7.256767,44.939352,290.924772,0.225609,2.022854,3,-93.166986,11.446997,2025-04-04T03:15:48Z,-0.349531,-0.939651,-0.02436,2025-04-04T03:15:48Z,-0.716129,0.206518,-0.263586,2025-04-04T03:15:48Z
44,264.127483,0.680795,7.25758,44.939453,291.537483,359.584412,2.031932,3,-93.167003,11.192972,2025-04-04T03:15:49Z,-0.370116,-0.935162,-0.024306,2025-04-04T03:15:49Z,-0.848462,0.235292,-0.245441,2025-04-04T03:15:49Z
45,263.517731,0.666441,7.257578,44.939543,290.927731,0,2.333102,3,-93.167009,10.469902,2025-04-04T03:15:50Z,-0.392686,-0.929747,-0.031735,2025-04-04T03:15:50Z,-1.027321,0.268207,-0.290208,2025-04-04T03:15:50Z
46,262.797107,0.690699,7.241133,44.939623,290.207107,359.6922,2.190828,3,-93.166988,9.485275,2025-04-04T03:15:51Z,-0.401207,-0.930287,-0.032246,2025-04-04T03:15:51Z,-1.042414,0.253859,-0.273862,2025-04-04T03:15:51Z
47,262.874465,0.665686,7.253696,44.93968,290.284465,359.6922,2.116581,3,-93.167007,7.630221,2025-04-04T03:15:52Z,-0.394819,-0.925427,-0.025015,2025-04-04T03:15:52Z,-0.859302,0.256648,-0.230687,2025-04-04T03:15:52Z
48,262.535724,0.664963,8.413452,44.939734,289.945724,359.6922,2.144852,3,-93.167008,6.353503,2025-04-04T03:15:53Z,-0.375224,-0.931897,-0.026196,2025-04-04T03:15:53Z,-0.607193,0.173869,-0.197132,2025-04-04T03:15:53Z
49,262.439327,0.669904,11.040475,44.939771,289.849327,359.6922,2.108639,3,-93.167003,4.833627,2025-04-04T03:15:54Z,-0.365738,-0.937826,-0.02486,2025-04-04T03:15:54Z,-0.499846,0.111379,-0.173611,2025-04-04T03:15:54Z
50,262.565859,0.667373,13.470603,44.939805,289.975859,0,2.086911,3,-93.167006,3.985637,2025-04-04T03:15:55Z,-0.37224,-0.931637,-0.023092,2025-04-04T03:15:55Z,-0.522268,0.158964,-0.159862,2025-04-04T03:15:55Z
51,262.652416,0.669714,16.832208,44.939832,290.062416,0,2.072426,3,-93.167006,3.221922,2025-04-04T03:15:56Z,-0.360833,-0.938239,-0.022957,2025-04-04T03:15:56Z,-0.37346,0.080854,-0.155828,2025-04-04T03:15:56Z
52,262.550299,0.67204,25.090871,44.939847,289.960298,0,2.062079,3,-93.167004,2.14759,2025-04-04T03:15:57Z,-0.320683,-0.94773,-0.007745,2025-04-04T03:15:57Z,0.037052,-0.01884,-0.018684,2025-04-04T03:15:57Z
53,262.96958,0.781691,32.646375,44.939857,290.37958,0,2.05432,3,-93.167004,1.469979,2025-04-04T03:15:58Z,-0.300813,-0.953871,-0.003067,2025-04-04T03:15:58Z,0.23578,-0.078671,0.023083,2025-04-04T03:15:58Z
54,263.008891,0.779879,51.593194,44.939864,290.41889,0,2.048284,3,-93.167005,0.938964,2025-04-04T03:15:59Z,-0.227477,-0.97229,0.015807,2025-04-04T03:15:59Z,0.921823,-0.250021,0.195414,2025-04-04T03:15:59Z
55,263.115173,0.877737,38.823954,44.939875,290.525173,0,2.063784,3,-93.167007,1.106374,2025-04-04T03:16:00Z,-0.195044,-0.981193,0.024165,2025-04-04T03:16:00Z,1.19929,-0.322139,0.260579,2025-04-04T03:16:00Z
56,262.886866,0.673474,34.351823,44.939891,290.296866,0,2.057986,3,-93.167007,1.577665,2025-04-04T03:16:01Z,-0.127904,-0.998192,0.039411,2025-04-04T03:16:01Z,1.780178,-0.466035,0.405091,2025-04-04T03:16:01Z
57,262.88137,0.669377,19.597633,44.93992,290.29137,0,2.071788,3,-93.167007,2.756824,2025-04-04T03:16:02Z,-0.138121,-0.994948,0.038578,2025-04-04T03:16:02Z,1.616541,-0.409994,0.378511,2025-04-04T03:16:02Z
58,262.824351,0.664583,12.839897,44.939963,290.234351,0,2.066266,3,-93.167007,4.171962,2025-04-04T03:16:03Z,-0.14743,-0.994632,0.028352,2025-04-04T03:16:03Z,1.46578,-0.388084,0.327704,2025-04-04T03:16:03Z
59,262.739752,0.663464,9.805043,44.940017,290.149752,0,2.095988,3,-93.167004,5.46835,2025-04-04T03:16:04Z,-0.15918,-0.992404,0.01562,2025-04-04T03:16:04Z,1.238572,-0.333604,0.281332,2025-04-04T03:16:04Z
60,262.886415,0.657931,8.15488,44.940079,290.296414,0,2.089589,3,-93.167002,6.535831,2025-04-04T03:16:05Z,-0.147967,-0.989581,0.015028,2025-04-04T03:16:05Z,1.281238,-0.30313,0.309988,2025-04-04T03:16:05Z
61,262.75059,0.657353,7.258858,44.94015,290.16059,0,2.079224,3,-93.167,7.528575,2025-04-04T03:16:06Z,-0.14691,-0.981403,0.017494,2025-04-04T03:16:06Z,1.257397,-0.185966,0.320194,2025-04-04T03:16:06Z
62,262.558632,0.661693,7.257619,44.940232,289.968631,0.1955,2.095799,3,-93.166998,8.66045,2025-04-04T03:16:07Z,-0.17197,-0.988828,0.032598,2025-04-04T03:16:07Z,1.100792,-0.292732,0.286174,2025-04-04T03:16:07Z
63,262.374882,0.66559,7.256542,44.940322,289.784882,0.1955,2.226939,3,-93.166998,9.683872,2025-04-04T03:16:08Z,-0.186743,-0.986821,0.035862,2025-04-04T03:16:08Z,0.874704,-0.252799,0.241675,2025-04-04T03:16:08Z
64,262.409731,0.667176,7.258579,44.940421,289.819731,0.1955,2.137475,3,-93.166999,10.586125,2025-04-04T03:16:09Z,-0.208691,-0.977705,0.025277,2025-04-04T03:16:09Z,0.574708,-0.137115,0.14493,2025-04-04T03:16:09Z
65,262.300304,0.664571,7.258827,44.940524,289.710304,0.1955,2.107095,3,-93.166998,11.261484,2025-04-04T03:16:10Z,-0.215227,-0.97614,0.024899,2025-04-04T03:16:10Z,0.44678,-0.107245,0.131277,2025-04-04T03:16:10Z
66,262.35193400000003,0.67112,7.258939,44.940633,289.761934,0.1955,2.53717,3,-93.166996,11.842434,2025-04-04T03:16:11Z,-0.252536,-0.963807,0.021106,2025-04-04T03:16:11Z,0.032225,0.02848,0.050029,2025-04-04T03:16:11Z
67,262.420683,0.669316,7.258934,44.940743,289.830683,359.438293,2.940393,3,-93.166997,12.099837,2025-04-04T03:16:12Z,-0.303467,-0.950852,0.05047,2025-04-04T03:16:12Z,-0.449532,0.147855,0.247635,2025-04-04T03:16:12Z
68,262.367674,0.683294,7.258923,44.940854,289.777674,359.107178,2.635583,3,-93.167002,12.144465,2025-04-04T03:16:13Z,-0.390335,-0.935679,0.042697,2025-04-04T03:16:13Z,-1.313357,0.297399,0.149519,2025-04-04T03:16:13Z
69,262.073488,0.673293,7.2586,44.940958,289.483487,359.107178,2.416039,3,-93.167012,11.593739,2025-04-04T03:16:14Z,-0.363437,-0.931111,0.00761,2025-04-04T03:16:14Z,-1.04837,0.342198,-0.117951,2025-04-04T03:16:14Z
70,261.804396,0.673333,7.256742,44.941046,289.214396,0.206402,2.227065,3,-93.166993,10.438451,2025-04-04T03:16:15Z,-0.324345,-0.943181,-0.03675,2025-04-04T03:16:15Z,-0.716901,0.244317,-0.431079,2025-04-04T03:16:15Z
71,261.888019,0.677383,7.258844,44.941129,289.298019,0.206402,3.795415,3,-93.166993,9.714431,2025-04-04T03:16:16Z,-0.298811,-0.955823,-0.064602,2025-04-04T03:16:16Z,-0.471452,0.12414,-0.53895,2025-04-04T03:16:16Z
72,261.660504,0.667562,7.258647,44.941208,289.070504,0.206402,4.263581,3,-93.166993,9.153698,2025-04-04T03:16:17Z,-0.344924,-0.932424,-0.065275,2025-04-04T03:16:17Z,-0.905515,0.329353,-0.451163,2025-04-04T03:16:17Z
