seconds_elapsed,location_altitude,location_speedAccuracy,location_bearingAccuracy,location_latitude,location_altitudeAboveMeanSeaLevel,location_bearing,location_horizontalAccuracy,location_verticalAccuracy,location_longitude,location_speed,location_local_time,accelerometerUncalibrated_z,accelerometerUncalibrated_y,accelerometerUncalibrated_x,accelerometerUncalibrated_local_time,accelerometer_z,accelerometer_y,accelerometer_x,accelerometer_local_time
0,260.916267,2.266248,42.609407,44.941695,288.326267,230.154006,2.491015,3,-93.167197,4.306004,2025-04-04T03:38:54Z,-0.216211,-0.955528,-0.119077,2025-04-04T03:38:53Z,0.359105,0.112348,-1.22083,2025-04-04T03:38:53Z
1,260.774988,2.273901,37.983439,44.941696,288.184988,258.540166,2.471476,3,-93.167268000000007,4.776752,2025-04-04T03:38:55Z,-0.225275,-0.972423,0.049962,2025-04-04T03:38:54Z,0.401794,-0.081663,0.500095,2025-04-04T03:38:54Z
2,260.385738,2.280859,30.641665,44.941702,287.795738,267.546058,2.412542,3,-93.167344,5.55942,2025-04-04T03:38:56Z,-0.185535,-0.983175,0.034858,2025-04-04T03:38:55Z,0.738697,-0.17248,0.381824,2025-04-04T03:38:55Z
3,259.813459,2.24042,23.781599,44.941704,287.223459,268.899059,2.366704,3,-93.167436,6.719719,2025-04-04T03:38:57Z,-0.218677,-0.977898,0.018628,2025-04-04T03:38:56Z,0.343328,-0.105411,0.320076,2025-04-04T03:38:56Z
4,259.43213,2.125399,21.200607,44.941705,286.84213,269.777897,2.310853,3,-93.167533,7.43707,2025-04-04T03:38:58Z,-0.23771,-0.977849,0.041274,2025-04-04T03:38:57Z,-4.53e-4,-0.06526,0.4107,2025-04-04T03:38:57Z
5,259.164549,2.080894,19.545054,44.941703,286.574548,269.786708,2.333679,3,-93.167636,7.980389,2025-04-04T03:38:59Z,-0.233391,-0.966868,0.06888,2025-04-04T03:38:58Z,0.014188,0.047944,0.566958,2025-04-04T03:38:58Z
6,258.790846,2.036287,17.969199,44.941706,286.200846,270.283199,2.24443,3,-93.167746,8.508356,2025-04-04T03:39:00Z,-0.246187,-0.957738,0.06376,2025-04-04T03:38:59Z,-0.118357,0.141756,0.535442,2025-04-04T03:38:59Z
7,258.4166,1.983317,16.828483,44.941705,285.8266,269.76057,2.167787,3,-93.167862,8.990076,2025-04-04T03:39:01Z,-0.27088,-0.959255,0.030782,2025-04-04T03:39:00Z,-0.389174,0.130779,0.307031,2025-04-04T03:39:00Z
8,258.155719,1.964078,16.38208,44.941703,285.565719,268.694437,2.10701,3,-93.167981,9.185431,2025-04-04T03:39:02Z,-0.277835,-0.968037,0.008662,2025-04-04T03:39:01Z,-0.496091,0.056635,0.165439,2025-04-04T03:39:01Z
9,257.81953,1.954024,16.306172,44.941701,285.22953,268.604175,2.067981,3,-93.168097,9.167987,2025-04-04T03:39:03Z,-0.284212,-0.972428,-0.006702,2025-04-04T03:39:02Z,-0.551809,0.0139,0.098052,2025-04-04T03:39:02Z
10,257.666006,1.955109,16.689011,44.941701,285.076006,270.2341,2.043078,3,-93.168214,9.134257,2025-04-04T03:39:04Z,-0.280247,-0.935748,0.018369,2025-04-04T03:39:03Z,-0.500506,0.366779,0.226669,2025-04-04T03:39:03Z
11,257.43311,2.025815,16.625268,44.941702,284.84311,270.2341,2.027303,3,-93.16833,9.022905,2025-04-04T03:39:05Z,-0.338001,-0.949069,-0.006668,2025-04-04T03:39:04Z,-0.970386,0.216434,-0.005253,2025-04-04T03:39:04Z
12,257.078205,2.158091,17.465422,44.941703,284.488205,270.2341,2.036502,3,-93.168437,8.49621,2025-04-04T03:39:06Z,-0.331734,-0.94325,0.004736,2025-04-04T03:39:05Z,-0.892779,0.264641,0.101698,2025-04-04T03:39:05Z
13,256.605974,2.17753,19.435481,44.941701,284.01597400000003,270.2341,2.024228,3,-93.168535,7.864856,2025-04-04T03:39:07Z,-0.32981,-0.957633,-0.032426,2025-04-04T03:39:06Z,-0.874973,0.141194,-0.138036,2025-04-04T03:39:06Z
14,256.362738,2.099317,21.334253,44.941701,283.772738,270.2341,2.156636,3,-93.168629,7.372652,2025-04-04T03:39:08Z,-0.306981,-0.939321,-0.013482,2025-04-04T03:39:07Z,-0.543671,0.267099,-0.085524,2025-04-04T03:39:07Z
15,256.156863,2.236456,22.736384,44.941703,283.566863,270.2341,2.110929,3,-93.168713,6.852381,2025-04-04T03:39:09Z,-0.318697,-0.963591,-0.045011,2025-04-04T03:39:08Z,-0.61907,0.02476,-0.224317,2025-04-04T03:39:08Z
16,256.171715,2.138221,25.558404,44.941703,283.581715,270.2341,2.13033,3,-93.168798,6.474953,2025-04-04T03:39:10Z,-0.333508,-0.935999,-0.027112,2025-04-04T03:39:09Z,-0.702266,0.29215,-0.13519,2025-04-04T03:39:09Z
17,256.30095,2.183193,29.185193,44.941706,283.71095,270.2341,2.155413,3,-93.16887,5.822107,2025-04-04T03:39:11Z,-0.363504,-0.94188,-0.024635,2025-04-04T03:39:10Z,-0.902527,0.201769,-0.06576,2025-04-04T03:39:10Z
18,255.824995,2.439039,33.834058,44.941714,283.234995,270.2341,2.124189,3,-93.168935,4.985053,2025-04-04T03:39:12Z,-0.396138,-0.926808,-0.022247,2025-04-04T03:39:11Z,-1.155894,0.325364,-0.065849,2025-04-04T03:39:11Z
19,255.590718,2.751003,46.952513,44.941717,283.000718,270.2341,2.123315,3,-93.168975,3.6554,2025-04-04T03:39:13Z,-0.406956,-0.933304,-0.034215,2025-04-04T03:39:12Z,-1.20608,0.249555,-0.190527,2025-04-04T03:39:12Z
20,255.415828,3.244826,73.273304,44.941719,282.825828,270.2341,2.121406,3,-93.168999,2.26547,2025-04-04T03:39:14Z,-0.373525,-0.936733,-0.031304,2025-04-04T03:39:13Z,-0.925393,0.229174,-0.143735,2025-04-04T03:39:13Z
21,255.684315,3.73749,180,44.941718,283.094315,270.2341,2.777082,3,-93.169008,1.080398,2025-04-04T03:39:15Z,-0.258864,-0.96489,-0.001413,2025-04-04T03:39:14Z,0.145496,-0.032329,0.14936,2025-04-04T03:39:14Z
22,255.857773,3.781133,180,44.94172,283.267773,270.2341,2.690739,3,-93.169015,0.692349,2025-04-04T03:39:16Z,-0.189959,-0.983112,0.015566,2025-04-04T03:39:15Z,0.762913,-0.194893,0.310333,2025-04-04T03:39:15Z
23,255.884079,3.760018,180,44.941715,283.294079,270.2341,2.621665,3,-93.169038,1.31463,2025-04-04T03:39:17Z,-0.132013,-0.997064,0.032043,2025-04-04T03:39:16Z,1.242276,-0.30593,0.459761,2025-04-04T03:39:16Z
24,255.920127,2.654638,91.653741,44.941714,283.330127,270.2341,2.56515,3,-93.169073,2.330347,2025-04-04T03:39:18Z,-0.136441,-0.996717,0.03601,2025-04-04T03:39:17Z,1.21913,-0.310942,0.478036,2025-04-04T03:39:17Z
25,255.969882,2.38658,50.933444,44.941709,283.379882,270.2341,2.518054,3,-93.169132,3.768545,2025-04-04T03:39:19Z,-0.15593,-0.98616,0.031968,2025-04-04T03:39:18Z,1.024586,-0.199793,0.343833,2025-04-04T03:39:18Z
26,256.453705,2.253157,38.35972,44.941701,283.863705,270.2341,2.478204,3,-93.169195,4.759125,2025-04-04T03:39:20Z,-0.172437,-0.967714,0.037801,2025-04-04T03:39:19Z,0.86641,-0.023841,0.34246,2025-04-04T03:39:19Z
27,256.515792,2.175656,32.410653,44.941697,283.925792,270.2341,2.487578,3,-93.169261,5.420369,2025-04-04T03:39:21Z,-0.200441,-0.986656,0.014554,2025-04-04T03:39:20Z,0.729211,-0.247385,0.122686,2025-04-04T03:39:20Z
28,256.196862,2.118089,27.843474,44.941697,283.606862,270.125305,2.455073,3,-93.169339,6.112478,2025-04-04T03:39:22Z,-0.201794,-0.989323,-0.015161000000000001,2025-04-04T03:39:21Z,0.547962,-0.229356,-0.053691,2025-04-04T03:39:21Z
29,256.657733,2.065554,24.570735,44.941695,284.067733,270.125305,2.41549,3,-93.169429,6.77738,2025-04-04T03:39:23Z,-0.198699,-0.972243,-0.026983,2025-04-04T03:39:22Z,0.435387,-0.019285,-0.185969,2025-04-04T03:39:22Z
30,256.309048,2.012992,22.559005,44.941696,283.719048,270.125305,2.364111,3,-93.16952,7.229981,2025-04-04T03:39:24Z,-0.197188,-0.989873,-0.023892,2025-04-04T03:39:23Z,0.411169,-0.181637,-0.09955,2025-04-04T03:39:23Z
31,256.307894,1.985213,20.636038,44.941698,283.717894,270.125305,2.296914,3,-93.16962,7.783377,2025-04-04T03:39:25Z,-0.200545,-0.972255,0.003534,2025-04-04T03:39:24Z,0.278054,0.008038,0.131293,2025-04-04T03:39:24Z
32,256.383738,1.944429,19.053968,44.941703,283.793738,270.13382,2.221809,3,-93.169725,8.264996,2025-04-04T03:39:26Z,-0.228148,-0.958152,0.02688,2025-04-04T03:39:25Z,0.064397,0.136712,0.224857,2025-04-04T03:39:25Z
33,256.202694,1.950963,18.611821,44.941706,283.612694,270.13382,2.158045,3,-93.169828999999993,8.425065,2025-04-04T03:39:27Z,-0.22688,-0.983802,0.019492,2025-04-04T03:39:26Z,0.0085,-0.100828,0.146941,2025-04-04T03:39:26Z
34,256.279488,1.927132,17.945862,44.941707,283.689488,270.13382,2.40057,3,-93.16994,8.699162,2025-04-04T03:39:28Z,-0.23083,-0.966947,0.038878,2025-04-04T03:39:27Z,0.05897,0.016261,0.189583,2025-04-04T03:39:27Z
35,255.957384,1.883993,16.982505,44.941708,283.367384,270.13382,2.262445,3,-93.170053,8.981237,2025-04-04T03:39:29Z,-0.233461,-0.9783,0.018002,2025-04-04T03:39:28Z,-0.073548,-0.015092,0.052702,2025-04-04T03:39:28Z
36,255.80757,1.890779,16.58732,44.941707,283.21757,270.13382,2.167266,3,-93.170172,9.233521,2025-04-04T03:39:30Z,-0.253167,-0.962357,-0.009435,2025-04-04T03:39:29Z,-0.23606,0.109437,-0.163024,2025-04-04T03:39:29Z
37,255.578023,1.886123,16.57148,44.941708,282.988023,270.13382,2.105721,3,-93.17029,9.186457,2025-04-04T03:39:31Z,-0.288589,-0.954784,-0.007166,2025-04-04T03:39:30Z,-0.566615,0.171284,-0.212842,2025-04-04T03:39:30Z
38,255.281743,1.91466,17.345256,44.941707,282.691743,270.13382,2.067501,3,-93.170401,8.847638,2025-04-04T03:39:32Z,-0.316569,-0.949034,0.009759,2025-04-04T03:39:31Z,-0.764744,0.212,-0.144691,2025-04-04T03:39:31Z
39,255.3768,1.97147,19.034665,44.941708,282.7868,270.13382,2.043762,3,-93.170505,8.220084,2025-04-04T03:39:33Z,-0.383192,-0.930472,-0.035902,2025-04-04T03:39:32Z,-1.400467,0.397164,-0.381934,2025-04-04T03:39:32Z
40,255.196792,2.075259,23.309895,44.941707,282.606792,270.13382,2.029439,3,-93.170593,6.98786,2025-04-04T03:39:34Z,-0.421862,-0.927307,-0.054175,2025-04-04T03:39:33Z,-1.687603,0.399544,-0.517134,2025-04-04T03:39:33Z
41,255.118037,2.25335,32.743628,44.941708,282.528037,270.13382,2.021309,3,-93.170655,5.247327,2025-04-04T03:39:35Z,-0.428552,-0.921102,-0.046558,2025-04-04T03:39:34Z,-1.558831,0.413202,-0.413462,2025-04-04T03:39:34Z
42,254.783266,2.881784,46.50685,44.94171,282.193266,270.13382,2.017047,3,-93.170695,3.545785,2025-04-04T03:39:36Z,-0.413183,-0.926177,-0.052579,2025-04-04T03:39:35Z,-1.33858,0.337581,-0.389063,2025-04-04T03:39:35Z
43,254.817361,3.667207,70.543805,44.94171,282.227361,270.13382,2.014206,3,-93.170716,1.92667,2025-04-04T03:39:37Z,-0.371874,-0.936577,-0.036324,2025-04-04T03:39:36Z,-0.868652,0.219574,-0.255384,2025-04-04T03:39:36Z
44,254.816739,3.754501,180,44.941712,282.226739,270.13382,2.012177,3,-93.17072,0.525041,2025-04-04T03:39:38Z,-0.23717,-0.970297,-0.003674,2025-04-04T03:39:37Z,0.410744,-0.09907,0.078423,2025-04-04T03:39:37Z
45,255.005381,3.746367,180,44.941711,282.415381,270.13382,2.010655,3,-93.170727,0.466578,2025-04-04T03:39:39Z,-0.146972,-0.994705,0.022936,2025-04-04T03:39:38Z,1.223836,-0.316602,0.309588,2025-04-04T03:39:38Z
46,255.03379,3.753889,180,44.94171,282.443789,270.13382,2.009471,3,-93.170747,1.340876,2025-04-04T03:39:40Z,-0.096844,-1.00568,0.042719,2025-04-04T03:39:39Z,1.601541,-0.39379,0.426914,2025-04-04T03:39:39Z
47,255.217581,2.510678,74.148883,44.941709,282.62758,270.13382,2.008524,3,-93.17079,2.743341,2025-04-04T03:39:41Z,-0.140211,-1.003767,0.03987,2025-04-04T03:39:40Z,1.08396,-0.352748,0.287,2025-04-04T03:39:40Z
48,255.439517,2.381445,49.487355,44.941708,282.849517,269.34404,2.007749,3,-93.170845,3.858126,2025-04-04T03:39:42Z,-0.096969,-0.979207,0.063737,2025-04-04T03:39:41Z,1.524845,-0.115831,0.394555,2025-04-04T03:39:41Z
49,255.440096,2.219749,35.153251,44.941708,282.850096,269.470958,2.007103,3,-93.170912,5.092152,2025-04-04T03:39:43Z,-0.15271,-0.988327,0.057946,2025-04-04T03:39:42Z,1.087961,-0.240095,0.360912,2025-04-04T03:39:42Z
50,255.338902,2.130843,27.584234,44.941706,282.748902,268.851539,2.006557,3,-93.170992,6.164804,2025-04-04T03:39:44Z,-0.196675,-0.977955,0.012429,2025-04-04T03:39:43Z,0.572145,-0.107276,6.4e-5,2025-04-04T03:39:43Z
51,255.378212,2.0663,24.316909,44.941706,282.788212,268.888211,2.005931,3,-93.171082,6.816391,2025-04-04T03:39:45Z,-0.247349,-0.967415,-0.019538,2025-04-04T03:39:44Z,0.041449,0.003093,-0.073944,2025-04-04T03:39:44Z
52,255.288579,2.078904,24.236097,44.941704,282.698579,268.66999,2.005145,3,-93.171166,6.770911,2025-04-04T03:39:46Z,-0.212636,-0.98032,-0.025202,2025-04-04T03:39:45Z,0.299074,-0.10483,0.00984,2025-04-04T03:39:45Z
53,255.097442,2.057989,23.412226,44.941704,282.507442,268.83629,2.004371,3,-93.171254,7.004956,2025-04-04T03:39:47Z,-0.20486,-0.980952,-0.009938,2025-04-04T03:39:46Z,0.26754,-0.081892,0.044166,2025-04-04T03:39:46Z
54,254.991929,2.028872,22.172883,44.941703,282.401929,269.099794,2.003586,3,-93.171348,7.348873,2025-04-04T03:39:48Z,-0.215087,-0.968134,0.002765,2025-04-04T03:39:47Z,0.176544,0.041043,0.099545,2025-04-04T03:39:47Z
55,254.939219,1.99599,20.87952,44.941703,282.349219,270.11438,2.0028,3,-93.171448,7.696929,2025-04-04T03:39:49Z,-0.203916,-0.977258,-0.014755,2025-04-04T03:39:48Z,0.21266,-0.023735,0.010826,2025-04-04T03:39:48Z
56,254.873407,1.989568,19.593738,44.941705,282.283407,270.11438,2.002081,3,-93.171552,8.062224,2025-04-04T03:39:50Z,-0.210541,-0.9787,-0.018079,2025-04-04T03:39:49Z,0.169728,-0.054193,-0.036935,2025-04-04T03:39:49Z
57,254.831592,1.957588,18.754863,44.941706,282.241592,270.11438,2.001474,3,-93.17166,8.405479,2025-04-04T03:39:51Z,-0.2028,-0.971568,-0.009045,2025-04-04T03:39:50Z,0.234104,0.030569,0.012339,2025-04-04T03:39:50Z
58,254.504137,1.963087,17.896055,44.941707,281.914137,270.11438,2.000984,3,-93.171769,8.666036,2025-04-04T03:39:52Z,-0.221164,-0.97423,-0.001693,2025-04-04T03:39:51Z,0.089954,-0.020016,0.053692,2025-04-04T03:39:51Z
59,254.295517,1.925498,17.088437,44.941707,281.705517,270.11438,2.010228,3,-93.171884,8.995229,2025-04-04T03:39:53Z,-0.215987,-0.976857,0.008841,2025-04-04T03:39:52Z,0.129101,-0.031601,0.037365,2025-04-04T03:39:52Z
60,254.358577,1.926095,16.354359,44.941707,281.768577,270.11438,2.006505,3,-93.172005,9.320367,2025-04-04T03:39:54Z,-0.210373,-0.965785,0.006081,2025-04-04T03:39:53Z,0.19151,0.069074,0.107863,2025-04-04T03:39:53Z
61,254.08335,1.911528,15.424433,44.941708,281.49335,270.11438,2.050813,3,-93.17213,9.700478,2025-04-04T03:39:55Z,-0.226301,-0.987428,-0.0076,2025-04-04T03:39:54Z,0.021247,-0.138249,0.113981,2025-04-04T03:39:54Z
62,254.016325,1.869311,15.005501,44.941708,281.426325,270.130157,2.031202,3,-93.172258,9.988442,2025-04-04T03:39:56Z,-0.250152,-0.960002,-0.039411,2025-04-04T03:39:55Z,-0.294576,0.148921,-0.189609,2025-04-04T03:39:55Z
63,253.948108,1.877908,15.119948,44.941706,281.358108,270.130157,2.018973,3,-93.172384,9.907496,2025-04-04T03:39:57Z,-0.259759,-0.960585,-0.024429,2025-04-04T03:39:56Z,-0.338499,0.133745,-0.072786,2025-04-04T03:39:56Z
64,253.831628,1.857569,14.986974,44.941708,281.241628,270.130157,2.011441,3,-93.172512,9.889892,2025-04-04T03:39:58Z,-0.236037,-0.971968,-0.036306,2025-04-04T03:39:57Z,-0.143051,0.026228,-0.095573,2025-04-04T03:39:57Z
65,253.728755,1.871579,14.988611,44.94171,281.138755,270.130157,2.006972,3,-93.172639,9.987018,2025-04-04T03:39:59Z,-0.261185,-0.966677,-0.043057,2025-04-04T03:39:58Z,-0.358943,0.073523,-0.121651,2025-04-04T03:39:58Z
66,253.63333,1.858624,15.226329,44.941711,281.04333,270.130157,2.004273,3,-93.172761,9.794776,2025-04-04T03:40:00Z,-0.249527,-0.964372,-0.041904,2025-04-04T03:39:59Z,-0.219343,0.088221,-0.183576,2025-04-04T03:39:59Z
67,253.654849,1.88073,15.756874,44.94171,281.064849,270.130157,2.00265,3,-93.172881,9.621236,2025-04-04T03:40:01Z,-0.238103,-0.971176,-0.049756,2025-04-04T03:40:00Z,-0.085518,0.021754,-0.303805,2025-04-04T03:40:00Z
68,253.830162,1.881689,15.99259,44.94171,281.240162,270.130157,2.001646,3,-93.173001,9.516249,2025-04-04T03:40:02Z,-0.255857,-0.960666,-0.030757,2025-04-04T03:40:01Z,-0.243456,0.11406,-0.167299,2025-04-04T03:40:01Z
69,253.733182,1.895639,16.413789,44.941712,281.143182,270.130157,2.307112,3,-93.173118,9.31274,2025-04-04T03:40:03Z,-0.261871,-0.964308,-0.002106,2025-04-04T03:40:02Z,-0.214903,0.064496,-0.045693,2025-04-04T03:40:02Z
70,253.612559,1.898006,16.581558,44.941715,281.022559,270.130157,2.193841,3,-93.173234,9.191945,2025-04-04T03:40:04Z,-0.248223,-0.965585,0.007726,2025-04-04T03:40:03Z,-0.067893,0.048418,0.002508,2025-04-04T03:40:03Z
71,253.581855,1.887558,16.494326,44.941718,280.991854,270.130157,2.122006,3,-93.173354,9.242441,2025-04-04T03:40:05Z,-0.269164,-0.958127,0.036031,2025-04-04T03:40:04Z,-0.216947,0.094009,-0.063967,2025-04-04T03:40:04Z
72,253.516096,1.928178,17.156057,44.941721,280.926096,271.15918,2.07732,3,-93.173468,9.041423,2025-04-04T03:40:06Z,-0.294544,-0.948499,0.057171,2025-04-04T03:40:05Z,-0.231548,0.125092,0.046561,2025-04-04T03:40:05Z
73,253.163512,1.931321,17.200098,44.941725,280.573512,271.15918,2.063576,3,-93.173582,8.929643,2025-04-04T03:40:07Z,-0.278787,-0.964966,0.028688,2025-04-04T03:40:06Z,-0.098246,-0.023395,-0.066069,2025-04-04T03:40:06Z
74,252.969809,1.919558,17.333038,44.941727,280.379809,271.15918,2.040872,3,-93.173694,8.815626,2025-04-04T03:40:08Z,-0.309996,-0.943299,0.029646,2025-04-04T03:40:07Z,-0.400122,0.185413,-0.097274,2025-04-04T03:40:07Z
75,252.730745,2.010044,18.168168,44.941726,280.140745,269.529907,2.0268640000000002,3,-93.173798,8.350706,2025-04-04T03:40:09Z,-0.382244,-0.94391099999999994,0.019768,2025-04-04T03:40:08Z,-1.085609,0.175829,-0.202543,2025-04-04T03:40:08Z
76,252.412188,2.021284,21.807025,44.941727,279.822188,269.529907,2.021731,3,-93.17389,7.373965,2025-04-04T03:40:10Z,-0.371408,-0.925256,0.022635,2025-04-04T03:40:09Z,-0.963127,0.339206,-0.113134,2025-04-04T03:40:09Z
77,252.356305,2.134551,27.036086,44.941727,279.766304,268.270569,2.01626,3,-93.173966,6.242245,2025-04-04T03:40:11Z,-0.385014,-0.933876,0.0097,2025-04-04T03:40:10Z,-0.996861,0.252573,-0.118092,2025-04-04T03:40:10Z
78,252.263741,2.226796,34.330778,44.941724,279.673741,261.262909,2.012156,3,-93.174028,5.080105,2025-04-04T03:40:12Z,-0.375498,-0.932461,-0.007338,2025-04-04T03:40:11Z,-0.793228,0.224771,-0.150089,2025-04-04T03:40:11Z
79,252.288795,2.398031,45.896619,44.941722,279.698795,261.262909,2.009725,3,-93.174076,3.996902,2025-04-04T03:40:13Z,-0.390003,-0.932929,-0.007888,2025-04-04T03:40:12Z,-0.87202,0.202039,-0.192677,2025-04-04T03:40:12Z
80,NA,NA,NA,NA,NA,NA,NA,NA,NA,NA,NA,-0.375299,-0.93365,-0.027763,2025-04-04T03:40:13Z,-0.711894,0.192403,-0.34359,2025-04-04T03:40:13Z
