seconds_elapsed,location_altitude,location_speedAccuracy,location_bearingAccuracy,location_latitude,location_altitudeAboveMeanSeaLevel,location_bearing,location_horizontalAccuracy,location_verticalAccuracy,location_longitude,location_speed,location_local_time,accelerometerUncalibrated_z,accelerometerUncalibrated_y,accelerometerUncalibrated_x,accelerometerUncalibrated_local_time,accelerometer_z,accelerometer_y,accelerometer_x,accelerometer_local_time
0,253.428253,0.294967,7.258157,44.941321,280.838253,94.677946,2.769324,3,-93.174226,7.735137,2025-04-04T03:24:22Z,-0.267752,-0.961252,-0.040142,2025-04-04T03:24:22Z,-0.215386,0.088697,0.152138,2025-04-04T03:24:22Z
1,253.402705,0.368999,7.24523,44.94132,280.812704,92.194882,2.70622,3,-93.174127,7.485836,2025-04-04T03:24:23Z,-0.26551399999999997,-0.966264,-0.036196,2025-04-04T03:24:23Z,-0.260946,0.035846,0.131948,2025-04-04T03:24:23Z
2,253.473138,0.325467,7.257289,44.941297,280.883138,92.625008,2.493068,3,-93.174033,7.489281,2025-04-04T03:24:24Z,-0.238747,-0.966074,-0.084411,2025-04-04T03:24:24Z,-0.046879,0.034941,-0.122131,2025-04-04T03:24:24Z
3,253.564237,0.337697,7.254406,44.941296,280.974237,90,2.341831,3,-93.173938,7.320886,2025-04-04T03:24:25Z,-0.219526,-0.968826,-0.074123,2025-04-04T03:24:25Z,0.08823,0.01724,0.015661,2025-04-04T03:24:25Z
4,253.780689,0.299068,7.258558,44.941294,281.190689,90,2.242109,3,-93.173853,7.170421,2025-04-04T03:24:26Z,-0.19586,-0.973802,-0.08622,2025-04-04T03:24:26Z,0.337486,-0.040977,-0.027245,2025-04-04T03:24:26Z
5,253.879333,0.299649,7.258346,44.941292,281.289333,90,2.186855,3,-93.173756,7.35715,2025-04-04T03:24:27Z,-0.196564,-0.9746,-0.051455,2025-04-04T03:24:27Z,0.351502,-0.042837,0.171244,2025-04-04T03:24:27Z
6,254.036649,0.29828,7.255874,44.94129,281.446649,90,2.130605,3,-93.173658,7.674771,2025-04-04T03:24:28Z,-0.206498,-0.978929,-0.06422,2025-04-04T03:24:28Z,0.264817,-0.090094,0.043144,2025-04-04T03:24:28Z
7,254.167288,0.297173,7.251228,44.941289,281.577288,90.43531,2.207327,3,-93.173556,7.926793,2025-04-04T03:24:29Z,-0.192107,-0.974927,-0.051176,2025-04-04T03:24:29Z,0.439092,-0.047276,0.004574,2025-04-04T03:24:29Z
8,254.237309,0.29233,7.251479,44.94129,281.647309,90.43531,2.141792,3,-93.173454,8.117263,2025-04-04T03:24:30Z,-0.215512,-0.971179,-0.0354,2025-04-04T03:24:30Z,0.262171,-0.020188,0.090972,2025-04-04T03:24:30Z
9,254.521268,0.314669,7.254868,44.941287,281.931268,90.43531,2.09496,3,-93.173348,8.334527,2025-04-04T03:24:31Z,-0.200893,-0.982971,-0.041871,2025-04-04T03:24:31Z,0.375563,-0.12617,0.041962,2025-04-04T03:24:31Z
10,254.577379,0.327484,7.257568,44.941296,281.987379,90.43531,2.110785,3,-93.173242,8.57566,2025-04-04T03:24:32Z,-0.208969,-0.981049,-0.027196,2025-04-04T03:24:32Z,0.274061,-0.1023,0.071675,2025-04-04T03:24:32Z
11,254.696608,0.326441,7.257086,44.941292,282.106608,90.43531,2.072254,3,-93.173128,8.800114,2025-04-04T03:24:33Z,-0.22052,-0.970535,-0.047701,2025-04-04T03:24:33Z,0.183588,-0.020741,-0.109548,2025-04-04T03:24:33Z
12,254.495569,0.318457,7.258586,44.941292,281.905569,90.43531,2.046162,3,-93.173008,9.190387,2025-04-04T03:24:34Z,-0.229262,-0.962581,-0.033092,2025-04-04T03:24:34Z,0.066653,0.102538,-0.004556,2025-04-04T03:24:34Z
13,254.712305,0.311585,7.258905,44.94129,282.122305,90.222755,2.029061,3,-93.172888,9.130541,2025-04-04T03:24:35Z,-0.224229,-0.973852,-0.046075,2025-04-04T03:24:35Z,0.098558,-0.026036,-0.042707,2025-04-04T03:24:35Z
14,254.805814,0.315978,7.258678,44.941289,282.215813,90.222755,2.099823,3,-93.172768,9.27312,2025-04-04T03:24:36Z,-0.220415,-0.97063,-0.041026,2025-04-04T03:24:36Z,0.157769,0.002495,-0.010481,2025-04-04T03:24:36Z
15,255.022886,0.30666,7.258968,44.941289,282.432886,90.222755,2.062654,3,-93.172645,9.573404,2025-04-04T03:24:37Z,-0.239704,-0.970571,-0.040964,2025-04-04T03:24:37Z,0.023006,-0.006445,-0.12771,2025-04-04T03:24:37Z
16,254.95528,0.301688,7.25884,44.941288,282.36528,90.222755,2.039011,3,-93.172522,9.70103,2025-04-04T03:24:38Z,-0.244578,-0.963782,-0.039849,2025-04-04T03:24:38Z,-0.069386,0.067949,-0.103137,2025-04-04T03:24:38Z
17,255.126121,0.312939,7.258887,44.941287,282.536121,90.222755,2.024087,3,-93.1724,9.63489,2025-04-04T03:24:39Z,-0.249298,-0.968863,-0.040667,2025-04-04T03:24:39Z,-0.084422,0.017097,-0.096813,2025-04-04T03:24:39Z
18,255.30933,0.305964,7.258959,44.941288,282.71933,90.222755,2.014961,3,-93.172279,9.565314,2025-04-04T03:24:40Z,-0.232184,-0.958893,-0.029698,2025-04-04T03:24:40Z,0.075101,0.110152,0.015938,2025-04-04T03:24:40Z
19,255.392699,0.308855,7.258972,44.941287,282.802699,89.937492,2.009333,3,-93.172159,9.52839,2025-04-04T03:24:41Z,-0.2304,-0.977683,-0.031124,2025-04-04T03:24:41Z,0.036007,-0.058755,-0.03388,2025-04-04T03:24:41Z
20,255.55398,0.319121,7.258637,44.941286,282.963979,89.937492,2.005809,3,-93.172037,9.595137,2025-04-04T03:24:42Z,-0.243327,-0.957468,-0.021362,2025-04-04T03:24:42Z,-0.007761,0.128273,-0.047248,2025-04-04T03:24:42Z
21,255.728705,0.322065,7.258403,44.941285,283.138705,89.937492,2.003621,3,-93.171914,9.772524,2025-04-04T03:24:43Z,-0.231026,-0.979654,-0.03498,2025-04-04T03:24:43Z,0.069101,-0.09117,-0.030515,2025-04-04T03:24:43Z
22,255.894033,0.31599,7.258779,44.941281,283.304033,89.937492,2.133132,3,-93.17179,9.654317,2025-04-04T03:24:44Z,-0.251169,-0.956047,-0.037947,2025-04-04T03:24:44Z,-0.104888,0.135654,-0.079119,2025-04-04T03:24:44Z
23,255.997512,0.312461,7.258915,44.941277,283.407511,89.937492,2.196107,3,-93.171667,9.577166,2025-04-04T03:24:45Z,-0.242208,-0.97226,-0.020365,2025-04-04T03:24:45Z,-0.033764,-0.018082,0.087179,2025-04-04T03:24:45Z
24,256.116329,0.315815,7.258794,44.941279,283.526328,89.937492,2.122499,3,-93.171549,9.439968,2025-04-04T03:24:46Z,-0.255451,-0.965041,-0.043024,2025-04-04T03:24:46Z,-0.129084,0.048036,-0.115279,2025-04-04T03:24:46Z
25,256.225439,0.312435,7.258926,44.941282,283.635439,89.937492,2.176757,3,-93.171427,9.4687,2025-04-04T03:24:47Z,-0.245683,-0.967052,-0.018506,2025-04-04T03:24:47Z,-0.034706,0.030808,-0.042348,2025-04-04T03:24:47Z
26,256.085617,0.322293,7.258436,44.941282,283.495617,89.937492,2.213888,3,-93.171307,9.451832,2025-04-04T03:24:48Z,-0.269043,-0.962609,-0.05243,2025-04-04T03:24:48Z,-0.227957,0.052135,-0.242252,2025-04-04T03:24:48Z
27,255.933783,0.311937,7.258931,44.941282,283.343782,89.937492,2.133332,3,-93.171187,9.287894,2025-04-04T03:24:49Z,-0.303374,-0.952221,-0.044437,2025-04-04T03:24:49Z,-0.557149,0.172664,-0.218617,2025-04-04T03:24:49Z
28,256.047717,0.313358,7.258944,44.941281,283.457717,89.937492,2.083971,3,-93.171074,8.86709,2025-04-04T03:24:50Z,-0.323649,-0.940881,-0.034305,2025-04-04T03:24:50Z,-0.675304,0.247731,-0.228431,2025-04-04T03:24:50Z
29,256.106419,0.323572,7.25891,44.94128,283.516418,90,2.054815,3,-93.170973,8.112904,2025-04-04T03:24:51Z,-0.376328,-0.937744,-0.047223,2025-04-04T03:24:51Z,-1.184949,0.291808,-0.33163,2025-04-04T03:24:51Z
30,256.263169,0.334005,7.258763,44.941279,283.673169,87.995895,2.036711,3,-93.170881,7.272516,2025-04-04T03:24:52Z,-0.402124,-0.927766,-0.055799,2025-04-04T03:24:52Z,-1.401425,0.366831,-0.384813,2025-04-04T03:24:52Z
31,256.35016,0.35471,9.042513,44.941281,283.76016,87.995895,2.026088,3,-93.170811,5.624705,2025-04-04T03:24:53Z,-0.40635,-0.930263,-0.064296,2025-04-04T03:24:53Z,-1.377902,0.332153,-0.378009,2025-04-04T03:24:53Z
32,256.27738,0.272929,9.584622,44.941281,283.68738,87.995895,2.019566,3,-93.170764,3.901865,2025-04-04T03:24:54Z,-0.392248,-0.925052,-0.061425,2025-04-04T03:24:54Z,-1.114571,0.339178,-0.254452,2025-04-04T03:24:54Z
33,256.339709,0.328541,20.213226,44.94128,283.749708,87.995895,2.015653,3,-93.170738,2.113936,2025-04-04T03:24:55Z,-0.326991,-0.944441,-0.062247,2025-04-04T03:24:55Z,-0.44205,0.135917,-0.180481,2025-04-04T03:24:55Z
34,256.33403,0.368334,30.046985,44.941281,283.74403,87.995895,2.013044,3,-93.170727,0.848297,2025-04-04T03:24:56Z,-0.198336,-0.979183,-0.02955,2025-04-04T03:24:56Z,0.834036,-0.209328,0.17955,2025-04-04T03:24:56Z
35,256.29753,0.360143,38.220796,44.94128,283.70753,87.995895,2.011181,3,-93.170718,0.644569,2025-04-04T03:24:57Z,-0.128856,-0.995848,-0.013267,2025-04-04T03:24:57Z,1.536873,-0.381053,0.366569,2025-04-04T03:24:57Z
36,256.233892,0.350745,27.325215,44.941281,283.643892,87.995895,2.160553,3,-93.170699,1.265822,2025-04-04T03:24:58Z,-0.127688,-0.998235,-0.016468,2025-04-04T03:24:58Z,1.570833,-0.413897,0.376419,2025-04-04T03:24:58Z
37,256.400968,0.13769,21.180229,44.941283,283.810968,87.995895,2.142714,3,-93.170666,2.563171,2025-04-04T03:24:59Z,-0.151104,-0.990585,-0.02295,2025-04-04T03:24:59Z,1.21417,-0.296426,0.252427,2025-04-04T03:24:59Z
38,256.624554,0.306936,20.752774,44.941282,284.034554,87.995895,2.128442,3,-93.170621,3.419724,2025-04-04T03:25:00Z,-0.158129,-0.994568,-0.023655,2025-04-04T03:25:00Z,1.127841,-0.335298,0.268925,2025-04-04T03:25:00Z
39,256.796573,0.336475,7.256124,44.941282,284.206572,87.995895,2.116766,3,-93.170568,4.137918,2025-04-04T03:25:01Z,-0.166413,-0.983046,-0.027385,2025-04-04T03:25:01Z,1.10405,-0.228293,0.205941,2025-04-04T03:25:01Z
40,256.759922,0.353487,7.953082,44.941281,284.169921,87.995895,2.107035,3,-93.170502,4.997821,2025-04-04T03:25:02Z,-0.164716,-0.966852,-9.63e-4,2025-04-04T03:25:02Z,1.06709,-0.059444,0.27607,2025-04-04T03:25:02Z
41,256.89248,0.36774,7.254132,44.941279,284.30248,87.995895,2.115285,3,-93.17043,5.559757,2025-04-04T03:25:03Z,-0.231896,-0.999081,-0.001369,2025-04-04T03:25:03Z,0.530231,-0.406732,0.151618,2025-04-04T03:25:03Z
42,256.816379,0.35125,7.257676,44.941277,284.226379,91.17128,2.107051,3,-93.170345,6.524612,2025-04-04T03:25:04Z,-0.202473,-0.961493,-0.004566,2025-04-04T03:25:04Z,0.51811,0.055268,0.09573,2025-04-04T03:25:04Z
43,256.954717,0.342281,7.256218,44.941277,284.364717,91.17128,2.098392,3,-93.170261,6.620734,2025-04-04T03:25:05Z,-0.233369,-0.974436,-0.010157,2025-04-04T03:25:05Z,0.279148,-0.09412,0.025544,2025-04-04T03:25:05Z
44,256.683007,0.334502,7.258115,44.941276,284.093007,91.17128,2.085558,3,-93.170167,7.172283,2025-04-04T03:25:06Z,-0.304934,-0.959568,-0.030743,2025-04-04T03:25:06Z,-0.460895,0.063583,-0.168557,2025-04-04T03:25:06Z
45,256.712239,0.324761,7.258072,44.941276,284.122239,91.17128,2.070528,3,-93.170078,7.046678,2025-04-04T03:25:07Z,-0.297873,-0.955154,-0.025515,2025-04-04T03:25:07Z,-0.416186,0.115716,-0.140024,2025-04-04T03:25:07Z
46,256.80306,0.337483,7.257609,44.941277,284.21306,91.17128,2.081367,3,-93.170001,6.396876,2025-04-04T03:25:08Z,-0.295599,-0.953287,-0.036481,2025-04-04T03:25:08Z,-0.435232,0.141121,-0.183266,2025-04-04T03:25:08Z
47,256.886688,0.3503,7.25708,44.941278,284.296688,91.17128,2.068496,3,-93.169928,5.807733,2025-04-04T03:25:09Z,-0.340054,-0.940928,-0.051053,2025-04-04T03:25:09Z,-0.896608,0.264877,-0.285599,2025-04-04T03:25:09Z
48,256.866965,0.380906,8.679964,44.941278,284.276965,91.17128,2.058711,3,-93.169869,4.8663,2025-04-04T03:25:10Z,-0.363554,-0.937387,-0.059854,2025-04-04T03:25:10Z,-1.078539,0.292841,-0.288374,2025-04-04T03:25:10Z
49,256.676356,0.370231,10.840181,44.941277,284.086355,91.17128,2.051372,3,-93.169819,3.815264,2025-04-04T03:25:11Z,-0.365867,-0.937401,-0.051485,2025-04-04T03:25:11Z,-1.055338,0.281927,-0.267418,2025-04-04T03:25:11Z
50,256.72942,0.370101,15.837507,44.941276,284.13942,91.17128,2.045664,3,-93.169786,2.52708,2025-04-04T03:25:12Z,-0.341959,-0.942611,-0.032762,2025-04-04T03:25:12Z,-0.721675,0.198851,-0.183882,2025-04-04T03:25:12Z
51,256.831407,0.333463,17.945184,44.941276,284.241407,91.17128,2.058795,3,-93.169767,1.390925,2025-04-04T03:25:13Z,-0.305815,-0.95186,-0.023744,2025-04-04T03:25:13Z,-0.313533,0.095933,-0.125929,2025-04-04T03:25:13Z
52,256.836199,0.318876,41.576928,44.941277,284.246199,93.634155,2.05345,3,-93.16976,0.599123,2025-04-04T03:25:14Z,-0.20029,-0.980183,0.002524,2025-04-04T03:25:14Z,0.720794,-0.181425,0.141157,2025-04-04T03:25:14Z
53,256.766116,0.313396,41.456672,44.941276,284.176115,93.634155,2.048996,3,-93.169751,0.600773,2025-04-04T03:25:15Z,-0.084207,-1.008879,0.042042,2025-04-04T03:25:15Z,1.798707,-0.445153,0.477648,2025-04-04T03:25:15Z
54,256.838154,0.339273,18.605639,44.941278,284.248154,93.634155,2.074614,3,-93.169733,1.488145,2025-04-04T03:25:16Z,-0.113853,-1.004697,0.038484,2025-04-04T03:25:16Z,1.411157,-0.378151,0.418144,2025-04-04T03:25:16Z
55,256.954006,0.363578,11.224227,44.941281,284.364005,93.634155,2.069284,3,-93.169693,3.032639,2025-04-04T03:25:17Z,-0.14963,-0.994018,0.013579,2025-04-04T03:25:17Z,0.993759,-0.256129,0.26654,2025-04-04T03:25:17Z
56,257.075175,0.340635,7.254865,44.941284,284.485175,93.634155,2.064665,3,-93.16964,3.913412,2025-04-04T03:25:18Z,-0.163812,-0.980858,0.016779,2025-04-04T03:25:18Z,0.860898,-0.128744,0.326092,2025-04-04T03:25:18Z
57,257.035957,0.351864,7.256632,44.941288,284.445956,93.634155,2.060623,3,-93.169572,4.927655,2025-04-04T03:25:19Z,-0.24135,-0.959497,-0.045886,2025-04-04T03:25:19Z,0.167383,0.054073,-0.074332,2025-04-04T03:25:19Z
58,256.999413,0.328247,7.258421,44.941293,284.409413,90.25396,2.057057,3,-93.1695,5.25911,2025-04-04T03:25:20Z,-0.273495,-0.945558,-0.074189,2025-04-04T03:25:20Z,-0.145626,0.181204,-0.147444,2025-04-04T03:25:20Z
59,256.941949,0.313827,7.258838,44.941297,284.351949,87.374745,2.053888,3,-93.169432,5.219102,2025-04-04T03:25:21Z,-0.254526,-0.995134,-0.149663,2025-04-04T03:25:21Z,-0.331526,-0.23436,-0.632268,2025-04-04T03:25:21Z
60,256.967966,0.354552,7.255081,44.941299,284.377966,88.60312,2.051051,3,-93.169372,5.063272,2025-04-04T03:25:22Z,-0.224002,-0.949375,-0.059396,2025-04-04T03:25:22Z,0.014434,0.219145,0.111746,2025-04-04T03:25:22Z
61,256.923232,0.329612,7.257552,44.941302,284.333232,89.941701,2.048499,3,-93.169311,4.68884,2025-04-04T03:25:23Z,-0.184003,-0.983663,-0.072086,2025-04-04T03:25:23Z,0.368111,-0.109268,-0.008397,2025-04-04T03:25:23Z
62,256.997975,0.328019,7.256976,44.9413,284.407975,90.510187,2.046193,3,-93.169253,4.809475,2025-04-04T03:25:24Z,-0.185795,-0.97925,-0.062388,2025-04-04T03:25:24Z,0.335374,-0.061701,0.054642,2025-04-04T03:25:24Z
63,257.034043,0.33532,7.257127,44.941281,284.444043,90.25396,2.074286,3,-93.16919,5.102978,2025-04-04T03:25:25Z,-0.199063,-0.974918,-0.063285,2025-04-04T03:25:25Z,0.219023,-0.019961,0.029929,2025-04-04T03:25:25Z
64,256.936931,0.331392,7.257658,44.941281,284.346931,90.25396,2.074824,3,-93.169117,5.400358,2025-04-04T03:25:26Z,-0.189379,-0.98352,-0.061459,2025-04-04T03:25:26Z,0.313299,-0.09988,0.042436,2025-04-04T03:25:26Z
65,256.931912,0.330485,7.257597,44.941281,284.341912,90.25396,2.071083,3,-93.169048,5.581432,2025-04-04T03:25:27Z,-0.193195,-0.977438,-0.05139,2025-04-04T03:25:27Z,0.207772,-0.030148,0.119332,2025-04-04T03:25:27Z
66,257.086026,0.344155,7.25737,44.941285,284.496026,92.345756,2.07989,3,-93.168971,5.93528,2025-04-04T03:25:28Z,-0.194307,-0.975453,-0.048636,2025-04-04T03:25:28Z,0.188469,0.008799,0.075915,2025-04-04T03:25:28Z
67,257.130548,0.325586,7.257956,44.941285,284.540548,92.177387,2.091021,3,-93.168892,6.082426,2025-04-04T03:25:29Z,-0.209228,-0.974006,-0.060217,2025-04-04T03:25:29Z,0.069368,-0.006546,-0.001889,2025-04-04T03:25:29Z
68,257.079761,0.337378,7.258048,44.941284,284.489761,92.276383,2.082788,3,-93.168804,6.584132,2025-04-04T03:25:30Z,-0.217614,-0.974364,-0.058624,2025-04-04T03:25:30Z,-0.021415,-0.011325,-0.023909,2025-04-04T03:25:30Z
69,257.256764,0.323022,7.258478,44.94128,284.666764,92.70602,2.072818,3,-93.168718,6.658037,2025-04-04T03:25:31Z,-0.215082,-0.979529,-0.060061,2025-04-04T03:25:31Z,-0.052088,-0.015433,-0.075638,2025-04-04T03:25:31Z
70,257.472068,0.338734,7.257942,44.941279,284.882068,90.25396,2.062049,3,-93.168631,6.979389,2025-04-04T03:25:32Z,-0.206692,-0.975707,-0.060647,2025-04-04T03:25:32Z,-0.016612,0.01727,-0.068723,2025-04-04T03:25:32Z
71,257.800013,0.331769,7.257272,44.941282,285.210013,90.25396,2.052525,3,-93.168553,6.600741,2025-04-04T03:25:33Z,-0.203761,-0.97978,-0.045387,2025-04-04T03:25:33Z,0.030466,-0.026685,-0.02702,2025-04-04T03:25:33Z
72,258.000042,0.330445,7.257508,44.94128,285.410042,90.25396,2.063557,3,-93.168467,6.698587,2025-04-04T03:25:34Z,-0.198409,-0.975354,-0.050182,2025-04-04T03:25:34Z,0.046712,0.028229,-0.036686,2025-04-04T03:25:34Z
73,258.114307,0.334305,7.258019,44.94128,285.524307,90.25396,2.052028,3,-93.168379,6.914246,2025-04-04T03:25:35Z,-0.212259,-0.9823,-0.056355,2025-04-04T03:25:35Z,-0.091633,-0.042867,-0.07904,2025-04-04T03:25:35Z
74,258.411263,0.351539,7.25704,44.941281,285.821263,89.704315,2.042596,3,-93.168293,6.951213,2025-04-04T03:25:36Z,-0.198113,-0.97423,-0.032025,2025-04-04T03:25:36Z,0.027783,0.042647,0.088903,2025-04-04T03:25:36Z
75,258.533967,0.340638,7.256989,44.94128,285.943967,89.704315,2.034632,3,-93.168206,6.873476,2025-04-04T03:25:37Z,-0.223067,-0.969143,-0.028879,2025-04-04T03:25:37Z,-0.155614,0.086479,0.006698,2025-04-04T03:25:37Z
76,258.651855,0.341729,7.256848,44.941282,286.061854,89.704315,2.068492,3,-93.168118,6.987897,2025-04-04T03:25:38Z,-0.226719,-0.964297,-0.032557,2025-04-04T03:25:38Z,-0.147823,0.12264,-0.065431,2025-04-04T03:25:38Z
77,258.93485,0.333893,7.256804,44.941278,286.34485,89.704315,2.054079,3,-93.168032,6.859436,2025-04-04T03:25:39Z,-0.202213,-0.978451,-0.029753,2025-04-04T03:25:39Z,0.052513,-6.77e-4,-0.046084,2025-04-04T03:25:39Z
78,258.881625,0.338467,7.255722,44.94128,286.291625,89.704315,2.043116,3,-93.167949,6.696594,2025-04-04T03:25:40Z,-0.232947,-0.977773,-0.032446,2025-04-04T03:25:40Z,-0.249983,-5.49e-4,-0.026487,2025-04-04T03:25:40Z
79,259.277001,0.340538,7.255856,44.94128,286.687001,89.704315,2.034634,3,-93.167866,6.493547,2025-04-04T03:25:41Z,-0.223902,-0.966347,-0.030923,2025-04-04T03:25:41Z,-0.152138,0.109467,-0.00894,2025-04-04T03:25:41Z
80,259.504183,0.334075,7.256428,44.941279,286.914182,89.704315,2.027433,3,-93.16778,6.34122,2025-04-04T03:25:42Z,-0.233476,-0.975195,-0.046787,2025-04-04T03:25:42Z,-0.231664,0.020641,-0.151694,2025-04-04T03:25:42Z
81,259.836608,0.334901,7.256161,44.941279,287.246608,89.704315,2.021857,3,-93.167695,6.377202,2025-04-04T03:25:43Z,-0.251827,-0.956047,-0.040349,2025-04-04T03:25:43Z,-0.385968,0.199687,-0.107031,2025-04-04T03:25:43Z
82,260.192969,0.3666,7.254716,44.941279,287.602968,89.704315,2.121981,3,-93.167637,5.464542,2025-04-04T03:25:44Z,-0.235106,-0.973239,-0.047027,2025-04-04T03:25:44Z,-0.217231,0.032949,-0.176565,2025-04-04T03:25:44Z
83,260.717678,0.341303,7.255576,44.941287,288.127678,89.704315,2.100121,3,-93.167552,5.580149,2025-04-04T03:25:45Z,-0.250495,-0.966018,-0.039664,2025-04-04T03:25:45Z,-0.379788,0.10896,-0.149136,2025-04-04T03:25:45Z
84,261.040567,0.335472,7.255451,44.941281,288.450567,89.704315,2.085405,3,-93.167477,5.45733,2025-04-04T03:25:46Z,-0.269191,-0.959652,-0.037064,2025-04-04T03:25:46Z,-0.554124,0.1692,-0.171629,2025-04-04T03:25:46Z
85,261.246943,0.356186,7.25403,44.94128,288.656943,89.704315,2.07473,3,-93.167413,5.01715,2025-04-04T03:25:47Z,-0.26203,-0.964617,-0.057785,2025-04-04T03:25:47Z,-0.477029,0.118068,-0.240961,2025-04-04T03:25:47Z
86,261.498723,0.354005,7.254075,44.94128,288.908723,89.704315,2.066426,3,-93.167358,4.29592,2025-04-04T03:25:48Z,-0.290148,-0.95278,-0.058753,2025-04-04T03:25:48Z,-0.707289,0.221177,-0.296159,2025-04-04T03:25:48Z
87,261.580999,0.3728,9.254056,44.941278,288.990999,89.704315,2.059784,3,-93.167313,3.535083,2025-04-04T03:25:49Z,-0.327072,-0.946723,-0.049525,2025-04-04T03:25:49Z,-1.064604,0.283116,-0.262127,2025-04-04T03:25:49Z
88,261.758162,0.377678,13.278927,44.941278,289.168162,89.704315,2.054349,3,-93.167283,2.32105,2025-04-04T03:25:50Z,-0.294523,-0.936847,-0.05392,2025-04-04T03:25:50Z,-0.678269,0.370202,-0.268157,2025-04-04T03:25:50Z
