seconds_elapsed,location_altitude,location_speedAccuracy,location_bearingAccuracy,location_latitude,location_altitudeAboveMeanSeaLevel,location_bearing,location_horizontalAccuracy,location_verticalAccuracy,location_longitude,location_speed,location_local_time,accelerometerUncalibrated_z,accelerometerUncalibrated_y,accelerometerUncalibrated_x,accelerometerUncalibrated_local_time,accelerometer_z,accelerometer_y,accelerometer_x,accelerometer_local_time
0,264.082741,-0.3075,4.863878,44.940547,291.492741,38.009766,156.308726,4.25,-93.167025,0.5025,2025-03-14T02:36:14Z,-0.270251,-0.978095,-0.151022,2025-03-14T02:36:14Z,-0.070453,-0.146513,-1.754965,2025-03-14T02:36:14Z
1,274.494446,2,25.246322,44.940106,301.904446,155.039062,14,8,-93.16725,5.01,2025-03-14T02:36:15Z,-0.230161,-0.972534,-0.101798,2025-03-14T02:36:15Z,0.095533,-0.00638,-1.024505,2025-03-14T02:36:15Z
2,265.475769,2.08,28.540381,44.940115,292.885769,154.6875,3.535534,3,-93.167259,5.01,2025-03-14T02:36:16Z,-0.207994,-0.9681,0.003637,2025-03-14T02:36:16Z,0.316268,0.016277,0.069752,2025-03-14T02:36:16Z
3,263.474487,0.99,13.737789,44.940116,290.884487,269.613403,3.535534,3,-93.167346,4.69,2025-03-14T02:36:17Z,-0.189258,-0.984497,0.022883,2025-03-14T02:36:17Z,0.468113,-0.116736,0.307948,2025-03-14T02:36:17Z
4,262.70166,1.01,11.885474,44.940116,290.11166,269.613403,3.535534,3,-93.16742,4.69,2025-03-14T02:36:18Z,-0.190738,-0.979303,0.046158,2025-03-14T02:36:18Z,0.393341,-0.074664,0.539035,2025-03-14T02:36:18Z
5,262.366272,0.32,2.912724,44.940116,289.776272,269.802124,3.535534,3,-93.167513,7.29,2025-03-14T02:36:19Z,-0.202043,-0.977653,0.06478,2025-03-14T02:36:19Z,0.318095,-0.045798,0.700374,2025-03-14T02:36:19Z
6,260.903503,0.36,2.824642,44.940115,288.313503,269.802124,3.535534,3,-93.167613,8.29,2025-03-14T02:36:20Z,-0.22081,-0.960081,0.047722,2025-03-14T02:36:20Z,0.132001,0.115056,0.536745,2025-03-14T02:36:20Z
7,260.080566,0.18,1.271176,44.940115,287.490566,269.802124,3.535534,3,-93.167726,8.29,2025-03-14T02:36:21Z,-0.275116,-0.965415,0.041792,2025-03-14T02:36:21Z,-0.327442,0.051097,0.477043,2025-03-14T02:36:21Z
8,259.477478,0.08,0.58022,44.940115,286.887478,269.802124,3.535534,3,-93.167838,9.13,2025-03-14T02:36:22Z,-0.294617,-0.956384,0.028167,2025-03-14T02:36:22Z,-0.543511,0.152022,0.287232,2025-03-14T02:36:22Z
9,259.214478,0.19,1.293262,44.940115,286.624477,270.143555,3.535534,3,-93.167957,9.48,2025-03-14T02:36:23Z,-0.305457,-0.94857,0.028434,2025-03-14T02:36:23Z,-0.619941,0.202553,0.273573,2025-03-14T02:36:23Z
10,258.64563,0.36,2.537682,44.940115,286.05563,270.143555,3.535534,3,-93.16807,9.48,2025-03-14T02:36:24Z,-0.351713,-0.94046,0.001914,2025-03-14T02:36:24Z,-1.008688,0.254194,0.010753,2025-03-14T02:36:24Z
11,258.369385,1.59,7.932566,44.940115,285.779385,270.143555,3.535534,3,-93.168183,9.33,2025-03-14T02:36:25Z,-0.297172,-0.943932,0.014718,2025-03-14T02:36:25Z,-0.500706,0.268314,0.099369,2025-03-14T02:36:25Z
12,258.111084,1.07,6.186647,44.940116,285.521084,270.143555,3.535534,3,-93.168292,9.01,2025-03-14T02:36:26Z,-0.28725,-0.962503,0.028419,2025-03-14T02:36:26Z,-0.32293,0.057957,0.183132,2025-03-14T02:36:26Z
13,258.11109,1.07,9.622693,44.940116,285.52109,270.143555,4.748652,4.029364,-93.168406,9.01,2025-03-14T02:36:27Z,-0.272609,-0.955782,0.02919,2025-03-14T02:36:27Z,-0.141581,0.087669,0.17128,2025-03-14T02:36:27Z
14,257.779913,1.52,14.124228,44.940116,285.189913,270.150787,4.748652,4.029364,-93.168514,8.72,2025-03-14T02:36:28Z,-0.252432,-0.962601,0.029519,2025-03-14T02:36:28Z,0.080653,0.032385,0.207057,2025-03-14T02:36:28Z
15,257.323188,0.98,8.492823,44.940116,284.733188,270.150787,4.748652,4.029364,-93.16864,9.35,2025-03-14T02:36:29Z,-0.245782,-0.968666,0.045329,2025-03-14T02:36:29Z,0.142116,-0.03785,0.282625,2025-03-14T02:36:29Z
16,256.638312,1.96,18.212821,44.940116,284.048312,270.150787,4.748652,4.029364,-93.168742,8.72,2025-03-14T02:36:30Z,-0.256781,-0.966799,0.050253,2025-03-14T02:36:30Z,0.069626,-0.023998,0.35444,2025-03-14T02:36:30Z
17,256.109504,2.09,18.112244,44.940117,283.519504,270.150787,4.748652,4.029364,-93.168884,9.35,2025-03-14T02:36:31Z,-0.258909,-0.960813,0.034498,2025-03-14T02:36:31Z,0.02398,0.044776,0.1966,2025-03-14T02:36:31Z
18,255.879893,2.26,16.134302,44.940117,283.289893,270.460693,4.748652,4.029364,-93.169051,11.35,2025-03-14T02:36:32Z,-0.27955,-0.964189,0.035926,2025-03-14T02:36:32Z,-0.185586,0.011076,0.177943,2025-03-14T02:36:32Z
19,255.568553,1.22,8.709668,44.940118,282.978552,270.460693,4.748652,4.029364,-93.169184,11.35,2025-03-14T02:36:33Z,-0.272339,-0.953057,0.01497,2025-03-14T02:36:33Z,-0.10759,0.125342,0.110265,2025-03-14T02:36:33Z
20,253.780589,1.76,12.564766,44.940119,281.190589,270.375916,4.748652,4.029364,-93.16933,11.35,2025-03-14T02:36:34Z,-0.284333,-0.976111,0.012923,2025-03-14T02:36:34Z,-0.233966,-0.095242,0.018615,2025-03-14T02:36:34Z
21,253.849986,0.84,7.258975,44.94012,281.259986,270,4.748652,4.029364,-93.169485,11.74,2025-03-14T02:36:35Z,-0.284706,-0.958203,0.016833,2025-03-14T02:36:35Z,-0.256442,0.062981,0.052077,2025-03-14T02:36:35Z
22,252.966991,0.5,7.258975,44.94012,280.376991,270,4.748652,4.029364,-93.16964,11.97,2025-03-14T02:36:36Z,-0.275393,-0.956848,0.01295,2025-03-14T02:36:36Z,-0.223306,0.093066,-0.071547,2025-03-14T02:36:36Z
23,252.652172,0.308016,7.258975,44.94012,280.062172,270.187958,4.748652,4.029364,-93.169799,12.16,2025-03-14T02:36:37Z,-0.288289,-0.941554,0.021987,2025-03-14T02:36:37Z,-0.287665,0.212964,-0.070438,2025-03-14T02:36:37Z
24,252.254165,1.08,7.258975,44.940121,279.664165,270.187958,4.748652,4.029364,-93.169984,13.48,2025-03-14T02:36:38Z,-0.290612,-0.958604,0.040389,2025-03-14T02:36:38Z,-0.274256,0.08086,0.046838,2025-03-14T02:36:38Z
25,251.674086,2.36,14.399637,44.940121,279.084086,270.339111,4.748652,4.029364,-93.17014,13.28,2025-03-14T02:36:39Z,-0.278129,-0.961033,0.028946,2025-03-14T02:36:39Z,-0.167161,0.044521,-0.046084,2025-03-14T02:36:39Z
26,251.511855,1.19,7.260835,44.940122,278.921855,270.339111,4.748652,4.029364,-93.170279,13.28,2025-03-14T02:36:40Z,-0.266971,-0.957271,0.022796,2025-03-14T02:36:40Z,-0.051428,0.064193,0.008543,2025-03-14T02:36:40Z
27,251.46864,0.308016,7.258975,44.940122,278.87864,270.339111,4.748652,4.029364,-93.170422,12.23,2025-03-14T02:36:41Z,-0.292647,-0.947284,0.027075,2025-03-14T02:36:41Z,-0.20934,0.152114,-0.008761,2025-03-14T02:36:41Z
28,251.502209,0.47,7.258975,44.940123,278.912209,270.141266,4.748652,4.029364,-93.170579,12.34,2025-03-14T02:36:42Z,-0.277374,-0.957962,0.025518,2025-03-14T02:36:42Z,-0.155393,0.063123,-0.093301,2025-03-14T02:36:42Z
29,251.370007,0.87,7.258975,44.940123,278.780007,270.141266,4.748652,4.029364,-93.170729,12.35,2025-03-14T02:36:43Z,-0.290529,-0.952555,0.033122,2025-03-14T02:36:43Z,-0.24663,0.106824,0.025133,2025-03-14T02:36:43Z
30,250.96156,0.82,7.258975,44.940123,278.37156,270.141266,4.748652,4.029364,-93.170882,12.35,2025-03-14T02:36:44Z,-0.286258,-0.957384,0.023718,2025-03-14T02:36:44Z,-0.129242,0.040253,-0.077686,2025-03-14T02:36:44Z
31,250.884411,0.69,7.258975,44.940123,278.294411,270.141266,4.748652,4.029364,-93.171037,12.35,2025-03-14T02:36:45Z,-0.296306,-0.95548,0.023714,2025-03-14T02:36:45Z,-0.251555,0.065248,-0.080749,2025-03-14T02:36:45Z
32,251.101636,0.308016,7.258975,44.94014,278.511635,270.141266,4.748652,4.029364,-93.171193,12.36,2025-03-14T02:36:46Z,-0.29486,-0.958029,0.031892,2025-03-14T02:36:46Z,-0.245624,0.044284,0.08072,2025-03-14T02:36:46Z
33,255.278466,1.271651,8.404545,44.940126,282.688466,270.141266,2,3,-93.171372,12.258985,2025-03-14T02:36:47Z,-0.29136,-0.950186,0.021329999999999998,2025-03-14T02:36:47Z,-0.177968,0.117467,-0.014922,2025-03-14T02:36:47Z
34,255.257638,1.273952,8.474011,44.940129,282.667638,270.141266,2,3,-93.171529,12.180052,2025-03-14T02:36:48Z,-0.280092,-0.960527,0.022936,2025-03-14T02:36:48Z,-0.067602,8.66e-4,-0.098017,2025-03-14T02:36:48Z
35,255.351586,1.266859,8.484443,44.94013,282.761586,270.147064,2,3,-93.171693,12.097196,2025-03-14T02:36:49Z,-0.289938,-0.963125,0.043244,2025-03-14T02:36:49Z,-0.190683,0.00366,-0.018544,2025-03-14T02:36:49Z
36,255.373492,0.666103,7.258782,44.940135,282.783492,270.147064,2.126359,3,-93.171832,11.942172,2025-03-14T02:36:50Z,-0.272917,-0.948934,0.038736,2025-03-14T02:36:50Z,-0.007528,0.114856,0.04574,2025-03-14T02:36:50Z
37,255.445132,0.666939,7.258961,44.940136,282.855132,270.147064,2.161966,3,-93.171987,12.023845,2025-03-14T02:36:51Z,-0.274161,-0.959253,0.040115,2025-03-14T02:36:51Z,0.048634,0.001071,0.016178,2025-03-14T02:36:51Z
38,255.365514,0.665335,7.258835,44.940137,282.775514,270.098969,2.084621,3,-93.172139,11.977098,2025-03-14T02:36:52Z,-0.283339,-0.964732,0.024308,2025-03-14T02:36:52Z,-0.112947,-0.01802,-0.120569,2025-03-14T02:36:52Z
39,255.200869,0.668192,7.258849,44.940138,282.610869,270.098969,2.044254,3,-93.172292,12.002243,2025-03-14T02:36:53Z,-0.268395,-0.941389,0.033557,2025-03-14T02:36:53Z,0.033621,0.18141,0.049918,2025-03-14T02:36:53Z
40,255.440245,0.665883,7.258972,44.940139,282.850245,270.098969,2.023033,3,-93.172445,11.981542,2025-03-14T02:36:54Z,-0.285398,-0.977676,0.024756,2025-03-14T02:36:54Z,-0.079869,-0.182728,-0.045725,2025-03-14T02:36:54Z
41,255.65626,0.66559,7.258746,44.940139,283.06626,270.098969,2.012022,3,-93.172598,11.936996,2025-03-14T02:36:55Z,-0.267297,-0.948312,0.024923,2025-03-14T02:36:55Z,0.013722,0.155735,0.020678,2025-03-14T02:36:55Z
42,255.682209,0.669735,7.258708,44.940139,283.092209,270.098969,2.006267,3,-93.172752,12.0333,2025-03-14T02:36:56Z,-0.27115,-0.960219,0.007071,2025-03-14T02:36:56Z,-0.023068,0.03491,-0.095517,2025-03-14T02:36:56Z
43,255.531573,0.825526,7.258974,44.940131,282.941573,270,2.00328,3,-93.172906,12.02431,2025-03-14T02:36:57Z,-0.277008,-0.975376,0.012971,2025-03-14T02:36:57Z,-0.022393,-0.143084,-0.07236,2025-03-14T02:36:57Z
44,256.796693,0.950472,7.251545,44.940109,284.206693,270,2.278563,3,-93.173053,11.874414,2025-03-14T02:36:58Z,-0.280587,-0.945028,0.01792,2025-03-14T02:36:58Z,-0.066686,0.173542,-0.053273,2025-03-14T02:36:58Z
45,255.894875,0.685383,7.25896,44.940136,283.304874,270,2.14524,3,-93.173209,11.99004,2025-03-14T02:36:59Z,-0.28017,-0.958197,0.022303,2025-03-14T02:36:59Z,-0.072659,0.020159,0.023469,2025-03-14T02:36:59Z
46,256.062475,0.668045,7.258909,44.940136,283.472475,270,2.336224,3,-93.173358,11.81932,2025-03-14T02:37:00Z,-0.277956,-0.964459,0.022828,2025-03-14T02:37:00Z,-0.014483,-0.039917,3.8e-4,2025-03-14T02:37:00Z
47,255.920004,0.66453,7.258933,44.940137,283.330004,270,2.178472,3,-93.173507,11.815667,2025-03-14T02:37:01Z,-0.264947,-0.948382,0.0152,2025-03-14T02:37:01Z,0.058992,0.13793,-0.033382,2025-03-14T02:37:01Z
48,255.9638,0.817446,7.258974,44.940138,283.3738,270,2.227394,3,-93.173658,11.983257,2025-03-14T02:37:02Z,-0.259808,-0.964828,0.012756,2025-03-14T02:37:02Z,0.172924,-0.056255,-0.111973,2025-03-14T02:37:02Z
49,256.115033,0.692957,7.258774,44.940138,283.525032,270,2.268382,3,-93.173797,11.59957,2025-03-14T02:37:03Z,-0.27454,-0.966044,0.024612,2025-03-14T02:37:03Z,0.011664,-0.035161,0.007587,2025-03-14T02:37:03Z
50,255.723636,0.681838,7.258847,44.940142,283.133636,270,2.415393,3,-93.173947,11.748099,2025-03-14T02:37:04Z,-0.262475,-0.949309,0.034082,2025-03-14T02:37:04Z,0.167056,0.103402,0.032334,2025-03-14T02:37:04Z
51,255.904224,0.66747,7.258972,44.940132,283.314223,270,2.217791,3,-93.174105,12.13003,2025-03-14T02:37:05Z,-0.263691,-0.960037,0.023074,2025-03-14T02:37:05Z,0.142436,-0.021211,0.031412,2025-03-14T02:37:05Z
52,255.986994,0.66387,7.258607,44.940136,283.396994,270,2.1146759999999998,3,-93.174253,12.004052,2025-03-14T02:37:06Z,-0.277796,-0.953574,0.021994,2025-03-14T02:37:06Z,0.107659,0.048189,-3.1e-5,2025-03-14T02:37:06Z
53,255.553849,0.667464,7.25892,44.940138,282.963849,270.142517,2.060063,3,-93.174406,12.08996,2025-03-14T02:37:07Z,-0.261875,-0.949108,0.024007,2025-03-14T02:37:07Z,0.248707,0.101436,0.041214,2025-03-14T02:37:07Z
54,255.095592,0.654412,7.257954,44.940139,282.505592,270.142517,2.031402,3,-93.174562,12.2428,2025-03-14T02:37:08Z,-0.272685,-0.959289,0.033241,2025-03-14T02:37:08Z,0.194363,-0.038219,0.109097,2025-03-14T02:37:08Z
55,255.754394,0.718089,7.257407,44.940127,283.164394,270.142517,2.168187,3,-93.174722,12.533206,2025-03-14T02:37:09Z,-0.292132,-0.95711,0.023539,2025-03-14T02:37:09Z,0.062759,-0.029194,-0.003685,2025-03-14T02:37:09Z
56,254.580047,0.852709,7.257505,44.940127,281.990047,270.142517,2.250552,3,-93.17488,12.612401,2025-03-14T02:37:10Z,-0.29786,-0.950863,0.029384,2025-03-14T02:37:10Z,-0.042396,0.042173,0.013338,2025-03-14T02:37:10Z
57,254.417121,0.934445,7.258012,44.940128,281.827121,270.292633,2.618731,3,-93.175034,12.434398,2025-03-14T02:37:11Z,-0.291271,-0.950539,0.019246,2025-03-14T02:37:11Z,0.053423,0.029357,-0.142536,2025-03-14T02:37:11Z
58,253.023194,1.062555,7.251611,44.940128,280.433194,270.21167,6.188975,3,-93.175176,11.874347,2025-03-14T02:37:12Z,-0.300501,-0.949604,0.025159,2025-03-14T02:37:12Z,-0.057574,0.063411,-0.011024,2025-03-14T02:37:12Z
59,253.14982,0.978152,7.256864,44.940129,280.55982,270.21167,2.976231,3,-93.175345,12.228564,2025-03-14T02:37:13Z,-0.299752,-0.954028,0.024945,2025-03-14T02:37:13Z,-0.077657,0.010338,-0.073643,2025-03-14T02:37:13Z
60,253.311519,0.843925,7.257685,44.940135,280.721519,270.21167,2.4983,3,-93.175504,12.424404,2025-03-14T02:37:14Z,-0.32184,-0.941084,0.011992,2025-03-14T02:37:14Z,-0.208456,0.129844,-0.123885,2025-03-14T02:37:14Z
61,253.384908,0.686091,7.257626,44.94014,280.794908,270.21167,3.759144,3,-93.175667,12.67214,2025-03-14T02:37:15Z,-0.327128,-0.940775,0.007075,2025-03-14T02:37:15Z,-0.260382,0.116438,-0.183967,2025-03-14T02:37:15Z
62,252.840316,0.674589,7.254632,44.940141,280.250316,270.21167,2.895578,3,-93.175823,12.356316,2025-03-14T02:37:16Z,-0.345199,-0.947051,0.010383999999999999,2025-03-14T02:37:16Z,-0.453387,0.081508,-0.1807,2025-03-14T02:37:16Z
63,252.593193,0.667181,7.255263,44.940145,280.003193,270.21167,2.67131,3,-93.175968,11.812573,2025-03-14T02:37:17Z,-0.329745,-0.945429,0.009043,2025-03-14T02:37:17Z,-0.301526,0.093154,-0.149441,2025-03-14T02:37:17Z
64,252.087565,0.66663,7.25325,44.940143,279.497564,270.21167,2.353316,3,-93.176111,11.239955,2025-03-14T02:37:18Z,-0.325552,-0.942959,0.013815,2025-03-14T02:37:18Z,-0.196658,0.073457,-0.092371,2025-03-14T02:37:18Z
65,252.147731,0.665635,7.2553280000000004,44.940141,279.557731,270,2.191981,3,-93.176249,11.004293,2025-03-14T02:37:19Z,-0.336194,-0.938023,0.008174,2025-03-14T02:37:19Z,-0.315223,0.138439,-0.151984,2025-03-14T02:37:19Z
66,252.329557,0.661817,7.257527,44.940144,279.739557,270,2.104799,3,-93.176385,10.652386,2025-03-14T02:37:20Z,-0.352166,-0.940498,0.004865,2025-03-14T02:37:20Z,-0.39852,0.09827,-0.172103,2025-03-14T02:37:20Z
67,252.395711,0.653539,7.258678,44.940137,279.80571,270,2.058189,3,-93.176515,10.246796,2025-03-14T02:37:21Z,-0.411004,-0.918824,0.001578,2025-03-14T02:37:21Z,-0.936891,0.294767,-0.27414,2025-03-14T02:37:21Z
68,252.094384,0.653931,7.256589,44.940142,279.504383,270,2.033071,3,-93.176633,9.524544,2025-03-14T02:37:22Z,-0.36617,-0.929678,0.009518,2025-03-14T02:37:22Z,-0.377866,0.125727,-0.202653,2025-03-14T02:37:22Z
69,249.509871,0.737521,6.999748,44.940147,276.919871,270,2.019728,3,-93.176729,8.193594,2025-03-14T02:37:23Z,-0.314389,-0.95428,0.028549,2025-03-14T02:37:23Z,0.06759,-0.040642,0.075751,2025-03-14T02:37:23Z
70,251.694521,0.69734,7.254826,44.940145,279.10452,270.30584700000003,2.110934,3,-93.176828,7.84892,2025-03-14T02:37:24Z,-0.320147,-0.938453,-0.004218,2025-03-14T02:37:24Z,-0.026483,0.067193,-0.086687,2025-03-14T02:37:24Z
71,251.012028,0.662824,7.255262,44.940148,278.422028,270.30584700000003,2.195704,3,-93.176929,7.799535,2025-03-14T02:37:25Z,-0.39316,-0.927187,-0.026237,2025-03-14T02:37:25Z,-0.632314,0.17760600000000001,-0.254648,2025-03-14T02:37:25Z
72,250.989385,0.662955,7.483904,44.940132,278.399385,270.30584700000003,2.352291,3,-93.177016,7.167596,2025-03-14T02:37:26Z,-0.360835,-0.915343,-0.05875,2025-03-14T02:37:26Z,-0.267678,0.302469,-0.52259,2025-03-14T02:37:26Z
73,250.579695,0.665534,8.656909,44.940132,277.989694,270,2.475306,3,-93.177089,6.215002,2025-03-14T02:37:27Z,-0.394918,-0.945122,-0.149787,2025-03-14T02:37:27Z,-0.320751,-0.194255,-1.392642,2025-03-14T02:37:27Z
