seconds_elapsed,location_altitude,location_speedAccuracy,location_bearingAccuracy,location_latitude,location_altitudeAboveMeanSeaLevel,location_bearing,location_horizontalAccuracy,location_verticalAccuracy,location_longitude,location_speed,location_local_time,accelerometerUncalibrated_z,accelerometerUncalibrated_y,accelerometerUncalibrated_x,accelerometerUncalibrated_local_time,accelerometer_z,accelerometer_y,accelerometer_x,accelerometer_local_time
0,262.506278,1.189518,99.459225,44.941299,289.916278,94.355113,3.847486,3,-93.167221,0.251024,2025-03-14T02:04:00Z,-0.19387,-0.985906,-0.129589,2025-03-14T02:04:00Z,0.730908,-0.230931,-1.474095,2025-03-14T02:04:00Z
1,262.345581,1.3,26.038156,44.941299,289.755581,91.054688,14,3,-93.167213,0.29,2025-03-14T02:04:01Z,-0.214728,-0.987715,-0.137431,2025-03-14T02:04:01Z,0.511285,-0.235629,-1.527267,2025-03-14T02:04:01Z
2,263.391113,1,10.732377,44.941226,290.801113,170.507812,3.535534,3,-93.167141,6.04,2025-03-14T02:04:02Z,-0.163596,-0.988579,-0.028994,2025-03-14T02:04:02Z,0.782905,-0.179256,-0.652776,2025-03-14T02:04:02Z
3,263.23468,0.38,4.492307,44.941169,290.64468,183.164062,3.535534,3,-93.167123,6.04,2025-03-14T02:04:03Z,-0.192169,-0.976629,0.071548,2025-03-14T02:04:03Z,0.477986,-0.066206,0.308929,2025-03-14T02:04:03Z
4,262.719116,0.24,2.517295,44.941112,290.129116,181.253555,3.535534,3,-93.167122,6.04,2025-03-14T02:04:04Z,-0.207832,-0.973129,0.082591,2025-03-14T02:04:04Z,0.308819,-0.040342,0.363667,2025-03-14T02:04:04Z
5,262.259155,0.09,0.906213,44.941055,289.669155,181.253555,3.535534,3,-93.167123,6.25,2025-03-14T02:04:05Z,-0.203753,-0.980305,0.06807,2025-03-14T02:04:05Z,0.292693,-0.082628,0.258695,2025-03-14T02:04:05Z
6,262.42688,0.05,0.519858,44.940992,289.83688,180.86116,3.535534,3,-93.167125,7.37,2025-03-14T02:04:07Z,-0.214525,-0.971336,0.075609,2025-03-14T02:04:06Z,0.141696,0.010662,0.315342,2025-03-14T02:04:06Z
7,262.285828,0.53,4.40215,44.940923,289.695827,180.86116,3.535534,3,-93.167125,7.85,2025-03-14T02:04:08Z,-0.228836,-0.965108,0.066051,2025-03-14T02:04:07Z,-0.027819,0.083111,0.235436,2025-03-14T02:04:07Z
8,262.245911,0.06,0.512621,44.940848,289.65591,180.86116,3.535534,3,-93.167122,7.85,2025-03-14T02:04:09Z,-0.258589,-0.966559,0.050962,2025-03-14T02:04:08Z,-0.335662,0.062405,0.079717,2025-03-14T02:04:08Z
9,262.35437,0.06,0.520144,44.940774,289.76437,180.112579,3.535534,3,-93.167124,8.18,2025-03-14T02:04:10Z,-0.301016,-0.952503,0.046945,2025-03-14T02:04:09Z,-0.741569,0.20538,0.065209,2025-03-14T02:04:09Z
10,262.301147,0.06,0.558041,44.940702,289.711147,180.112579,3.535534,3,-93.167124,7.71,2025-03-14T02:04:11Z,-0.305801,-0.953098,0.034325,2025-03-14T02:04:10Z,-0.747187,0.193502,-0.017259,2025-03-14T02:04:10Z
11,261.921997,0.8,7.144491,44.940636,289.331997,180.112579,3.535534,3,-93.167128,7.71,2025-03-14T02:04:12Z,-0.295367,-0.9437,0.025102,2025-03-14T02:04:11Z,-0.702603,0.288626,-0.059346,2025-03-14T02:04:11Z
12,261.741577,1.97,16.904563,44.940567,289.151577,180.112579,3.535534,3,-93.167118,7.49,2025-03-14T02:04:13Z,-0.331903,-0.942974,0.029921,2025-03-14T02:04:12Z,-0.935268,0.274964,-0.080632,2025-03-14T02:04:12Z
13,261.741582,1.97,21.311895,44.9405,289.151581,180.112579,4.748652,4.029364,-93.167108,7.49,2025-03-14T02:04:14Z,-0.364602,-0.940975,0.014183,2025-03-14T02:04:13Z,-1.213934,0.280579,-0.216617,2025-03-14T02:04:13Z
14,261.595341,2,22.291187999999998,44.940446,289.005341,180.112579,4.748652,4.029364,-93.167111,7.27,2025-03-14T02:04:15Z,-0.36257,-0.929029,0.035053,2025-03-14T02:04:14Z,-1.22189,0.412195,-0.127254,2025-03-14T02:04:14Z
15,261.424686,1.05,13.377341,44.940402,288.834686,180.112579,4.748652,4.029364,-93.167111,6.36,2025-03-14T02:04:16Z,-0.367912,-0.930066,0.020094,2025-03-14T02:04:15Z,-1.197697,0.37279,-0.230422,2025-03-14T02:04:15Z
16,261.705141,0.32,7.258975,44.940373,289.11514,180.112579,4.748652,4.029364,-93.167109,4.22,2025-03-14T02:04:17Z,-0.378931,-0.929458,0.023112,2025-03-14T02:04:16Z,-1.265749,0.370735,-0.212059,2025-03-14T02:04:16Z
17,261.821413,0.308016,7.258975,44.94034,289.231412,179.59111,4.748652,4.029364,-93.167108,4.22,2025-03-14T02:04:18Z,-0.344526,-0.939618,0.029175,2025-03-14T02:04:17Z,-0.865792,0.253251,-0.131214,2025-03-14T02:04:17Z
18,260.952637,0.308016,8.182965,44.940335,288.362637,179.59111,4.748652,4.029364,-93.167117,3.05,2025-03-14T02:04:19Z,-0.309845,-0.94849000000000006,0.037956,2025-03-14T02:04:18Z,-0.470723,0.15607,-0.029428,2025-03-14T02:04:18Z
19,260.781372,0.308016,13.205313,44.940335,288.191372,179.59111,4.748652,4.029364,-93.167121,1.89,2025-03-14T02:04:20Z,-0.292,-0.9535,0.040879,2025-03-14T02:04:19Z,-0.258299,0.095767,0.013135,2025-03-14T02:04:19Z
20,260.565186,0.54,36.462811,44.940333,287.975186,179.59111,4.748652,4.029364,-93.167125,1.2,2025-03-14T02:04:21Z,-0.297545,-0.95222,0.039637,2025-03-14T02:04:20Z,-0.267763,0.09712,0.006955,2025-03-14T02:04:20Z
21,260.370972,0.73,62.263983,44.940329,287.780972,179.59111,4.748652,4.029364,-93.167129,0.95,2025-03-14T02:04:22Z,-0.290095,-0.954257,0.040855,2025-03-14T02:04:21Z,-0.162823,0.066502,0.021683,2025-03-14T02:04:21Z
22,260.191162,0.69,58.852257,44.940327,287.601162,179.59111,4.748652,4.029364,-93.167132,0.95,2025-03-14T02:04:23Z,-0.284521,-0.95579,0.042517,2025-03-14T02:04:22Z,-0.073398,0.043053,0.040194,2025-03-14T02:04:22Z
23,259.999634,0.69,96.395939,44.940328,287.409634,179.59111,4.748652,4.029364,-93.167135,0.58,2025-03-14T02:04:24Z,-0.269643,-0.959823,0.045334,2025-03-14T02:04:23Z,0.094965,-0.004078,0.065919,2025-03-14T02:04:23Z
24,259.837891,0.827345,180,44.940334,287.247891,179.59111,4.748652,4.029364,-93.167136,0,2025-03-14T02:04:25Z,-0.263481,-0.961378,0.048595,2025-03-14T02:04:24Z,0.17593,-0.026941,0.090302,2025-03-14T02:04:24Z
25,259.797852,0.804985,180,44.940333,287.207851,179.59111,4.748652,4.029364,-93.167137,0,2025-03-14T02:04:26Z,-0.26334,-0.961777,0.047694,2025-03-14T02:04:25Z,0.190624,-0.031243,0.095301,2025-03-14T02:04:25Z
26,259.797852,0.827345,180,44.940333,287.207851,179.59111,4.748652,4.029364,-93.167137,0,2025-03-14T02:04:27Z,-0.263563,-0.961555,0.0472,2025-03-14T02:04:26Z,0.199782,-0.034025,0.080437,2025-03-14T02:04:26Z
27,259.819702,0.804985,180,44.940332,287.229702,179.59111,4.748652,4.029364,-93.167137,0,2025-03-14T02:04:28Z,-0.263459,-0.961488,0.048076,2025-03-14T02:04:27Z,0.197627,-0.034255,0.079732,2025-03-14T02:04:27Z
28,259.819092,0.872066,180,44.940331,287.229092,179.59111,4.748652,4.029364,-93.167137,0,2025-03-14T02:04:29Z,-0.263496,-0.961773,0.047591,2025-03-14T02:04:28Z,0.204308,-0.036645,0.073818,2025-03-14T02:04:28Z
29,259.762939,1.229837,180,44.940332,287.172939,179.59111,4.748652,4.029364,-93.167138,0,2025-03-14T02:04:30Z,-0.236255,-0.968949,0.055546,2025-03-14T02:04:29Z,0.450714,-0.10448,0.138977,2025-03-14T02:04:29Z
30,259.830994,1.397542,180,44.940333,287.240994,179.59111,4.748652,4.029364,-93.167134,0,2025-03-14T02:04:31Z,-0.217894,-0.97282,0.058822,2025-03-14T02:04:30Z,0.613181,-0.135549,0.175764,2025-03-14T02:04:30Z
31,259.831177,0.816165,180,44.940332,287.241177,179.59111,4.748652,4.029364,-93.167132,0.25,2025-03-14T02:04:32Z,-0.113245,-1.00149,0.086791,2025-03-14T02:04:31Z,1.562814,-0.395152,0.43982,2025-03-14T02:04:31Z
32,259.624512,0.69,87.358819,44.940322,287.034512,179.59111,4.748652,4.029364,-93.167131,0.64,2025-03-14T02:04:33Z,-0.112725,-1.002978,0.080031,2025-03-14T02:04:32Z,1.510088,-0.393266,0.385603,2025-03-14T02:04:32Z
33,263.383127,1.270633,50.491639,44.94027,290.793127,179.59111,2.374405,3,-93.167114,2.03733,2025-03-14T02:04:34Z,-0.156023,-0.992917,0.065513,2025-03-14T02:04:33Z,1.021906,-0.274443,0.283696,2025-03-14T02:04:33Z
34,263.526006,1.264743,28.854556,44.940226,290.936005,179.59111,2,3,-93.167113,3.550017,2025-03-14T02:04:35Z,-0.151194,-0.993625,0.062881,2025-03-14T02:04:34Z,0.967426,-0.254655,0.232598,2025-03-14T02:04:34Z
35,263.665057,1.273155,22.238919,44.940174,291.075057,179.59111,2.373211,3,-93.167111,4.636693,2025-03-14T02:04:36Z,-0.162401,-0.983549,0.056132,2025-03-14T02:04:35Z,0.786161,-0.142538,0.211621,2025-03-14T02:04:35Z
36,263.61665,1.268765,18.147726,44.940117,291.026649,179.59111,2.248808,3,-93.16711,5.664764,2025-03-14T02:04:37Z,-0.15398,-0.984713,0.044424,2025-03-14T02:04:36Z,0.852385,-0.139582,0.194814,2025-03-14T02:04:36Z
37,263.643854,1.266525,15.554912,44.940049,291.053854,179.59111,2.222075,3,-93.167111,6.597423,2025-03-14T02:04:38Z,-0.181895,-0.973548,0.074175,2025-03-14T02:04:37Z,0.668234,-0.062754,0.364892,2025-03-14T02:04:37Z
38,263.725818,1.269225,13.318163,44.939969,291.135818,180.917862,2.161394,3,-93.167109,7.721727,2025-03-14T02:04:39Z,-0.231127,-0.991636,0.054726,2025-03-14T02:04:38Z,0.158136,-0.237016,-0.052044,2025-03-14T02:04:38Z
39,263.78432,1.265238,11.875667,44.939884,291.19432,180.917862,2.111865,3,-93.167113,8.632214,2025-03-14T02:04:40Z,-0.183989,-0.97901,0.075154,2025-03-14T02:04:39Z,0.38266,-0.073885,0.098614,2025-03-14T02:04:39Z
40,263.805253,1.269744,10.920945,44.939795,291.215252,180.917862,2.132088,3,-93.167113,9.41981,2025-03-14T02:04:41Z,-0.183665,-0.981025,0.062333,2025-03-14T02:04:40Z,0.342048,-0.051634,0.073175,2025-03-14T02:04:40Z
41,263.827282,1.407749,14.541994,44.939729,291.237282,180.917862,2.471537,3,-93.167143,7.841608,2025-03-14T02:04:41Z,-0.193465,-0.985351,0.055029,2025-03-14T02:04:41Z,0.144079,-0.084299,0.108934,2025-03-14T02:04:41Z
42,263.740377,1.272173,9.60234,44.939604,291.150377,180.917862,2.380464,3,-93.167137,10.734953,2025-03-14T02:04:42Z,-0.185973,-0.982346,0.035733,2025-03-14T02:04:42Z,0.212598,-0.047331,-0.013597,2025-03-14T02:04:42Z
43,263.899114,1.268617,8.953626,44.939491,291.309114,179.918834,2.355348,3,-93.167139,11.480195,2025-03-14T02:04:43Z,-0.19983,-0.973692,0.035521,2025-03-14T02:04:43Z,0.068421,0.042268,-0.021895,2025-03-14T02:04:43Z
44,264.267386,1.273043,8.456664,44.939374,291.677386,179.90797,2.183878,3,-93.16714,12.195197,2025-03-14T02:04:44Z,-0.216178,-0.980599,0.036844,2025-03-14T02:04:44Z,-0.126311,-0.013231,-0.018331,2025-03-14T02:04:44Z
45,264.327055,1.270909,8.071429,44.939252,291.737055,180.137334,2.116145,3,-93.167141,12.756603,2025-03-14T02:04:45Z,-0.225285,-0.963702,0.036759,2025-03-14T02:04:45Z,-0.16139,0.116636,-0.021829,2025-03-14T02:04:45Z
46,264.448244,1.268804,7.800386,44.939125,291.858244,179.943221,2.056367,3,-93.167137,13.178028,2025-03-14T02:04:46Z,-0.223179,-0.969802,0.019589,2025-03-14T02:04:46Z,-0.158224,0.075923,-0.154203,2025-03-14T02:04:46Z
47,264.727001,1.268755,7.622439,44.938994,292.137001,179.57132,2.075685,3,-93.167136,13.485453,2025-03-14T02:04:47Z,-0.231758,-0.973308,0.02339,2025-03-14T02:04:47Z,-0.194649,0.028308,-0.13188,2025-03-14T02:04:47Z
48,264.841342,1.2715,7.494559,44.938867,292.251342,180.472351,2.036505,3,-93.167131,13.745125,2025-03-14T02:04:48Z,-0.247488,-0.966285,0.034351,2025-03-14T02:04:48Z,-0.365379,0.112502,-0.009499,2025-03-14T02:04:48Z
49,265.11256,1.268452,7.258955,44.938737,292.52256,180.472351,2.017311,3,-93.167133,14.158781,2025-03-14T02:04:49Z,-0.226724,-0.968645,0.02419,2025-03-14T02:04:49Z,-0.153776,0.083431,-0.048897,2025-03-14T02:04:49Z
50,265.356152,1.526381,8.087692,44.938594,292.766152,180.219025,2.007949,3,-93.167136,15.287758,2025-03-14T02:04:50Z,-0.236134,-0.969614,0.02042,2025-03-14T02:04:50Z,-0.235769,0.074073,-0.076411,2025-03-14T02:04:50Z
51,265.50419,1.272393,7.258948,44.938463,292.91419,180.219025,2.003545,3,-93.167134,14.524169,2025-03-14T02:04:51Z,-0.232549,-0.969272,0.017788000000000002,2025-03-14T02:04:51Z,-0.17059,0.065151,-0.102525,2025-03-14T02:04:51Z
52,265.719524,1.265146,7.25896,44.938326000000004,293.129524,179.689194,2.151126,3,-93.167132,14.76468,2025-03-14T02:04:52Z,-0.268944,-0.961535,0.013721,2025-03-14T02:04:52Z,-0.477785,0.121549,-0.1693,2025-03-14T02:04:52Z
53,265.933659,1.341091,8.734884,44.938224,293.343659,180,2.072447,3,-93.167125,12.438574,2025-03-14T02:04:53Z,-0.305967,-0.953346,0.005177,2025-03-14T02:04:53Z,-0.82522,0.215899,-0.269235,2025-03-14T02:04:53Z
54,266.431652,0.883893,7.25845,44.938064,293.841652,180.672791,2.627685,3,-93.167119,14.502638,2025-03-14T02:04:54Z,-0.307102,-0.941178,0.007449,2025-03-14T02:04:54Z,-0.804092,0.32532,-0.265703,2025-03-14T02:04:54Z
55,266.163668,0.680285,7.25896,44.937935,293.573668,180.672791,2.757491,3,-93.167122,14.288042,2025-03-14T02:04:55Z,-0.288683,-0.934738,0.002646,2025-03-14T02:04:55Z,-0.469183,0.341408,-0.218506,2025-03-14T02:04:55Z
56,266.067329,0.6727,7.25881,44.937812,293.477329,181.01387,2.360063,3,-93.167119,13.908881,2025-03-14T02:04:56Z,-0.293232,-0.946679,0.026115,2025-03-14T02:04:56Z,-0.415491,0.188619,-0.062986,2025-03-14T02:04:56Z
57,265.960678,0.668286,7.258584,44.937688,293.370678,180.398468,2.172018,3,-93.167121,13.782812,2025-03-14T02:04:57Z,-0.301586,-0.94943,0.012979,2025-03-14T02:04:57Z,-0.456209,0.183915,-0.154868,2025-03-14T02:04:57Z
58,265.743421,0.666553,7.258451,44.937567,293.153421,180.398468,2.174327,3,-93.167115,13.558254,2025-03-14T02:04:58Z,-0.296192,-0.951423,0.015519,2025-03-14T02:04:58Z,-0.357673,0.127732,-0.19961,2025-03-14T02:04:58Z
59,265.557348,0.66582,7.257766,44.937445,292.967348,180.398468,2.331697,3,-93.167121,13.453771,2025-03-14T02:04:59Z,-0.288426,-0.955295,0.014328,2025-03-14T02:04:59Z,-0.246527,0.085898,-0.297034,2025-03-14T02:04:59Z
60,265.691079,0.660551,7.258696,44.937323,293.101079,180.398468,3.167822,3,-93.167123,13.46029,2025-03-14T02:05:00Z,-0.282325,-0.963957,0.038721,2025-03-14T02:05:00Z,-0.177333,-0.005524,-0.064124,2025-03-14T02:05:00Z
61,264.910088,0.663146,7.255765,44.937206,292.320088,180,2.610439,3,-93.167125,13.269796,2025-03-14T02:05:01Z,-0.263265,-0.962641,0.037344,2025-03-14T02:05:01Z,-0.042205,0.028934,0.09261,2025-03-14T02:05:01Z
62,265.271832,0.667469,7.258798,44.93708,292.681832,178.838959,2.529182,3,-93.167127,13.650653,2025-03-14T02:05:02Z,-0.241891,-0.955394,0.01622,2025-03-14T02:05:02Z,0.16459,0.104413,0.031254,2025-03-14T02:05:02Z
63,265.385712,0.662315,7.258905,44.936952,292.795712,178.838959,2.308169,3,-93.167124,14.02991,2025-03-14T02:05:03Z,-0.246469,-0.980368,0.031862,2025-03-14T02:05:03Z,0.156997,-0.166221,0.09826,2025-03-14T02:05:03Z
64,265.315962,0.670662,7.258971,44.936822,292.725962,179.416763,2.671021,3,-93.167127,14.384782,2025-03-14T02:05:04Z,-0.254673,-0.956431,0.009953,2025-03-14T02:05:04Z,0.087768,0.087485,-0.067736,2025-03-14T02:05:04Z
65,265.303964,0.661031,7.258879,44.936687,292.713964,180.224625,2.426743,3,-93.167125,14.698298,2025-03-14T02:05:05Z,-0.246694,-0.971737,0.017505,2025-03-14T02:05:05Z,0.161926,-0.071804,-0.036535,2025-03-14T02:05:05Z
66,264.722335,0.701878,7.256159,44.93655,292.132335,180.224625,2.193841,3,-93.167127,15.015281,2025-03-14T02:05:06Z,-0.257756,-0.961735,0.015803,2025-03-14T02:05:06Z,0.041325,0.028958,-0.043266,2025-03-14T02:05:06Z
67,265.2669,0.661278,7.258865,44.936414,292.6769,180,2.412008,3,-93.167119,15.17703,2025-03-14T02:05:07Z,-0.30286,-0.950479,0.017342,2025-03-14T02:05:07Z,-0.326942,0.119261,-0.091745,2025-03-14T02:05:07Z
68,264.74537,0.648003,7.258344,44.936277,292.15537,180,2.183192,3,-93.167122,15.076569,2025-03-14T02:05:08Z,-0.292281,-0.953047,0.018142,2025-03-14T02:05:08Z,-0.268604,0.109141,-0.00388,2025-03-14T02:05:08Z
69,265.025904,0.787807,7.25857,44.936135,292.435904,178.65307,2.743535,3,-93.167114,15.53707,2025-03-14T02:05:09Z,-0.285261,-0.968236,-0.002881,2025-03-14T02:05:09Z,-0.172425,-0.025049,-0.131588,2025-03-14T02:05:09Z
70,264.292177,0.681721,7.258295,44.936009,291.702177,179.682329,2.997123,3,-93.167117,14.894561,2025-03-14T02:05:10Z,-0.266646,-0.940294,-0.002696,2025-03-14T02:05:10Z,-0.031571,0.214875,-0.128017,2025-03-14T02:05:10Z
71,264.012389,0.658801,7.258269,44.935874,291.422388,179.606579,2.855323,3,-93.167114,15.028903,2025-03-14T02:05:11Z,-0.272163,-0.976468,0.015147,2025-03-14T02:05:11Z,-0.085211,-0.089878,-0.013931,2025-03-14T02:05:11Z
72,263.602967,0.657232,7.258481,44.935741,291.012967,180.317444,2.390846,3,-93.167117,14.978967,2025-03-14T02:05:12Z,-0.261698,-0.9566,0.007419,2025-03-14T02:05:12Z,0.114511,0.02017,-0.079353,2025-03-14T02:05:12Z
73,263.639731,0.653235,7.258893,44.935605,291.049731,180.110123,2.238266,3,-93.167117,15.107937,2025-03-14T02:05:13Z,-0.265512,-0.961597,0.009434,2025-03-14T02:05:13Z,0.050127,0.007676,-0.069787,2025-03-14T02:05:13Z
74,263.373443,0.658584,7.258389,44.935467,290.783443,180.110123,2.425058,3,-93.167117,15.23699,2025-03-14T02:05:14Z,-0.291136,-0.954919,0.015997,2025-03-14T02:05:14Z,-0.183522,0.072998,-0.030264,2025-03-14T02:05:14Z
75,262.982444,0.671242,7.257284,44.935327,290.392444,180.110123,2.553475,3,-93.167119,15.430087,2025-03-14T02:05:15Z,-0.32906,-0.943771,-0.007564,2025-03-14T02:05:15Z,-0.527555,0.167308,-0.217807,2025-03-14T02:05:15Z
76,262.641909,0.667791,7.256797,44.935197,290.051909,180,2.859595,3,-93.167121,14.89088,2025-03-14T02:05:16Z,-0.358881,-0.937704,-0.007853,2025-03-14T02:05:16Z,-0.835358,0.236586,-0.213296,2025-03-14T02:05:16Z
77,262.346583,0.676023,7.25679,44.935071,289.756583,180,3.133583,3.038531,-93.167127,14.188527,2025-03-14T02:05:17Z,-0.376185,-0.930619,-0.020438,2025-03-14T02:05:17Z,-0.960932,0.294538,-0.338418,2025-03-14T02:05:17Z
78,262.705368,0.674612,7.258779,44.934953,290.115368,180,3.142211,3.021368,-93.167121,13.418786,2025-03-14T02:05:18Z,-0.411589,-0.921733,-0.026575,2025-03-14T02:05:18Z,-1.228565,0.352162,-0.42166,2025-03-14T02:05:18Z
79,262.515334,0.66587,7.257992,44.934849,289.925334,180,2.614487,3,-93.167125,12.095351,2025-03-14T02:05:19Z,-0.42759,-0.916623,-0.021024,2025-03-14T02:05:19Z,-1.325386,0.385893,-0.371621,2025-03-14T02:05:19Z
80,262.381742,0.669135,7.25842,44.934758,289.791741,180,2.328207,3,-93.16713,10.655173,2025-03-14T02:05:20Z,-0.441366,-0.913039,-0.027218,2025-03-14T02:05:20Z,-1.326118,0.38247,-0.400007,2025-03-14T02:05:20Z
81,262.280089,0.669702,7.255743,44.934681,289.690089,179.267502,2.476582,3,-93.167129,9.053582,2025-03-14T02:05:21Z,-0.427099,-0.906872,-0.023099,2025-03-14T02:05:21Z,-1.030457,0.38755,-0.338486,2025-03-14T02:05:21Z
82,262.849169,0.674094,7.25802,44.934617,290.259168,179.267502,2.842695,3,-93.167123,7.639389,2025-03-14T02:05:22Z,-0.39443,-0.936161,0.0032,2025-03-14T02:05:22Z,-0.547019,0.040124,-0.118745,2025-03-14T02:05:22Z
83,263.159805,0.853204,9.583428,44.934553,290.569805,180,2.712918,3,-93.167118,7.195725,2025-03-14T02:05:23Z,-0.408636,-0.919249,-0.012442,2025-03-14T02:05:23Z,-0.78228,0.250297,-0.252682,2025-03-14T02:05:23Z
84,262.743899,0.767695,11.384028,44.934519,290.153899,179.780197,2.727432,3,-93.167111,5.464745,2025-03-14T02:05:24Z,-0.399673,-0.923391,0.001974,2025-03-14T02:05:24Z,-0.639852,0.182649,-0.166288,2025-03-14T02:05:24Z
85,262.699693,0.672529,14.505267,44.934498,290.109693,179.780197,2.646001,3,-93.167121,3.752192,2025-03-14T02:05:25Z,-0.411561,-0.918565,-0.002604,2025-03-14T02:05:25Z,-0.685888,0.209137,-0.228928,2025-03-14T02:05:25Z
86,262.575842,0.675264,22.778101,44.934483,289.985842,179.780197,2.62634,3,-93.16712,2.355385,2025-03-14T02:05:26Z,-0.353141,-0.937974,0.019141,2025-03-14T02:05:26Z,-0.095967,0.008364,-0.052135,2025-03-14T02:05:26Z
87,262.67416,0.686736,39.039041,44.934474,290.08416,179.780197,2.561278,3,-93.167122,1.354863,2025-03-14T02:05:27Z,-0.335343,-0.942301,0.022403,2025-03-14T02:05:27Z,0.082171,-0.03384,-0.014062,2025-03-14T02:05:27Z
88,NA,NA,NA,NA,NA,NA,NA,NA,NA,NA,NA,-0.335488,-0.939431,0.023679,2025-03-14T02:05:28Z,0.044262,-0.012485,0.011069,2025-03-14T02:05:28Z
