seconds_elapsed,location_altitude,location_speedAccuracy,location_bearingAccuracy,location_latitude,location_altitudeAboveMeanSeaLevel,location_bearing,location_horizontalAccuracy,location_verticalAccuracy,location_longitude,location_speed,location_local_time,accelerometerUncalibrated_z,accelerometerUncalibrated_y,accelerometerUncalibrated_x,accelerometerUncalibrated_local_time,accelerometer_z,accelerometer_y,accelerometer_x,accelerometer_local_time
0,258.655452,-0.515,2.246976,44.942186,286.065452,45.744141,112.109533,6.25,-93.167066,0.525,2025-03-14T02:17:41Z,-0.25012,-0.954088,-0.280526,2025-03-14T02:17:41Z,0.098346,0.110134,-2.556205,2025-03-14T02:17:41Z
1,261.580933,1.08,15.667766,44.941678,288.990932,248.203125,3.535534,3,-93.167234,5.1,2025-03-14T02:17:42Z,-0.24011,-0.931314,-0.296884,2025-03-14T02:17:42Z,0.357091,0.278869,-2.473111,2025-03-14T02:17:42Z
2,258.792114,1.3,17.834585,44.941696,286.202114,262.265625,3.535534,3,-93.167269,4.69,2025-03-14T02:17:43Z,-0.205228,-0.978609,-0.118718,2025-03-14T02:17:43Z,0.807034,-0.235201,-0.427413,2025-03-14T02:17:43Z
3,258.547668,0.87,8.032381,44.941706,285.957668,270.292664,3.535534,3,-93.167366,4.69,2025-03-14T02:17:44Z,-0.185945,-0.979053,-0.002116,2025-03-14T02:17:44Z,0.933314,-0.219163,0.728331,2025-03-14T02:17:44Z
4,257.831238,0.83,7.166032,44.941712,285.241238,270.292664,3.535534,3,-93.167453,7.5,2025-03-14T02:17:45Z,-0.194736,-0.986797,-0.038828,2025-03-14T02:17:45Z,0.771582,-0.281123,0.444899,2025-03-14T02:17:45Z
5,258.076904,0.65,4.576096,44.941716,285.486904,270.292664,3.535534,3,-93.167567,9.18,2025-03-14T02:17:46Z,-0.235127,-0.975196,-0.031366,2025-03-14T02:17:46Z,0.181575,-0.108973,0.465056,2025-03-14T02:17:46Z
6,258.643799,1.75,8.551837,44.941702,286.053799,270.292664,3.535534,3,-93.167682,9.16,2025-03-14T02:17:47Z,-0.243442,-0.962655,-0.03024,2025-03-14T02:17:47Z,0.032324,0.038058,0.427042,2025-03-14T02:17:47Z
7,257.643677,1.62,6.591023,44.941703,285.053677,270.292664,3.535534,3,-93.167807,9.18,2025-03-14T02:17:48Z,-0.280143,-0.946308,-0.042106,2025-03-14T02:17:48Z,-0.315051,0.188268,0.327493,2025-03-14T02:17:48Z
8,257.280884,0.77,4.845253,44.941703,284.690884,270.292664,3.535534,3,-93.167938,10.32,2025-03-14T02:17:49Z,-0.290576,-0.968032,-0.0529,2025-03-14T02:17:49Z,-0.492423,-0.003298,0.2372,2025-03-14T02:17:49Z
9,256.600098,0.22,1.496654,44.94172,284.010098,270.292664,3.535534,3,-93.168057,10.32,2025-03-14T02:17:50Z,-0.288227,-0.948315,-0.055291,2025-03-14T02:17:50Z,-0.445332,0.176383,0.270461,2025-03-14T02:17:50Z
10,256.063782,0.8,5.335022,44.941719,283.47378200000003,270.2341,3.535534,3,-93.16818,9.8,2025-03-14T02:17:51Z,-0.284705,-0.958725,-0.062097,2025-03-14T02:17:51Z,-0.430955,0.083264,0.136452,2025-03-14T02:17:51Z
11,255.431702,1.11,7.255016,44.941704,282.841702,270.2341,3.535534,3,-93.168278,9.46,2025-03-14T02:17:52Z,-0.292828,-0.948681,-0.048354,2025-03-14T02:17:52Z,-0.459684,0.177118,0.203211,2025-03-14T02:17:52Z
12,255.093018,1.71,7.570478,44.941705,282.503017,270.2341,3.535534,3,-93.1684,9.61,2025-03-14T02:17:53Z,-0.294677,-0.959041,-0.045401,2025-03-14T02:17:53Z,-0.443949,0.073636,0.202999,2025-03-14T02:17:53Z
13,255.093025,1.71,14.418178,44.941705,282.503025,270.2341,4.748652,4.029364,-93.168522,9.61,2025-03-14T02:17:54Z,-0.355814,-0.936797,-0.076673,2025-03-14T02:17:54Z,-1.03656,0.277351,-0.011284,2025-03-14T02:17:54Z
14,255.234077,2.26,19.055603,44.941705,282.644077,270.2341,4.748652,4.029364,-93.168636,9.61,2025-03-14T02:17:55Z,-0.363572,-0.908583,-0.076637,2025-03-14T02:17:55Z,-1.067844,0.54983,-0.087872,2025-03-14T02:17:55Z
15,254.836799,2.36,21.392723,44.941706,282.246798,270.2341,8.083293,4.029364,-93.168705,9.13,2025-03-14T02:17:56Z,-0.349794,-0.94763,-0.112359,2025-03-14T02:17:56Z,-0.911238,0.1551,-0.341948,2025-03-14T02:17:56Z
16,255.073491,2.99,31.920305,44.941706,282.483491,270.2341,4.748652,3.958486,-93.168783,7.59,2025-03-14T02:17:57Z,-0.459991,-0.906596,-0.103482,2025-03-14T02:17:57Z,-1.890117,0.530405,-0.308563,2025-03-14T02:17:57Z
17,255.179143,3.07,31.891973,44.941706,282.589143,270.2341,4.748652,3.896504,-93.168904,7.8,2025-03-14T02:17:58Z,-0.460481,-0.902618,-0.113251,2025-03-14T02:17:58Z,-1.777298,0.534375,-0.325216,2025-03-14T02:17:58Z
18,255.338262,2.71,28.152198,44.941706,282.748261,270.2341,4.748652,4.029364,-93.169003,7.8,2025-03-14T02:17:59Z,-0.474469,-0.901782,-0.113529,2025-03-14T02:17:59Z,-1.702263,0.472179,-0.313972,2025-03-14T02:17:59Z
19,255.549014,2.26,35.252362,44.94172,282.959014,270.2341,4.748652,4.029364,-93.169045,6.25,2025-03-14T02:18:00Z,-0.41051,-0.919172,-0.105509,2025-03-14T02:18:00Z,-1.063935,0.296157,-0.168545,2025-03-14T02:18:00Z
20,254.842529,2.526757,180,44.941719,282.252529,270.2341,4.748652,4.029364,-93.168988,0,2025-03-14T02:18:01Z,-0.242401,-0.967142,-0.056128,2025-03-14T02:18:01Z,0.519818,-0.153016,0.289758,2025-03-14T02:18:01Z
21,254.431091,1.01,88.955164,44.941719,281.841091,270.2341,4.748652,4.029364,-93.169019,0.92,2025-03-14T02:18:02Z,-0.142364,-0.997689,-0.030498,2025-03-14T02:18:02Z,1.400767,-0.415779,0.514811,2025-03-14T02:18:02Z
22,254.389771,0.74,32.587536,44.94172,281.799771,270.2341,4.748652,4.029364,-93.169049,1.84,2025-03-14T02:18:03Z,-0.10431699999999999,-1.00141,-0.023587,2025-03-14T02:18:03Z,1.629014,-0.414888,0.544589,2025-03-14T02:18:03Z
23,254.093141,0.92,21.545142,44.941707,281.50314,270.2341,4.748652,4.029364,-93.169106,3.46,2025-03-14T02:18:04Z,-0.130436,-0.996519,-0.01205,2025-03-14T02:18:04Z,1.430622,-0.370232,0.543544,2025-03-14T02:18:04Z
24,253.761476,0.73,17.095602,44.941707,281.171475,270.2341,4.748652,4.029364,-93.169163,3.46,2025-03-14T02:18:05Z,-0.152475,-0.984358,-0.01914,2025-03-14T02:18:05Z,1.236143,-0.254838,0.431351,2025-03-14T02:18:05Z
25,253.56592,1.18,17.70622,44.941707,280.97592,270.125305,4.748652,4.029364,-93.169259,5.4,2025-03-14T02:18:06Z,-0.185836,-0.988877,-0.001715,2025-03-14T02:18:06Z,1.075259,-0.342079,0.459997,2025-03-14T02:18:06Z
26,253.375674,1.01,13.178543,44.941707,280.785674,270.125305,4.748652,4.029364,-93.169354,6.21,2025-03-14T02:18:07Z,-0.19683,-0.978186,-0.010499,2025-03-14T02:18:07Z,0.815569,-0.189114,0.341926,2025-03-14T02:18:07Z
27,253.541693,0.82,7.881772,44.941707,280.951692,270.125305,4.748652,4.029364,-93.169489,8.43,2025-03-14T02:18:08Z,-0.212095,-0.978592,-0.024165,2025-03-14T02:18:08Z,0.554104,-0.161402,0.219498,2025-03-14T02:18:08Z
28,253.63697,0.73,7.258975,44.941723,281.046969,270.125305,4.748652,4.029364,-93.169601,9.18,2025-03-14T02:18:09Z,-0.219832,-0.968568,-0.026269,2025-03-14T02:18:09Z,0.39326,-0.04578,0.204697,2025-03-14T02:18:09Z
29,253.364753,0.6,7.258975,44.941721,280.774753,270.13382,4.748652,4.029364,-93.169714,9.18,2025-03-14T02:18:10Z,-0.250071,-0.962507,-0.033259,2025-03-14T02:18:10Z,0.073072,0.032246,0.089234,2025-03-14T02:18:10Z
30,253.235847,0.59,7.258975,44.941717,280.645847,270.13382,4.748652,4.029364,-93.169839,9.39,2025-03-14T02:18:11Z,-0.266794,-0.968004,-0.062083,2025-03-14T02:18:11Z,-0.173573,-0.015568,-0.119665,2025-03-14T02:18:11Z
31,253.187935,0.59,7.258975,44.941715,280.597935,270.13382,4.748652,4.029364,-93.169974,10.06,2025-03-14T02:18:12Z,-0.252667,-0.961241,-0.041603,2025-03-14T02:18:12Z,-0.022619,0.066355,-0.018754,2025-03-14T02:18:12Z
32,253.096688,1.49,11.90655,44.941718,280.506688,270.13382,4.748652,4.029364,-93.170104,10.14,2025-03-14T02:18:13Z,-0.274879,-0.957978,-0.056324,2025-03-14T02:18:13Z,-0.298093,0.102799,-0.096472,2025-03-14T02:18:13Z
33,255.654503,1.277366,9.870287,44.941712,283.064502,270.13382,2.718647,3,-93.170245,10.484021,2025-03-14T02:18:14Z,-0.335086,-0.941328,-0.07281,2025-03-14T02:18:14Z,-0.843412,0.252709,-0.209723,2025-03-14T02:18:14Z
34,255.724257,1.277816,10.225635,44.941712,283.134257,270.13382,3.106698,3,-93.170377,10.124466,2025-03-14T02:18:15Z,-0.450432,-0.907341,-0.099262,2025-03-14T02:18:15Z,-1.875668,0.565324,-0.603933,2025-03-14T02:18:15Z
35,255.475396,1.273974,11.656824,44.941713,282.885396,270.13382,2.553349,3,-93.17048,8.85247,2025-03-14T02:18:16Z,-0.408368,-0.916734,-0.075829,2025-03-14T02:18:16Z,-1.40291,0.457844,-0.361677,2025-03-14T02:18:16Z
36,256.075065,0.701533,8.174583,44.941718,283.485065,270.13382,2.341547,3,-93.170547,6.889872,2025-03-14T02:18:17Z,-0.376719,-0.926096,-0.078075,2025-03-14T02:18:17Z,-1.058078,0.350219,-0.229098,2025-03-14T02:18:17Z
37,255.511903,0.703789,10.773077,44.941715,282.921902,270.13382,2.294569,3,-93.170602,5.291207,2025-03-14T02:18:18Z,-0.365682,-0.935827,-0.079204,2025-03-14T02:18:18Z,-0.844328,0.220723,-0.22611,2025-03-14T02:18:18Z
38,255.377274,0.704373,13.783069,44.941718,282.787274,270.13382,2.266587,3,-93.170648,4.127714,2025-03-14T02:18:19Z,-0.43028,-0.914163,-0.096164,2025-03-14T02:18:19Z,-1.302216,0.384518,-0.36217,2025-03-14T02:18:19Z
39,255.142044,0.714355,21.440489,44.941717,282.552044,270.13382,2.222156,3,-93.170677,2.651352,2025-03-14T02:18:20Z,-0.424022,-0.917059,-0.098522,2025-03-14T02:18:20Z,-1.152402,0.315784,-0.342452,2025-03-14T02:18:20Z
40,255.254676,0.868573,62.258533,44.941713,282.664676,270.13382,2.567022,3,-93.170685,1.126447,2025-03-14T02:18:21Z,-0.292443,-0.949183,-0.067662,2025-03-14T02:18:21Z,0.090832,0.017502,0.009926,2025-03-14T02:18:21Z
41,255.478255,0.829154,49.225868,44.941714,282.888255,270.13382,2.718659,3,-93.170699,1.047467,2025-03-14T02:18:22Z,-0.203732,-0.979607,-0.045291,2025-03-14T02:18:22Z,0.980762,-0.290887,0.256318,2025-03-14T02:18:22Z
42,255.449421,0.779946,40.978333,44.941714,282.859421,270.13382,2.755918,3,-93.170715,1.332448,2025-03-14T02:18:23Z,-0.145454,-0.996723,-0.024411,2025-03-14T02:18:23Z,1.542974,-0.45076,0.397356,2025-03-14T02:18:23Z
43,255.102527,0.71317,22.269881,44.941716,282.512527,270.13382,2.909321,3,-93.170755,2.467705,2025-03-14T02:18:24Z,-0.138622,-1.003723,-0.019308,2025-03-14T02:18:24Z,1.409027,-0.45096,0.351081,2025-03-14T02:18:24Z
44,255.468385,0.684331,14.435332,44.941714,282.878385,268.584401,2.826656,3,-93.170815,3.827085,2025-03-14T02:18:25Z,-0.143394,-0.978004,-0.008017,2025-03-14T02:18:25Z,1.246625,-0.158282,0.316482,2025-03-14T02:18:25Z
45,255.339662,0.668849,11.036846,44.941714,282.749661,269.252753,2.778816,3,-93.170883,4.899065,2025-03-14T02:18:26Z,-0.165886,-0.993552,0.006452,2025-03-14T02:18:26Z,1.096963,-0.326148,0.352469,2025-03-14T02:18:26Z
46,256.083759,0.787269,11.553608,44.941711,283.493759,268.270199,2.718907,3,-93.170956,5.471777,2025-03-14T02:18:27Z,-0.181424,-0.986697,-0.006324,2025-03-14T02:18:27Z,1.017116,-0.285781,0.289477,2025-03-14T02:18:27Z
47,255.949906,0.704364,8.276179,44.941709,283.359905,267.72049,2.815424,3,-93.171057,6.892136,2025-03-14T02:18:28Z,-0.20106,-0.972824,-0.046419,2025-03-14T02:18:28Z,0.7006,-0.123033,0.114975,2025-03-14T02:18:28Z
48,255.666991,0.681288,7.419062,44.941708,283.076991,267.926802,2.735966,3,-93.171154,7.438302,2025-03-14T02:18:29Z,-0.23084,-0.963792,-0.077032,2025-03-14T02:18:29Z,0.387554,-0.043677,0.016786,2025-03-14T02:18:29Z
49,254.80213,0.704539,7.327189,44.941707,282.21213,268.731107,2.576777,3,-93.171253,7.679142,2025-03-14T02:18:30Z,-0.195883,-0.98445,-0.087277,2025-03-14T02:18:30Z,0.5682,-0.19655,-0.082543,2025-03-14T02:18:30Z
50,255.451587,0.696434,7.258454,44.941714,282.861587,272.838125,2.4279,3,-93.171363,8.412063,2025-03-14T02:18:31Z,-0.220715,-0.969097,-0.054645,2025-03-14T02:18:31Z,0.292192,-0.031224,0.102886,2025-03-14T02:18:31Z
51,255.062893,0.679979,7.253324,44.941711,282.472893,270.465888,2.292495,3,-93.171479,8.890697,2025-03-14T02:18:32Z,-0.245662,-0.967826,-0.07016,2025-03-14T02:18:32Z,0.017241,-0.019575,0.033006,2025-03-14T02:18:32Z
52,254.765206,0.690231,7.250897,44.941713,282.175206,271.072317,2.188118,3,-93.171594,8.927873,2025-03-14T02:18:33Z,-0.250079,-0.958379,-0.084003,2025-03-14T02:18:33Z,-0.059136,0.085013,-0.083543,2025-03-14T02:18:33Z
53,254.776851,0.830622,7.465341,44.941725,282.186851,270.11441,2.541517,3,-93.171707,9.002819,2025-03-14T02:18:34Z,-0.228481,-0.964914,-0.080215,2025-03-14T02:18:34Z,0.173372,0.028513,-0.08896,2025-03-14T02:18:34Z
54,254.97233,0.713941,7.258941,44.941714,282.38233,270.11441,2.349187,3,-93.171819,8.889024,2025-03-14T02:18:35Z,-0.229237,-0.968979,-0.053929,2025-03-14T02:18:35Z,0.152488,-0.032332,0.120232,2025-03-14T02:18:35Z
55,254.040024,0.817654,7.247262,44.941715,281.450024,270.11441,2.84784,3,-93.171938,9.161957,2025-03-14T02:18:36Z,-0.223513,-0.971866,-0.059232,2025-03-14T02:18:36Z,0.210787,-0.050795,0.048833,2025-03-14T02:18:36Z
56,254.105781,0.718068,7.255066,44.941718,281.51578,270.11441,2.648236,3,-93.172079,10.119934,2025-03-14T02:18:37Z,-0.229606,-0.962573,-0.070708,2025-03-14T02:18:37Z,0.187124,0.039628,0.021071,2025-03-14T02:18:37Z
57,254.179845,0.698064,7.257865,44.941716,281.589845,270.11441,2.63464,3,-93.172219,10.729423,2025-03-14T02:18:38Z,-0.237206,-0.977502,-0.075862,2025-03-14T02:18:38Z,-0.017346,-0.090183,0.054141,2025-03-14T02:18:38Z
58,254.09502,0.675138,7.258169,44.941714,281.50502,270.130157,2.352885,3,-93.172357,10.950686,2025-03-14T02:18:39Z,-0.242151,-0.960257,-0.07442,2025-03-14T02:18:39Z,-0.031739,0.074591,0.033835,2025-03-14T02:18:39Z
59,254.005117,0.676192,7.258476,44.941712,281.415117,270.130157,2.402377,3,-93.1725,11.113738,2025-03-14T02:18:40Z,-0.249563,-0.956051,-0.083751,2025-03-14T02:18:40Z,-0.128047,0.118793,-0.045436,2025-03-14T02:18:40Z
60,253.878478,0.699702,7.258049,44.941711,281.288478,270.130157,2.27247,3,-93.17264,11.078049,2025-03-14T02:18:41Z,-0.252109,-0.964998,-0.116423,2025-03-14T02:18:41Z,-0.171418,0.021829,-0.221622,2025-03-14T02:18:41Z
61,253.955023,0.704727,7.258937,44.941709,281.365023,270.130157,2.332365,3,-93.172785,11.1454,2025-03-14T02:18:42Z,-0.26354,-0.96426,-0.096046,2025-03-14T02:18:42Z,-0.2525,0.040462,-0.168861,2025-03-14T02:18:42Z
62,253.828384,0.700313,7.258562,44.94171,281.238384,270.130157,2.523244,3,-93.172931,11.218691,2025-03-14T02:18:43Z,-0.275086,-0.957916,-0.095701,2025-03-14T02:18:43Z,-0.337745,0.096302,-0.195091,2025-03-14T02:18:43Z
63,253.838919,0.687649,7.258937,44.941712,281.248919,270.130157,2.284818,3,-93.173069,10.879862,2025-03-14T02:18:44Z,-0.292019,-0.944526,-0.089187,2025-03-14T02:18:44Z,-0.479755,0.219619,-0.150087,2025-03-14T02:18:44Z
64,253.698577,0.67562,7.258188,44.941714,281.108577,270.130157,2.470559,3,-93.173203,10.605624,2025-03-14T02:18:45Z,-0.296948,-0.956712,-0.077474,2025-03-14T02:18:45Z,-0.467021,0.090269,-0.059355,2025-03-14T02:18:45Z
65,253.894095,0.761409,7.258623,44.941714,281.304095,270.130157,2.294601,3,-93.173336,10.427082,2025-03-14T02:18:46Z,-0.284006,-0.969463,-0.105051,2025-03-14T02:18:46Z,-0.423625,-0.010126,-0.342185,2025-03-14T02:18:46Z
66,253.302625,0.70715,7.256501,44.941713,280.712625,270.130157,2.246486,3,-93.173458,10.017439,2025-03-14T02:18:47Z,-0.270271,-0.909784,-0.049478,2025-03-14T02:18:47Z,-0.055249,0.521924,-0.078196,2025-03-14T02:18:47Z
67,253.521216,0.692519,7.258798,44.941716,280.931216,271.15921,2.573389,3,-93.173586,9.909325,2025-03-14T02:18:48Z,-0.287363,-0.969557,-0.090381,2025-03-14T02:18:48Z,-0.129779,-0.097391,-0.26688,2025-03-14T02:18:48Z
68,253.295592,0.674233,7.257763,44.941719,280.705592,271.15921,2.503009,3,-93.173709,9.747614,2025-03-14T02:18:49Z,-0.346825,-0.933415,-0.060551,2025-03-14T02:18:49Z,-0.722255,0.271191,-0.147488,2025-03-14T02:18:49Z
69,253.159672,0.673948,7.25795,44.941722,280.569672,269.529877,2.920415,3,-93.173818,9.008987,2025-03-14T02:18:50Z,-0.384086,-0.937358,-0.053554,2025-03-14T02:18:50Z,-0.979582,0.200485,-0.135439,2025-03-14T02:18:50Z
70,252.942346,0.696992,7.256231,44.941724,280.352346,268.270508,2.551944,3,-93.173918,8.151778,2025-03-14T02:18:51Z,-0.375208,-0.924548,-0.056115,2025-03-14T02:18:51Z,-0.920952,0.336468,-0.177269,2025-03-14T02:18:51Z
71,252.443207,0.708959,8.203372,44.941725,279.853207,268.270508,2.425116,3,-93.173998,6.966416,2025-03-14T02:18:52Z,-0.421306,-0.916552,-0.063884,2025-03-14T02:18:52Z,-1.257116,0.371454,-0.079368,2025-03-14T02:18:52Z
72,252.662497,0.687288,9.220847,44.941716,280.072497,261.262665,3.178792,3,-93.174073,6.030212,2025-03-14T02:18:53Z,-0.419518,-0.916509,-0.070864,2025-03-14T02:18:53Z,-1.127645,0.337569,-0.152214,2025-03-14T02:18:53Z
73,252.981248,0.879508,13.155902,44.94171,280.391248,261.262665,3.163965,3,-93.17414,5.418298,2025-03-14T02:18:54Z,-0.417446,-0.91354900000000006,-0.069176,2025-03-14T02:18:54Z,-0.960342,0.321641,-0.192599,2025-03-14T02:18:54Z
74,NA,NA,NA,NA,NA,NA,NA,NA,NA,NA,NA,-0.398337,-0.92993,-0.126965,2025-03-14T02:18:55Z,-0.703664,0.123829,-0.624506,2025-03-14T02:18:55Z
