seconds_elapsed,location_altitude,location_speedAccuracy,location_bearingAccuracy,location_latitude,location_altitudeAboveMeanSeaLevel,location_bearing,location_horizontalAccuracy,location_verticalAccuracy,location_longitude,location_speed,location_local_time,accelerometerUncalibrated_z,accelerometerUncalibrated_y,accelerometerUncalibrated_x,accelerometerUncalibrated_local_time,accelerometer_z,accelerometer_y,accelerometer_x,accelerometer_local_time
0,250.754527,0.656977,10.314675,44.94135,278.164527,38.682522,2.226085,3,-93.177107,5.161236,2025-03-14T02:08:10Z,-0.199321,-0.986557,-0.172448,2025-03-14T02:08:10Z,0.46951,-0.174069,-1.507568,2025-03-14T02:08:10Z
1,250.838478,0.679658,10.74496,44.941365,278.248478,62.078145,2.368829,3,-93.177041,5.128387,2025-03-14T02:08:11Z,-0.119141,-1.0021,-0.08306,2025-03-14T02:08:11Z,1.10621,-0.284863,-0.614624,2025-03-14T02:08:11Z
2,251.025318,0.675235,9.533303,44.941371,278.435318,77.956123,2.316139,3,-93.176964,5.736588,2025-03-14T02:08:12Z,-0.114094,-0.993094,-0.098035,2025-03-14T02:08:12Z,1.035202,-0.194817,-0.383002,2025-03-14T02:08:12Z
3,250.9681,0.665724,7.589068,44.941373,278.378099,87.028933,2.267177,3,-93.176862,7.107597,2025-03-14T02:08:13Z,-0.128481,-0.998601,-0.046911,2025-03-14T02:08:13Z,0.73537,-0.218464,0.215103,2025-03-14T02:08:13Z
4,250.670448,0.698275,7.258734,44.941388,278.080448,84.558888,2.203728,3,-93.176745,8.548116,2025-03-14T02:08:14Z,-0.139919,-0.992963,-0.019791,2025-03-14T02:08:14Z,0.525316,-0.139573,0.554798,2025-03-14T02:08:14Z
5,250.508118,0.680841,7.258007,44.941382,277.918118,88.657603,2.296129,3,-93.17663,9.066493,2025-03-14T02:08:15Z,-0.153072,-1.000126,-0.014252,2025-03-14T02:08:15Z,0.377385,-0.206722,0.536534,2025-03-14T02:08:15Z
6,250.849268,0.665167,7.257605,44.941384,278.259268,88.909883,2.182363,3,-93.176491,10.244902,2025-03-14T02:08:16Z,-0.168519,-0.982537,-0.010338,2025-03-14T02:08:16Z,0.181135,-0.026631,0.453209,2025-03-14T02:08:16Z
7,250.979753,0.658546,7.257839,44.941382,278.389753,90.167843,2.108526,3,-93.176357,10.481109,2025-03-14T02:08:17Z,-0.194407,-0.980288,-0.017246,2025-03-14T02:08:17Z,-0.07624,0.018037,0.33927,2025-03-14T02:08:17Z
8,251.011876,0.66251,7.258495,44.941381,278.421875,90.571807,2.059928,3,-93.176215,10.866155,2025-03-14T02:08:18Z,-0.195777,-0.976164,0.00235,2025-03-14T02:08:18Z,-0.08895,0.049535,0.439939,2025-03-14T02:08:18Z
9,250.929159,0.66462,7.258972,44.941379,278.339159,90.856269,2.032539,3,-93.176066,11.414542,2025-03-14T02:08:19Z,-0.199893,-0.981804,0.007089,2025-03-14T02:08:19Z,-0.159318,0.008088,0.42366,2025-03-14T02:08:19Z
10,251.482392,0.677356,7.257121,44.941378,278.892392,90.368741,2.017308,3,-93.17591,11.955334,2025-03-14T02:08:20Z,-0.214681,-0.971487,0.009345,2025-03-14T02:08:20Z,-0.288669,0.105742,0.361571,2025-03-14T02:08:20Z
11,251.571624,0.664885,7.258351,44.941379,278.981624,89.817698,2.009135,3,-93.175761,11.911613,2025-03-14T02:08:21Z,-0.234632,-0.976034,0.003275,2025-03-14T02:08:21Z,-0.455455,0.056891,0.300006,2025-03-14T02:08:21Z
12,251.880416,0.672363,7.257568,44.941375,279.290416,90.991498000000007,2.492573,3,-93.175606,12.05755,2025-03-14T02:08:22Z,-0.247702,-0.964992,0.005998,2025-03-14T02:08:22Z,-0.582502,0.161932,0.267921,2025-03-14T02:08:22Z
13,251.798636,0.670763,7.258852,44.941373,279.208635,91.053879,2.25169,3,-93.17544,12.53279,2025-03-14T02:08:23Z,-0.251751,-0.959141,7.4e-5,2025-03-14T02:08:23Z,-0.580651,0.218965,0.148684,2025-03-14T02:08:23Z
14,252.205586,0.670472,7.257792,44.941372,279.615586,90.58683,2.129762,3,-93.175286,12.326905,2025-03-14T02:08:24Z,-0.261477,-0.966641,-0.003425,2025-03-14T02:08:24Z,-0.625142,0.131778,0.145955,2025-03-14T02:08:24Z
15,251.972636,0.672388,7.258961,44.941373,279.382636,89.97445,2.71059,3,-93.175131,12.18298,2025-03-14T02:08:25Z,-0.264917,-0.961401,-0.00181,2025-03-14T02:08:25Z,-0.652634,0.180526,0.197811,2025-03-14T02:08:25Z
16,252.234341,0.666415,7.258376,44.941377,279.644341,88.889345,2.608692,3,-93.174973,12.303281,2025-03-14T02:08:26Z,-0.271418,-0.960201,0.020023,2025-03-14T02:08:26Z,-0.688824,0.191113,0.381066,2025-03-14T02:08:26Z
17,252.869582,0.673276,7.255704,44.941379,280.279582,88.079428,2.442861,3,-93.174826,11.827773,2025-03-14T02:08:27Z,-0.280967,-0.958131,0.061284,2025-03-14T02:08:27Z,-0.699543,0.187071,0.745232,2025-03-14T02:08:27Z
18,252.747039,0.689084,7.258506,44.941391,280.157039,85.11969,2.232132,3,-93.174673,11.977141,2025-03-14T02:08:28Z,-0.276429,-0.953875,0.064912,2025-03-14T02:08:28Z,-0.645326,0.231601,0.900518,2025-03-14T02:08:28Z
19,252.179117,0.855015,7.258518,44.941414,279.589117,80.03344,3.045137,3,-93.174543,11.254657,2025-03-14T02:08:29Z,-0.266908,-0.9706,0.043691,2025-03-14T02:08:29Z,-0.555109,0.069247,0.77183,2025-03-14T02:08:29Z
20,252.095363,0.722273,7.258741,44.941442,279.505363,77.048306,2.949659,3,-93.174389,11.68972,2025-03-14T02:08:30Z,-0.251392,-0.976192,-0.013297,2025-03-14T02:08:30Z,-0.397367,8.86e-4,0.196879,2025-03-14T02:08:30Z
21,252.961196,0.699592,7.254514,44.941467,280.371196,76.263524,2.50277,3,-93.17425,11.354798,2025-03-14T02:08:31Z,-0.208629,-0.962136,-0.053602,2025-03-14T02:08:31Z,0.088392,0.133273,-0.537608,2025-03-14T02:08:31Z
22,253.031365,0.658683,7.258011,44.941485,280.441365,79.278263,2.269529,3,-93.174103,11.620066,2025-03-14T02:08:32Z,-0.219446,-0.980875,-0.053859,2025-03-14T02:08:32Z,0.243486,-0.113096,-0.878786,2025-03-14T02:08:32Z
23,253.151565,0.651966,7.258211,44.941496,280.561565,83.177528,2.142804,3,-93.173953,11.749743,2025-03-14T02:08:33Z,-0.214421,-0.979138,-0.035649,2025-03-14T02:08:33Z,0.245816,-0.086822,-0.732237,2025-03-14T02:08:33Z
24,253.400665,0.661864,7.25756,44.941498,280.810665,86.985491,2.07557,3,-93.173801,11.933829,2025-03-14T02:08:34Z,-0.221784,-0.973449,-0.007845,2025-03-14T02:08:34Z,0.188318,-0.036665,-0.405575,2025-03-14T02:08:34Z
25,253.513707,0.662445,7.2578,44.941499,280.923706,88.795245,2.394895,3,-93.173643,12.289336,2025-03-14T02:08:35Z,-0.234258,-0.968023,0.021265,2025-03-14T02:08:35Z,0.075809,0.015362,-0.150273,2025-03-14T02:08:35Z
26,253.53198,0.66784,7.258855,44.941495,280.94198,90.220874,2.330707,3,-93.173488,12.228976,2025-03-14T02:08:36Z,-0.222989,-0.967621,0.03558,2025-03-14T02:08:36Z,0.164501,0.026481,0.054181,2025-03-14T02:08:36Z
27,253.685652,0.65547,7.258538,44.941496,281.095652,90.261208,2.169463,3,-93.173324,12.681334,2025-03-14T02:08:38Z,-0.232835,-0.967308,0.045148,2025-03-14T02:08:37Z,0.124255,0.010159,0.063921,2025-03-14T02:08:37Z
28,253.70404,0.666652,7.258404,44.941494,281.11404,90.261208,2.085107,3,-93.173151,13.347828,2025-03-14T02:08:38Z,-0.236647,-0.972795,0.034571,2025-03-14T02:08:38Z,0.052654,-0.02432,0.069986,2025-03-14T02:08:38Z
29,253.440775,0.693553,7.258868,44.941493,280.850775,90.261208,2.251343,3,-93.172993,12.985873,2025-03-14T02:08:39Z,-0.23595,-0.961285,0.02776,2025-03-14T02:08:39Z,0.074898,0.077086,0.081305,2025-03-14T02:08:39Z
30,254.087521,0.666612,7.258293,44.941495,281.497521,90.261208,2.122921,3,-93.172818,13.389822,2025-03-14T02:08:40Z,-0.243527,-0.969706,0.02916,2025-03-14T02:08:40Z,-0.019534,0.010905,0.060609,2025-03-14T02:08:40Z
31,254.343934,0.651925,7.257877,44.941493,281.753934,90.261208,2.14046,3,-93.172647,13.45714,2025-03-14T02:08:41Z,-0.254104,-0.969821,0.033593,2025-03-14T02:08:41Z,-0.090006,-0.011425,0.053298,2025-03-14T02:08:41Z
32,254.276051,0.65293,7.258852,44.941493,281.686051,90.261208,2.092386,3,-93.172476,13.465815,2025-03-14T02:08:42Z,-0.257069,-0.963846,0.032694,2025-03-14T02:08:42Z,-0.142045,0.04602,0.068525,2025-03-14T02:08:42Z
33,254.438641,0.672846,7.258855,44.941491,281.848641,90.261208,2.729902,3,-93.172305,13.398222,2025-03-14T02:08:43Z,-0.260259,-0.958684,0.023114,2025-03-14T02:08:43Z,-0.151922,0.113068,-4.5e-4,2025-03-14T02:08:43Z
34,254.718319,0.666277,7.258179,44.941494,282.128319,90.274689,2.365567,3,-93.172127,13.736845,2025-03-14T02:08:44Z,-0.260892,-0.967819,0.030414,2025-03-14T02:08:44Z,-0.152665,0.032038,0.025279,2025-03-14T02:08:44Z
35,254.765995,0.662091,7.258874,44.941493,282.175995,90.274689,2.17785,3,-93.171955,13.665799,2025-03-14T02:08:45Z,-0.256953,-0.962242,0.030554,2025-03-14T02:08:45Z,-0.109401,0.048114,0.006725,2025-03-14T02:08:45Z
36,254.915413,0.656892,7.25889,44.941493,282.325413,90.274689,2.359094,3,-93.171785,13.553579,2025-03-14T02:08:46Z,-0.247887,-0.957736,0.029456,2025-03-14T02:08:46Z,-0.021167,0.104546,0.01557,2025-03-14T02:08:46Z
37,255.220821,0.799026,7.258448,44.941492,282.63082000000003,90.274689,2.414136,3,-93.171615,13.493618,2025-03-14T02:08:47Z,-0.255625,-0.970642,0.025183,2025-03-14T02:08:47Z,-0.083317,-0.007696,-0.02135,2025-03-14T02:08:47Z
38,254.695341,0.678509,7.258478,44.941494,282.10534,90.274689,2.201415,3,-93.171443,13.487275,2025-03-14T02:08:48Z,-0.255007,-0.962741,0.0221,2025-03-14T02:08:48Z,-0.069126,0.049404000000000003,-0.024193,2025-03-14T02:08:48Z
39,255.128623,0.676175,7.258778,44.941493,282.538623,90.274689,2.499239,3,-93.171262,13.930002,2025-03-14T02:08:49Z,-0.256586,-0.965009,0.023549,2025-03-14T02:08:49Z,-0.077424,0.037343,-0.024952,2025-03-14T02:08:49Z
40,255.213833,0.664366,7.258799,44.941493,282.623833,90.274689,2.239954,3,-93.17109,13.757713,2025-03-14T02:08:50Z,-0.259387,-0.963926,0.022983,2025-03-14T02:08:50Z,-0.110629,0.050286,-0.021634,2025-03-14T02:08:50Z
41,255.385681,0.659501,7.258484,44.941493,282.795681,90.435829,2.214314,3,-93.170917,13.697422,2025-03-14T02:08:51Z,-0.260527,-0.961991,0.028918,2025-03-14T02:08:51Z,-0.103787,0.052071,0.001006,2025-03-14T02:08:51Z
42,255.719028,0.656123,7.25784,44.941491,283.129027,90.435829,2.103506,3,-93.170743,13.616197,2025-03-14T02:08:52Z,-0.275666,-0.954171,0.023787,2025-03-14T02:08:52Z,-0.197747,0.11694,0.021323,2025-03-14T02:08:52Z
43,255.432956,0.654563,7.258971,44.941492,282.842956,90.205856,2.050001,3,-93.170571,13.522398,2025-03-14T02:08:53Z,-0.278605,-0.962342,0.026998,2025-03-14T02:08:53Z,-0.291834,0.060036,0.040632,2025-03-14T02:08:53Z
44,255.661699,0.660796,7.258733,44.941493,283.071699,90.205856,2.047607,3,-93.1704,13.40605,2025-03-14T02:08:54Z,-0.252083,-0.950063,0.003477,2025-03-14T02:08:54Z,0.046426,0.166747,-0.127109,2025-03-14T02:08:54Z
45,255.998459,0.657427,7.257884,44.941491,283.408459,90.257629,2.223992,3,-93.170234,13.267736,2025-03-14T02:08:55Z,-0.269547,-0.970477,0.032893,2025-03-14T02:08:55Z,-0.10664,-0.05471,-0.00644,2025-03-14T02:08:55Z
46,256.282215,0.664502,7.257335,44.941493,283.692215,90.257629,2.110381,3,-93.170064,13.355212999999999,2025-03-14T02:08:56Z,-0.260532,-0.959015,0.036161,2025-03-14T02:08:56Z,0.00672,0.048152,0.007554,2025-03-14T02:08:56Z
47,256.042513,0.655184,7.258962,44.941491,283.452513,90.257629,2.054138,3,-93.169894,13.341432,2025-03-14T02:08:57Z,-0.26525,-0.969242,0.037987,2025-03-14T02:08:57Z,-0.081409,-0.017396,0.009706,2025-03-14T02:08:57Z
48,255.979862,0.66384,7.258873,44.941492,283.389862,90.257629,2.204215,3,-93.169731,13.072788,2025-03-14T02:08:58Z,-0.26695,-0.967298,0.032794,2025-03-14T02:08:58Z,-0.081398,-0.014895,-0.019943,2025-03-14T02:08:58Z
49,256.272147,0.662187,7.258779,44.941491,283.682147,90.257629,2.310024,3,-93.169562,13.137897,2025-03-14T02:08:59Z,-0.251495,-0.950389,0.01445,2025-03-14T02:08:59Z,0.022187,0.130957,-0.058385,2025-03-14T02:08:59Z
50,256.44774,0.664886,7.258711,44.941491,283.85774,90.331268,2.153148,3,-93.169393,13.26916,2025-03-14T02:09:00Z,-0.260635,-0.972537,0.029996,2025-03-14T02:09:00Z,-0.019763,-0.050774,0.009631,2025-03-14T02:09:00Z
51,256.63491,0.662945,7.2583,44.941491,284.044909,90.331268,2.076067,3,-93.169228,13.109784,2025-03-14T02:09:01Z,-0.25239,-0.969029,0.021951,2025-03-14T02:09:01Z,0.02255,-0.009754,-0.072588,2025-03-14T02:09:01Z
52,256.850442,0.662589,7.257485,44.941491,284.260442,90.331268,2.079496,3,-93.169062,13.141274,2025-03-14T02:09:02Z,-0.252673,-0.978506,0.033422,2025-03-14T02:09:02Z,0.046307,-0.136267,0.018972,2025-03-14T02:09:02Z
53,257.093705,0.661793,7.257214,44.94149,284.503705,90.316559,2.039379,3,-93.168895,13.153613,2025-03-14T02:09:03Z,-0.241986,-0.971436,0.027554,2025-03-14T02:09:03Z,0.037088,-0.030224,0.008741,2025-03-14T02:09:03Z
54,257.438711,0.658224,7.256329,44.94149,284.848711,90.316559,2.125225,3,-93.168728,13.160976,2025-03-14T02:09:04Z,-0.235228,-0.975278,0.023054,2025-03-14T02:09:04Z,0.009534,-0.032735,-0.035557,2025-03-14T02:09:04Z
55,257.86828,0.66098,7.255535,44.941489,285.27828,90.316559,2.062164,3,-93.168563,13.13815,2025-03-14T02:09:05Z,-0.236644,-0.970897,0.027501,2025-03-14T02:09:05Z,0.014394,-1.67e-4,-0.036824,2025-03-14T02:09:05Z
56,258.233965,0.661568,7.255303,44.941491,285.643965,90.316559,2.031077,3,-93.168398,13.099971,2025-03-14T02:09:06Z,-0.245789,-0.965998,0.029333,2025-03-14T02:09:06Z,-0.068159,0.044437,-0.058423,2025-03-14T02:09:06Z
57,258.588852,0.667008,7.255772,44.941484,285.998851,90.316559,2.302527,3,-93.168235,12.909936,2025-03-14T02:09:07Z,-0.257822,-0.96307,0.023958,2025-03-14T02:09:07Z,-0.177744,0.064093,-0.164385,2025-03-14T02:09:07Z
58,259.029749,0.662711,7.254737,44.941484,286.439749,90.316559,2.200358,3,-93.168073,12.780314,2025-03-14T02:09:08Z,-0.263475,-0.958346,0.033045,2025-03-14T02:09:08Z,-0.238744,0.116207,-0.109095,2025-03-14T02:09:08Z
59,259.435141,0.665594,7.254487,44.941477,286.84514,90.316559,2.101714,3,-93.167918,12.411457,2025-03-14T02:09:09Z,-0.284095,-0.957214,0.027847,2025-03-14T02:09:09Z,-0.412312,0.118657,-0.123257,2025-03-14T02:09:09Z
60,259.521252,0.659586,7.256662,44.941476,286.931252,90.316559,2.057056,3,-93.167774,11.715197,2025-03-14T02:09:10Z,-0.309919,-0.94805,0.012636,2025-03-14T02:09:10Z,-0.641098,0.203218,-0.265749,2025-03-14T02:09:10Z
61,259.904492,0.665927,7.256065,44.941475,287.314492,90.260902,2.030417,3,-93.167636,11.048064,2025-03-14T02:09:11Z,-0.363138,-0.935826,0.006043,2025-03-14T02:09:11Z,-1.08408,0.298349,-0.347287,2025-03-14T02:09:11Z
62,260.421355,0.680081,7.244815,44.941474,287.831355,90.260902,2.016727,3,-93.167511,10.095211,2025-03-14T02:09:12Z,-0.404256,-0.925376,0.001862,2025-03-14T02:09:12Z,-1.526173,0.425404,-0.365752,2025-03-14T02:09:12Z
63,259.690257,0.829979,8.086527,44.941484,287.100257,90.260902,2.6173,3,-93.167416,8.300918,2025-03-14T02:09:13Z,-0.415735,-0.918743,0.002626,2025-03-14T02:09:13Z,-1.481781,0.422288,-0.40391,2025-03-14T02:09:13Z
64,259.143851,0.695657,8.994858,44.941471,286.553851,90.260902,2.394167,3,-93.167356,6.122929,2025-03-14T02:09:14Z,-0.395956,-0.930107,-0.002349,2025-03-14T02:09:14Z,-1.27498,0.325806,-0.397428,2025-03-14T02:09:14Z
65,260.326131,0.676251,11.514983,44.941473,287.736131,90.260902,2.523417,3,-93.167303,4.657545,2025-03-14T02:09:15Z,-0.406716,-0.922774,-0.009655,2025-03-14T02:09:15Z,-1.201504,0.360872,-0.390269,2025-03-14T02:09:15Z
