seconds_elapsed,location_altitude,location_speedAccuracy,location_bearingAccuracy,location_latitude,location_altitudeAboveMeanSeaLevel,location_bearing,location_horizontalAccuracy,location_verticalAccuracy,location_longitude,location_speed,location_local_time,accelerometerUncalibrated_z,accelerometerUncalibrated_y,accelerometerUncalibrated_x,accelerometerUncalibrated_local_time,accelerometer_z,accelerometer_y,accelerometer_x,accelerometer_local_time
0.000000,259.566789,0.557550,69.762669,44.941237,286.976789,125.181771,8.293983,3.000000,-93.167196,2.178923,2025-03-06T18:47:29.366-06:00,-0.161744,-0.995784,-0.119587,2025-03-06T18:47:29.354-06:00,0.708736,-0.237451,-1.493014,2025-03-06T18:47:29.366-06:00
1.000000,259.208374,1.150000,20.143225,44.941161,286.618374,148.359375,3.535534,3.000000,-93.167107,3.980000,2025-03-06T18:47:30.999-06:00,-0.126522,-1.001000,-0.057276,2025-03-06T18:47:30.348-06:00,0.791753,-0.234806,-0.937316,2025-03-06T18:47:30.341-06:00
2.000000,258.931763,1.000000,12.630493,44.941118,286.341763,181.406250,3.535534,3.000000,-93.167102,3.980000,2025-03-06T18:47:31.999-06:00,-0.136173,-0.992625,0.062260,2025-03-06T18:47:31.343-06:00,0.651491,-0.157345,0.203219,2025-03-06T18:47:31.346-06:00
3.000000,258.618225,0.180000,1.719317,44.941065,286.028225,181.253586,3.535534,3.000000,-93.167109,5.160000,2025-03-06T18:47:32.999-06:00,-0.159008,-0.990995,0.075056,2025-03-06T18:47:32.348-06:00,0.340952,-0.093924,0.272551,2025-03-06T18:47:32.340-06:00
4.000000,258.672852,0.130000,1.135955,44.941003,286.082851,180.861176,3.535534,3.000000,-93.167112,7.470000,2025-03-06T18:47:33.999-06:00,-0.196396,-0.976959,0.073176,2025-03-06T18:47:33.342-06:00,-0.052205,0.030053,0.267369,2025-03-06T18:47:33.345-06:00
5.000000,258.849792,0.370000,3.052670,44.940938,286.259792,180.861176,3.535534,3.000000,-93.167113,7.890000,2025-03-06T18:47:34.999-06:00,-0.233803,-0.967898,0.055136,2025-03-06T18:47:34.347-06:00,-0.455435,0.136935,0.114821,2025-03-06T18:47:34.340-06:00
6.000000,258.239380,1.890000,16.408078,44.940873,285.649380,180.861176,3.535534,3.000000,-93.167113,7.470000,2025-03-06T18:47:36.000-06:00,-0.259280,-0.967304,0.043874,2025-03-06T18:47:35.342-06:00,-0.665795,0.149209,0.046871,2025-03-06T18:47:35.344-06:00
7.000000,258.891724,2.020000,17.516626,44.940802,286.301723,180.112579,3.535534,3.000000,-93.167118,7.430000,2025-03-06T18:47:37.000-06:00,-0.256740,-0.956222,0.037141,2025-03-06T18:47:36.346-06:00,-0.671641,0.230066,-0.026764,2025-03-06T18:47:36.339-06:00
8.000000,258.887451,1.210000,8.015205,44.940740,286.297451,180.112579,3.535534,3.000000,-93.167124,6.880000,2025-03-06T18:47:38.000-06:00,-0.266122,-0.954872,0.038289,2025-03-06T18:47:37.341-06:00,-0.708735,0.241906,0.000047,2025-03-06T18:47:37.344-06:00
9.000000,258.867126,0.410000,4.282718,44.940684,286.277126,180.112579,3.535534,3.000000,-93.167131,6.880000,2025-03-06T18:47:39.000-06:00,-0.255420,-0.964050,0.028729,2025-03-06T18:47:38.346-06:00,-0.569326,0.160373,-0.038186,2025-03-06T18:47:38.348-06:00
10.000000,259.206543,0.150000,1.408443,44.940619,286.616543,180.112579,3.535534,3.000000,-93.167128,6.860000,2025-03-06T18:47:40.000-06:00,-0.280844,-0.965290,0.017721,2025-03-06T18:47:39.340-06:00,-0.808459,0.134207,-0.111704,2025-03-06T18:47:39.343-06:00
11.000000,259.204224,0.110000,1.266143,44.940564,286.614223,180.112579,3.535534,3.000000,-93.167126,6.280000,2025-03-06T18:47:41.000-06:00,-0.322096,-0.942859,0.018264,2025-03-06T18:47:40.345-06:00,-1.122932,0.341682,-0.126023,2025-03-06T18:47:40.348-06:00
12.000000,259.140259,0.550000,7.480811,44.940517,286.550259,180.112579,3.535534,3.000000,-93.167123,4.820000,2025-03-06T18:47:42.000-06:00,-0.338041,-0.944701,0.021688,2025-03-06T18:47:41.340-06:00,-1.182677,0.302572,-0.137366,2025-03-06T18:47:41.342-06:00
13.000000,259.140261,0.550000,9.245987,44.940474,286.550261,180.112579,4.748652,4.029364,-93.167123,4.820000,2025-03-06T18:47:43.000-06:00,-0.327446,-0.951235,0.022433,2025-03-06T18:47:42.344-06:00,-0.985374,0.212577,-0.102985,2025-03-06T18:47:42.347-06:00
14.000000,259.278749,0.308016,7.258975,44.940438,286.688749,180.112579,4.748652,4.029364,-93.167120,4.820000,2025-03-06T18:47:44.000-06:00,-0.315370,-0.945877,0.030294,2025-03-06T18:47:43.339-06:00,-0.913369,0.282626,-0.104092,2025-03-06T18:47:43.342-06:00
15.000000,259.225465,0.308016,7.258975,44.940416,286.635465,180.112579,4.748652,4.029364,-93.167119,3.840000,2025-03-06T18:47:45.000-06:00,-0.295907,-0.951546,0.041512,2025-03-06T18:47:44.344-06:00,-0.628053,0.197143,-0.025981,2025-03-06T18:47:44.346-06:00
16.000000,259.175538,0.308016,8.636000,44.940401,286.585538,180.112579,4.748652,4.029364,-93.167112,2.890000,2025-03-06T18:47:46.000-06:00,-0.263928,-0.962577,0.039841,2025-03-06T18:47:45.348-06:00,-0.249201,0.075720,-0.014608,2025-03-06T18:47:45.341-06:00
17.000000,258.674683,0.308016,14.595346,44.940397,286.084683,180.112579,4.748652,4.029364,-93.167113,1.710000,2025-03-06T18:47:47.000-06:00,-0.246842,-0.966584,0.046472,2025-03-06T18:47:46.343-06:00,-0.049635,0.027737,0.046615,2025-03-06T18:47:46.346-06:00
18.000000,258.622315,0.308016,14.595346,44.940381,286.032315,180.112579,4.748652,4.029364,-93.167111,1.710000,2025-03-06T18:47:48.000-06:00,-0.245482,-0.966353,0.045803,2025-03-06T18:47:47.348-06:00,0.001212,0.022458,0.051400,2025-03-06T18:47:47.340-06:00
19.000000,258.476441,0.740000,35.064951,44.940370,285.886441,180.112579,4.748652,4.029364,-93.167126,1.710000,2025-03-06T18:47:49.000-06:00,-0.242483,-0.966828,0.046262,2025-03-06T18:47:48.342-06:00,0.048887,0.012114,0.059648,2025-03-06T18:47:48.345-06:00
20.000000,257.955078,0.320000,15.163221,44.940360,285.365078,180.112579,4.748652,4.029364,-93.167125,1.710000,2025-03-06T18:47:50.000-06:00,-0.243293,-0.966854,0.045801,2025-03-06T18:47:49.347-06:00,0.043482,0.011632,0.052853,2025-03-06T18:47:49.340-06:00
21.000000,257.767884,0.308016,16.750363,44.940350,285.177883,179.591095,4.748652,4.029364,-93.167124,1.490000,2025-03-06T18:47:51.000-06:00,-0.248209,-0.965441,0.043322,2025-03-06T18:47:50.342-06:00,0.008902,0.018923,0.043512,2025-03-06T18:47:50.344-06:00
22.000000,257.821350,0.308016,17.212442,44.940335,285.231350,179.591095,4.748652,4.029364,-93.167121,1.450000,2025-03-06T18:47:52.000-06:00,-0.277884,-0.958747,0.033782,2025-03-06T18:47:51.346-06:00,-0.259875,0.084976,-0.034803,2025-03-06T18:47:51.339-06:00
23.000000,257.881592,0.308016,17.212442,44.940323,285.291592,179.591095,4.748652,4.029364,-93.167119,1.450000,2025-03-06T18:47:53.000-06:00,-0.269468,-0.960887,0.035688,2025-03-06T18:47:52.341-06:00,-0.172142,0.060833,-0.006172,2025-03-06T18:47:52.344-06:00
24.000000,257.743775,0.690000,49.043547,44.940317,285.153774,179.591095,4.748652,4.029364,-93.167119,1.140000,2025-03-06T18:47:54.000-06:00,-0.262159,-0.962211,0.034037,2025-03-06T18:47:53.346-06:00,-0.101380,0.047398,-0.010329,2025-03-06T18:47:53.348-06:00
25.000000,257.849243,0.720000,69.452978,44.940313,285.259243,179.591095,4.748652,4.029364,-93.167119,0.840000,2025-03-06T18:47:55.000-06:00,-0.261114,-0.963257,0.033730,2025-03-06T18:47:54.340-06:00,-0.086886,0.037677,-0.007318,2025-03-06T18:47:54.343-06:00
26.000000,258.013367,0.804985,180.000000,44.940317,285.423367,179.591095,4.748652,4.029364,-93.167118,0.240000,2025-03-06T18:47:55.999-06:00,-0.233343,-0.969628,0.041370,2025-03-06T18:47:55.345-06:00,0.186578,-0.024689,0.060540,2025-03-06T18:47:55.348-06:00
27.000000,258.021729,0.804985,180.000000,44.940317,285.431728,179.591095,4.748652,4.029364,-93.167118,0.000000,2025-03-06T18:47:56.999-06:00,-0.233367,-0.969422,0.039911,2025-03-06T18:47:56.340-06:00,0.185738,-0.024193,0.049330,2025-03-06T18:47:56.342-06:00
28.000000,258.082520,0.804985,180.000000,44.940317,285.492519,179.591095,4.748652,4.029364,-93.167118,0.000000,2025-03-06T18:47:57.999-06:00,-0.233373,-0.969882,0.040520,2025-03-06T18:47:57.344-06:00,0.181712,-0.026877,0.050735,2025-03-06T18:47:57.347-06:00
29.000000,258.128601,0.804985,180.000000,44.940317,285.538601,179.591095,4.748652,4.029364,-93.167118,0.000000,2025-03-06T18:47:58.999-06:00,-0.219289,-0.973292,0.043640,2025-03-06T18:47:58.339-06:00,0.309058,-0.057619,0.080375,2025-03-06T18:47:58.342-06:00
30.000000,258.289246,0.804985,180.000000,44.940318,285.699246,179.591095,4.748652,4.029364,-93.167118,0.000000,2025-03-06T18:47:59.999-06:00,-0.200802,-0.977120,0.048209,2025-03-06T18:47:59.344-06:00,0.468502,-0.090712,0.113909,2025-03-06T18:47:59.346-06:00
31.000000,258.337219,0.804985,180.000000,44.940317,285.747219,179.591095,4.748652,4.029364,-93.167117,0.150000,2025-03-06T18:48:00.999-06:00,-0.149607,-0.990566,0.058216,2025-03-06T18:48:00.348-06:00,0.910611,-0.205688,0.206852,2025-03-06T18:48:00.341-06:00
32.000000,258.631104,0.690000,98.087094,44.940307,286.041103,179.591095,4.748652,4.029364,-93.167116,0.570000,2025-03-06T18:48:01.999-06:00,-0.058197,-1.012980,0.073140,2025-03-06T18:48:01.343-06:00,1.669427,-0.395982,0.350965,2025-03-06T18:48:01.345-06:00
33.000000,263.421594,1.270905,68.632405,44.940239,290.831594,179.591095,2.088272,3.000000,-93.167058,1.500173,2025-03-06T18:48:02.999-06:00,-0.101392,-0.998662,0.060910,2025-03-06T18:48:02.348-06:00,1.175648,-0.236400,0.250902,2025-03-06T18:48:02.340-06:00
34.000000,263.385607,1.274232,33.499963,44.940198,290.795607,179.591095,2.016377,3.000000,-93.167060,3.081665,2025-03-06T18:48:03.999-06:00,-0.115733,-1.001825,0.047349,2025-03-06T18:48:03.342-06:00,0.923704,-0.242256,0.119272,2025-03-06T18:48:03.345-06:00
35.000000,263.542199,1.269964,23.315934,44.940148,290.952199,179.591095,2.484469,3.000000,-93.167061,4.413507,2025-03-06T18:48:04.999-06:00,-0.129440,-0.991702,0.053767,2025-03-06T18:48:04.347-06:00,0.655849,-0.112462,0.175957,2025-03-06T18:48:04.340-06:00
36.000000,263.553768,1.273199,19.389513,44.940091,290.963768,179.591095,2.539615,3.000000,-93.167064,5.320728,2025-03-06T18:48:05.999-06:00,-0.128593,-0.988861,0.036922,2025-03-06T18:48:05.342-06:00,0.627970,-0.064486,0.112438,2025-03-06T18:48:05.344-06:00
37.000000,263.598021,0.674314,7.678405,44.940008,291.008021,179.591095,2.380813,3.000000,-93.167067,7.108162,2025-03-06T18:48:06.999-06:00,-0.125020,-0.980008,0.032555,2025-03-06T18:48:06.346-06:00,0.703419,-0.016195,0.089751,2025-03-06T18:48:06.339-06:00
38.000000,263.223480,0.776577,10.034891,44.939960,290.633480,180.917877,2.440268,3.000000,-93.167083,6.268107,2025-03-06T18:48:07.999-06:00,-0.133651,-1.004279,0.061834,2025-03-06T18:48:07.341-06:00,0.616954,-0.246146,0.187170,2025-03-06T18:48:07.343-06:00
39.000000,263.063408,0.673330,7.258488,44.939851,290.473408,180.917877,2.613525,3.000000,-93.167082,9.006292,2025-03-06T18:48:08.999-06:00,-0.149773,-1.001707,0.082555,2025-03-06T18:48:08.346-06:00,0.339596,-0.206810,0.171726,2025-03-06T18:48:08.348-06:00
40.000000,262.953637,0.674075,7.258657,44.939756,290.363637,180.917877,2.387544,3.000000,-93.167088,10.214385,2025-03-06T18:48:09.999-06:00,-0.140581,-0.985710,0.060072,2025-03-06T18:48:09.340-06:00,0.315332,-0.020517,0.057230,2025-03-06T18:48:09.343-06:00
41.000000,263.200092,0.669186,7.258853,44.939650,290.610092,180.917877,2.478388,3.000000,-93.167088,11.456943,2025-03-06T18:48:10.999-06:00,-0.167165,-0.991694,0.054119,2025-03-06T18:48:10.345-06:00,0.014714,-0.066655,0.099454,2025-03-06T18:48:10.347-06:00
42.000000,263.661080,0.677345,7.257512,44.939542,291.071080,180.638364,2.640493,3.000000,-93.167090,12.014904,2025-03-06T18:48:11.999-06:00,-0.161887,-0.972988,0.028672,2025-03-06T18:48:11.340-06:00,0.030599,0.124295,-0.022260,2025-03-06T18:48:11.342-06:00
43.000000,263.922741,0.678007,7.257902,44.939428,291.332741,179.497970,2.399449,3.000000,-93.167087,12.525417,2025-03-06T18:48:12.999-06:00,-0.199518,-0.980446,0.025130,2025-03-06T18:48:12.344-06:00,-0.338722,0.054307,-0.049864,2025-03-06T18:48:12.347-06:00
44.000000,264.110086,0.675625,7.258034,44.939310,291.520086,180.074455,2.565854,3.000000,-93.167089,13.004961,2025-03-06T18:48:13.999-06:00,-0.203199,-0.990311,0.023613,2025-03-06T18:48:13.339-06:00,-0.365781,-0.047300,-0.051640,2025-03-06T18:48:13.341-06:00
45.000000,264.181677,0.675050,7.258046,44.939195,291.591677,179.848209,2.284889,3.000000,-93.167089,12.953285,2025-03-06T18:48:14.999-06:00,-0.219700,-0.963723,0.023705,2025-03-06T18:48:14.344-06:00,-0.496999,0.207765,-0.082411,2025-03-06T18:48:14.346-06:00
46.000000,263.956288,0.676406,7.258974,44.939080,291.366287,179.143257,2.797370,3.000000,-93.167087,12.900913,2025-03-06T18:48:15.999-06:00,-0.237094,-0.964984,0.003438,2025-03-06T18:48:15.348-06:00,-0.606287,0.194953,-0.214895,2025-03-06T18:48:15.341-06:00
47.000000,264.469469,0.681384,7.258095,44.938961,291.879469,179.574541,2.761897,3.000000,-93.167088,13.021709,2025-03-06T18:48:16.999-06:00,-0.219591,-0.966279,0.017786,2025-03-06T18:48:16.343-06:00,-0.382613,0.158305,-0.088356,2025-03-06T18:48:16.345-06:00
48.000000,264.211376,0.686471,7.258777,44.938849,291.621376,180.472351,2.383558,3.000000,-93.167095,12.633222,2025-03-06T18:48:17.999-06:00,-0.216197,-0.979206,0.021673,2025-03-06T18:48:17.348-06:00,-0.338331,0.040671,-0.068991,2025-03-06T18:48:17.340-06:00
49.000000,264.681472,0.681993,7.258372,44.938727,292.091472,180.472351,2.331695,3.000000,-93.167092,12.976157,2025-03-06T18:48:18.999-06:00,-0.218977,-0.975459,0.015953,2025-03-06T18:48:18.342-06:00,-0.341304,0.062727,-0.041543,2025-03-06T18:48:18.345-06:00
50.000000,264.675580,0.669654,7.258868,44.938607,292.085580,180.219040,2.618954,3.000000,-93.167098,13.222266,2025-03-06T18:48:19.999-06:00,-0.215793,-0.973303,0.009188,2025-03-06T18:48:19.347-06:00,-0.295305,0.097851,-0.095475,2025-03-06T18:48:19.339-06:00
51.000000,264.881122,0.668672,7.258571,44.938486,292.291122,180.219040,2.904105,3.000000,-93.167097,13.421865,2025-03-06T18:48:20.999-06:00,-0.214822,-0.974832,0.009054,2025-03-06T18:48:20.342-06:00,-0.250955,0.060425,-0.078926,2025-03-06T18:48:20.344-06:00
52.000000,265.020865,0.669619,7.258475,44.938364,292.430865,179.689194,2.443647,3.000000,-93.167101,13.607738,2025-03-06T18:48:21.999-06:00,-0.221887,-0.973970,0.011750,2025-03-06T18:48:21.346-06:00,-0.305504,0.081798,-0.077830,2025-03-06T18:48:21.339-06:00
53.000000,264.958430,0.673449,7.258957,44.938243,292.368430,180.000000,2.331792,3.000000,-93.167102,13.541165,2025-03-06T18:48:22.999-06:00,-0.236911,-0.967817,0.013322,2025-03-06T18:48:22.341-06:00,-0.417557,0.125463,-0.076440,2025-03-06T18:48:22.343-06:00
54.000000,265.050796,0.673586,7.258971,44.938119,292.460796,179.070343,2.160766,3.000000,-93.167106,13.623738,2025-03-06T18:48:23.999-06:00,-0.232525,-0.973111,0.009260,2025-03-06T18:48:23.346-06:00,-0.348654,0.072108,-0.126906,2025-03-06T18:48:23.348-06:00
55.000000,265.322423,0.673814,7.258574,44.937998,292.732423,180.672806,2.121858,3.000000,-93.167104,13.512543,2025-03-06T18:48:24.999-06:00,-0.242513,-0.958245,0.014992,2025-03-06T18:48:24.340-06:00,-0.392110,0.202430,-0.088291,2025-03-06T18:48:24.343-06:00
56.000000,265.218123,0.674695,7.258916,44.937880,292.628123,181.013885,2.059906,3.000000,-93.167105,13.331392,2025-03-06T18:48:25.999-06:00,-0.236936,-0.946066,0.000821,2025-03-06T18:48:25.345-06:00,-0.236909,0.304184,-0.155093,2025-03-06T18:48:25.347-06:00
57.000000,265.103407,0.669397,7.258973,44.937759,292.513407,181.013885,2.029487,3.000000,-93.167103,13.371135,2025-03-06T18:48:26.999-06:00,-0.253044,-0.966073,0.020595,2025-03-06T18:48:26.340-06:00,-0.263611,0.075928,-0.026395,2025-03-06T18:48:26.342-06:00
58.000000,264.897117,0.686898,7.258398,44.937640,292.307117,180.398468,2.014467,3.000000,-93.167109,13.273375,2025-03-06T18:48:27.999-06:00,-0.261946,-0.955456,0.012721,2025-03-06T18:48:27.344-06:00,-0.287558,0.157583,-0.079884,2025-03-06T18:48:27.347-06:00
59.000000,264.543077,0.672203,7.256935,44.937522,291.953076,180.398468,2.007165,3.000000,-93.167112,13.163612,2025-03-06T18:48:28.999-06:00,-0.263178,-0.959909,0.019094,2025-03-06T18:48:28.339-06:00,-0.291686,0.121754,-0.095192,2025-03-06T18:48:28.341-06:00
60.000000,263.533725,0.730749,7.247561,44.937394,290.943725,180.398468,2.049876,3.000000,-93.167104,13.732071,2025-03-06T18:48:29.999-06:00,-0.266617,-0.961567,0.027769,2025-03-06T18:48:29.344-06:00,-0.294673,0.098221,-0.075255,2025-03-06T18:48:29.346-06:00
61.000000,263.596816,0.711258,7.255669,44.937284,291.006815,180.000000,2.024965,3.000000,-93.167108,13.026537,2025-03-06T18:48:30.999-06:00,-0.260897,-0.968189,0.034600,2025-03-06T18:48:30.348-06:00,-0.198968,0.013563,-0.034549,2025-03-06T18:48:30.341-06:00
62.000000,263.771988,0.698606,7.258621,44.937167,291.181988,178.838943,3.541539,3.000000,-93.167115,12.925413,2025-03-06T18:48:31.999-06:00,-0.246748,-0.967287,0.018674,2025-03-06T18:48:31.343-06:00,-0.140035,0.061818,-0.053786,2025-03-06T18:48:31.345-06:00
63.000000,263.735717,0.693090,7.258588,44.937048,291.145717,178.838943,3.165977,3.000000,-93.167116,13.059200,2025-03-06T18:48:32.999-06:00,-0.243659,-0.966531,0.004474,2025-03-06T18:48:32.347-06:00,-0.067079,0.032827,-0.010514,2025-03-06T18:48:32.340-06:00
64.000000,263.555450,0.691545,7.257693,44.936929,290.965449,179.416763,2.612049,3.000000,-93.167112,13.129793,2025-03-06T18:48:33.999-06:00,-0.238593,-0.963094,0.013472,2025-03-06T18:48:33.342-06:00,0.014083,0.072367,0.008953,2025-03-06T18:48:33.345-06:00
65.000000,263.786557,0.685517,7.258828,44.936807,291.196557,179.416763,2.302563,3.000000,-93.167119,13.345555,2025-03-06T18:48:34.999-06:00,-0.244836,-0.974715,0.011119,2025-03-06T18:48:34.347-06:00,-0.080921,-0.028872,-0.004073,2025-03-06T18:48:34.339-06:00
66.000000,263.521643,0.702801,7.258031,44.936687,290.931643,180.224640,2.686226,3.000000,-93.167111,13.437713,2025-03-06T18:48:35.999-06:00,-0.246238,-0.967079,0.011835,2025-03-06T18:48:35.342-06:00,-0.097459,0.057502,-0.039052,2025-03-06T18:48:35.344-06:00
67.000000,263.709368,0.683452,7.258717,44.936562,291.119368,180.224640,3.037173,3.000000,-93.167127,13.568709,2025-03-06T18:48:36.999-06:00,-0.254743,-0.964408,0.000856,2025-03-06T18:48:36.346-06:00,-0.125210,0.042432,-0.127794,2025-03-06T18:48:36.339-06:00
68.000000,263.892029,0.669173,7.258972,44.936440,291.302029,180.000000,2.504082,3.000000,-93.167117,13.593389,2025-03-06T18:48:37.999-06:00,-0.251114,-0.967552,0.004377,2025-03-06T18:48:37.341-06:00,-0.112070,0.035658,-0.110023,2025-03-06T18:48:37.343-06:00
69.000000,263.578874,0.671655,7.258646,44.936324,290.988874,180.000000,2.249907,3.000000,-93.167125,13.241876,2025-03-06T18:48:38.999-06:00,-0.263954,-0.952859,0.020507,2025-03-06T18:48:38.345-06:00,-0.211697,0.164171,0.024717,2025-03-06T18:48:38.348-06:00
70.000000,263.135225,0.667601,7.257820,44.936208,290.545225,180.000000,2.189173,3.000000,-93.167130,13.096728,2025-03-06T18:48:39.999-06:00,-0.264023,-0.963321,0.017464,2025-03-06T18:48:39.340-06:00,-0.213342,0.067268,0.040681,2025-03-06T18:48:39.343-06:00
71.000000,262.676759,0.757835,7.255932,44.936110,290.086759,179.141035,2.353802,3.000000,-93.167123,11.707350,2025-03-06T18:48:40.999-06:00,-0.258576,-0.967685,-0.006570,2025-03-06T18:48:40.345-06:00,-0.164916,0.028658,-0.109007,2025-03-06T18:48:40.347-06:00
72.000000,262.430892,0.679220,7.257201,44.935975,289.840892,179.439652,2.187529,3.000000,-93.167122,13.120133,2025-03-06T18:48:41.999-06:00,-0.261829,-0.963939,-0.020845,2025-03-06T18:48:41.339-06:00,-0.204125,0.064521,-0.189798,2025-03-06T18:48:41.342-06:00
73.000000,262.437163,0.670950,7.258437,44.935858,289.847163,179.685854,2.094066,3.000000,-93.167124,13.195412,2025-03-06T18:48:42.999-06:00,-0.267748,-0.965667,-0.007096,2025-03-06T18:48:42.344-06:00,-0.217931,0.034080,-0.122849,2025-03-06T18:48:42.347-06:00
74.000000,262.512344,0.671434,7.258961,44.935746,289.922344,180.682667,2.131774,3.000000,-93.167129,12.779135,2025-03-06T18:48:43.999-06:00,-0.258569,-0.960937,0.016916,2025-03-06T18:48:43.339-06:00,-0.111107,0.082141,0.030590,2025-03-06T18:48:43.341-06:00
75.000000,262.346102,0.669862,7.258659,44.935637,289.756102,181.940722,2.067028,3.000000,-93.167135,12.371326,2025-03-06T18:48:44.999-06:00,-0.288786,-0.953691,0.002066,2025-03-06T18:48:44.343-06:00,-0.382740,0.137238,-0.066737,2025-03-06T18:48:44.346-06:00
76.000000,262.070853,0.671068,7.257637,44.935525,289.480853,180.110107,2.034361,3.000000,-93.167129,12.338376,2025-03-06T18:48:45.999-06:00,-0.320244,-0.949265,-0.001567,2025-03-06T18:48:45.348-06:00,-0.656537,0.182611,-0.134893,2025-03-06T18:48:45.341-06:00
77.000000,262.054879,0.669773,7.258655,44.935421,289.464879,180.110107,2.018012,3.000000,-93.167129,11.956585,2025-03-06T18:48:46.999-06:00,-0.322635,-0.950094,-0.001880,2025-03-06T18:48:46.343-06:00,-0.669127,0.173437,-0.125917,2025-03-06T18:48:46.345-06:00
78.000000,261.921246,0.665331,7.258853,44.935331,289.331246,180.110123,2.009756,3.000000,-93.167131,10.833123,2025-03-06T18:48:47.999-06:00,-0.302031,-0.949630,0.000224,2025-03-06T18:48:47.347-06:00,-0.393056,0.140496,-0.110495,2025-03-06T18:48:47.340-06:00
79.000000,261.967517,0.680476,7.258865,44.935242,289.377517,180.000000,2.326149,3.000000,-93.167126,10.030269,2025-03-06T18:48:48.999-06:00,-0.298261,-0.957647,-0.004442,2025-03-06T18:48:48.342-06:00,-0.353419,0.069903,-0.097591,2025-03-06T18:48:48.345-06:00
80.000000,261.787969,0.674998,7.256155,44.935156,289.197969,180.000000,2.185477,3.000000,-93.167129,9.547985,2025-03-06T18:48:49.999-06:00,-0.280777,-0.959842,-0.009340,2025-03-06T18:48:49.347-06:00,-0.175597,0.047764,-0.127596,2025-03-06T18:48:49.339-06:00
81.000000,261.977650,0.669745,7.257849,44.935070,289.387650,180.000000,2.306583,3.000000,-93.167131,9.297412,2025-03-06T18:48:50.999-06:00,-0.277325,-0.960085,0.005329,2025-03-06T18:48:50.341-06:00,-0.115714,0.046384,0.007764,2025-03-06T18:48:50.344-06:00
82.000000,261.878905,0.678225,7.256428,44.934991,289.288905,180.000000,2.454328,3.000000,-93.167134,8.952855,2025-03-06T18:48:51.999-06:00,-0.273726,-0.955085,0.003324,2025-03-06T18:48:51.346-06:00,-0.040977,0.072116,-0.037432,2025-03-06T18:48:51.339-06:00
83.000000,261.721284,0.685666,7.255288,44.934910,289.131284,180.000000,2.308901,3.000000,-93.167133,8.895951,2025-03-06T18:48:52.999-06:00,-0.298677,-0.956492,0.004475,2025-03-06T18:48:52.341-06:00,-0.261945,0.055854,-0.039158,2025-03-06T18:48:52.343-06:00
84.000000,261.770593,0.679512,7.256524,44.934834,289.180593,180.000000,2.185278,3.000000,-93.167135,8.591484,2025-03-06T18:48:53.999-06:00,-0.332355,-0.944468,-0.000257,2025-03-06T18:48:53.345-06:00,-0.580273,0.172194,-0.089861,2025-03-06T18:48:53.348-06:00
85.000000,261.983361,0.659175,7.258961,44.934765,289.393361,180.000000,2.113443,3.000000,-93.167136,8.007575,2025-03-06T18:48:54.999-06:00,-0.328829,-0.947698,-0.009018,2025-03-06T18:48:54.340-06:00,-0.505826,0.127651,-0.178763,2025-03-06T18:48:54.343-06:00
86.000000,262.015705,0.665535,7.914549,44.934710,289.425705,179.267487,2.086434,3.000000,-93.167135,6.815663,2025-03-06T18:48:55.999-06:00,-0.289871,-0.959306,0.003011,2025-03-06T18:48:55.345-06:00,-0.081450,-0.000458,-0.031305,2025-03-06T18:48:55.347-06:00
87.000000,261.609811,0.682974,9.418594,44.934661,289.019811,179.267487,2.063312,3.000000,-93.167133,5.820184,2025-03-06T18:48:56.999-06:00,-0.257013,-0.963451,0.019949,2025-03-06T18:48:56.339-06:00,0.232191,-0.032470,0.131181,2025-03-06T18:48:56.342-06:00
88.000000,261.564405,0.673339,9.282985,44.934607,288.974405,179.267487,2.050578,3.000000,-93.167135,5.822577,2025-03-06T18:48:57.999-06:00,-0.260783,-0.967785,0.018421,2025-03-06T18:48:57.344-06:00,0.289387,-0.105939,0.022345,2025-03-06T18:48:57.346-06:00
89.000000,261.673116,0.660811,8.867924,44.934550,289.083116,180.000000,2.071003,3.000000,-93.167133,6.030493,2025-03-06T18:48:58.999-06:00,-0.258042,-0.960970,0.022527,2025-03-06T18:48:58.339-06:00,0.214117,-0.015548,0.021323,2025-03-06T18:48:58.341-06:00
90.000000,261.781311,0.673016,8.718628,44.934494,289.191311,179.780182,2.097466,3.000000,-93.167136,6.256342,2025-03-06T18:48:59.999-06:00,-0.287219,-0.956849,0.019403,2025-03-06T18:48:59.343-06:00,-0.079169,0.020066,-0.056933,2025-03-06T18:48:59.346-06:00
91.000000,261.961807,0.663001,8.943026,44.934442,289.371807,179.780182,2.095474,3.000000,-93.167135,6.006852,2025-03-06T18:49:00.999-06:00,-0.275159,-0.963276,0.030062,2025-03-06T18:49:00.348-06:00,0.067981,-0.032819,-0.022637,2025-03-06T18:49:00.340-06:00
