seconds_elapsed,location_altitude,location_speedAccuracy,location_bearingAccuracy,location_latitude,location_altitudeAboveMeanSeaLevel,location_bearing,location_horizontalAccuracy,location_verticalAccuracy,location_longitude,location_speed,location_local_time,accelerometerUncalibrated_z,accelerometerUncalibrated_y,accelerometerUncalibrated_x,accelerometerUncalibrated_local_time,accelerometer_z,accelerometer_y,accelerometer_x,accelerometer_local_time
0,265.047262,-1,-1,44.940056,292.457262,-1,185.360996,4.520646,-93.166711,-1,2025-02-28T01:23:31Z,-0.268087,-0.964289,-0.170077,2025-02-28T01:23:31Z,-0.090281,0.022259,-1.651555,2025-02-28T01:23:31Z
1,263.973389,1.41,22.657787,44.940042,291.383389,219.726562,7.071514,4,-93.167343,5.17,2025-02-28T01:23:32Z,-0.247719,-0.966213,-0.062869,2025-02-28T01:23:32Z,0.124689,-0.014961,-0.490415,2025-02-28T01:23:32Z
2,263.77478,0.73,10.911944,44.940103,291.18478,267.890625,4.255728,4,-93.167372,4.36,2025-02-28T01:23:33Z,-0.26433,-0.959771,0.009806,2025-02-28T01:23:33Z,-2.14e-4,0.045221,0.26442,2025-02-28T01:23:33Z
3,263.74231,0.71,7.887298,44.940111,291.152309,269.613403,3.535534,4,-93.167432,4.36,2025-02-28T01:23:34Z,-0.264972,-0.96676,-0.010688,2025-02-28T01:23:34Z,-0.061987,-0.011048,0.135401,2025-02-28T01:23:34Z
4,262.958496,0.11,1.339423,44.940119,290.368496,269.802124,3.535534,3,-93.167489,5.31,2025-02-28T01:23:35Z,-0.294976,-0.947103,-0.008808,2025-02-28T01:23:35Z,-0.329081,0.180021,0.206872,2025-02-28T01:23:35Z
5,262.682129,0.09,1.232325,44.940129,290.092129,269.802124,3.535534,3,-93.167543,5.31,2025-02-28T01:23:36Z,-0.272854,-0.958402,-0.001178,2025-02-28T01:23:36Z,-0.080372,0.047751,0.261354,2025-02-28T01:23:36Z
6,262.697144,0.08,0.950065,44.940115,290.107143,269.802124,3.535534,3,-93.16761,5.31,2025-02-28T01:23:37Z,-0.232859,-0.969165,0.029116,2025-02-28T01:23:37Z,0.315958,-0.056683,0.521254,2025-02-28T01:23:37Z
7,262.450195,0.07,0.756694,44.940129,289.860195,269.802124,3.535534,3,-93.167691,5.64,2025-02-28T01:23:38Z,-0.227144,-0.969858,0.024805,2025-02-28T01:23:38Z,0.398393,-0.065534,0.507513,2025-02-28T01:23:38Z
8,262.288391,0.08,0.724214,44.940115,289.698391,269.802124,3.535534,3,-93.167783,7.52,2025-02-28T01:23:39Z,-0.230516,-0.974434,0.028823,2025-02-28T01:23:39Z,0.363487,-0.093484,0.454937,2025-02-28T01:23:39Z
9,261.887329,0.07,0.588495,44.940115,289.297329,269.802124,3.535534,3,-93.167882,8.46,2025-02-28T01:23:40Z,-0.235592,-0.969261,0.023703,2025-02-28T01:23:40Z,0.333484,-0.087584,0.405102,2025-02-28T01:23:40Z
10,261.656006,0.08,0.609322,44.940115,289.066006,270.143555,3.535534,3,-93.167993,8.46,2025-02-28T01:23:41Z,-0.243787,-0.964798,0.018375,2025-02-28T01:23:41Z,0.192182,0.01142,0.336783,2025-02-28T01:23:41Z
11,260.544678,0.38,2.53311,44.940115,287.954678,270.143555,3.535534,3,-93.168111,9.15,2025-02-28T01:23:42Z,-0.249341,-0.97457,0.027567,2025-02-28T01:23:42Z,0.138701,-0.073555,0.39351,2025-02-28T01:23:42Z
12,259.574951,1.79,8.309489,44.940115,286.984951,270.143555,3.535534,3,-93.168232,9.96,2025-02-28T01:23:43Z,-0.29875,-0.9401,-0.0037200000000000002,2025-02-28T01:23:43Z,-0.303731,0.202061,0.096612,2025-02-28T01:23:43Z
13,259.574959,1.79,14.562345,44.940116,286.984959,270.143555,4.748652,4.029364,-93.168358,9.96,2025-02-28T01:23:44Z,-0.308592,-0.946141,0.013545,2025-02-28T01:23:44Z,-0.41882,0.17606,0.144546,2025-02-28T01:23:44Z
14,259.646188,1.08,8.5210070000000009,44.940116,287.056187,270.150787,4.748652,4.029364,-93.168485,10.27,2025-02-28T01:23:45Z,-0.289268,-0.95823,0.013897,2025-02-28T01:23:45Z,-0.186613,0.044183,0.193975,2025-02-28T01:23:45Z
15,259.003792,0.308016,7.258975,44.940116,286.413792,270.150787,4.748652,4.029364,-93.168611,10.27,2025-02-28T01:23:46Z,-0.287989,-0.957505,0.013921,2025-02-28T01:23:46Z,-0.166148,0.045584,0.159687,2025-02-28T01:23:46Z
16,258.525033,0.308016,7.258975,44.940116,285.935033,270.150787,4.748652,4.029364,-93.168745,10.36,2025-02-28T01:23:47Z,-0.313315,-0.943366,0.008309,2025-02-28T01:23:47Z,-0.438574,0.198188,0.096464,2025-02-28T01:23:47Z
17,258.329294,0.308016,7.258975,44.940117,285.739294,270.150787,4.748652,4.029364,-93.16889,10.97,2025-02-28T01:23:48Z,-0.317213,-0.947259,9.39e-4,2025-02-28T01:23:48Z,-0.443253,0.135226,0.07194,2025-02-28T01:23:48Z
18,257.881968,0.39,7.258975,44.940117,285.291967,270.460693,4.748652,4.029364,-93.169031,11,2025-02-28T01:23:49Z,-0.317179,-0.944638,0.008149,2025-02-28T01:23:49Z,-0.443751,0.18474,0.104426,2025-02-28T01:23:49Z
19,257.797861,0.84,7.258975,44.940118,285.207861,270.460693,4.748652,4.029364,-93.169163,10.97,2025-02-28T01:23:50Z,-0.538229,-0.880973,-0.087184,2025-02-28T01:23:50Z,-2.506324,0.775003,-0.713083,2025-02-28T01:23:50Z
20,257.272653,0.35,7.258975,44.940119,284.682653,270.375916,4.748652,4.029364,-93.169297,10.69,2025-02-28T01:23:51Z,-0.37851,-0.930327,-0.048817,2025-02-28T01:23:51Z,-0.928411,0.256831,-0.272186,2025-02-28T01:23:51Z
21,256.85645,0.38,7.258975,44.940119,284.26645,270.375916,4.748652,4.029364,-93.169358,7.48,2025-02-28T01:23:52Z,-0.283817,-0.957209,-0.013383,2025-02-28T01:23:52Z,0.050762,0.006005,0.060596,2025-02-28T01:23:52Z
22,256.62219700000003,0.308016,7.258975,44.94012,284.032197,270.375916,4.748652,4.029364,-93.169454,7.48,2025-02-28T01:23:53Z,-0.245444,-0.960217,0.022364,2025-02-28T01:23:53Z,0.32404,0.01567,0.301397,2025-02-28T01:23:53Z
23,256.316777,0.308016,7.258975,44.94012,283.726777,270,4.748652,4.029364,-93.169558,7.48,2025-02-28T01:23:54Z,-0.233515,-0.989349,0.015705,2025-02-28T01:23:54Z,0.569804,-0.358257,0.295726,2025-02-28T01:23:54Z
24,255.86292,0.308016,7.258975,44.94012,283.27292,270,4.748652,4.029364,-93.169672,8.02,2025-02-28T01:23:55Z,-0.225079,-0.959872,9.67e-4,2025-02-28T01:23:55Z,0.593271,-0.003793,0.16056,2025-02-28T01:23:55Z
25,255.729988,0.45,7.258975,44.94012,283.139987,270.187958,4.748652,4.029364,-93.169806,9.45,2025-02-28T01:23:56Z,-0.233228,-0.978746,0.024653,2025-02-28T01:23:56Z,0.524355,-0.190327,0.158118,2025-02-28T01:23:56Z
26,255.481576,0.308016,7.258975,44.94012,282.891576,270.187958,4.748652,4.029364,-93.169939,10.27,2025-02-28T01:23:57Z,-0.255418,-0.95919,0.020777,2025-02-28T01:23:57Z,0.252315,0.011616,0.178092,2025-02-28T01:23:57Z
27,255.332955,0.308016,7.258975,44.94015,282.742955,269.999908,4.748652,4.029364,-93.170074,10.27,2025-02-28T01:23:58Z,-0.255639,-0.97016,0.015949,2025-02-28T01:23:58Z,0.294635,-0.122179,0.10578,2025-02-28T01:23:58Z
28,255.440134,0.308017,7.258975,44.94015,282.850134,270.703028,4.748652,4.029364,-93.170222,10.82,2025-02-28T01:23:59Z,-0.260743,-0.963159,0.016331,2025-02-28T01:23:59Z,0.146125,-0.013493,0.119322,2025-02-28T01:23:59Z
29,255.446788,0.308017,7.258975,44.940146,282.856788,270.351459,4.748652,4.029364,-93.170376,11.57,2025-02-28T01:24:00Z,-0.266883,-0.958834,0.006171,2025-02-28T01:24:00Z,0.118851,0.008608,0.063388,2025-02-28T01:24:00Z
30,255.556102,0.308017,7.258975,44.940147,282.966102,270.351456,4.748652,4.029364,-93.170527,11.86,2025-02-28T01:24:01Z,-0.302523,-0.950598,-2.05e-4,2025-02-28T01:24:01Z,-0.221695,0.106881,-0.078582,2025-02-28T01:24:01Z
31,255.32423,0.308017,7.258975,44.940123,282.73423,270.141266,4.748652,4.029364,-93.170679,11.86,2025-02-28T01:24:02Z,-0.306401,-0.955899,0.00662,2025-02-28T01:24:02Z,-0.274159,0.029997,-0.028617,2025-02-28T01:24:02Z
32,255.311413,0.308017,7.258975,44.940123,282.721412,270.141266,4.748652,4.029364,-93.170833,11.96,2025-02-28T01:24:03Z,-0.280266,-0.946208,0.011695,2025-02-28T01:24:03Z,-0.038033,0.159357,0.037814,2025-02-28T01:24:03Z
33,256.379713,1.268545,8.696288,44.940138,283.789713,270.141266,2,3,-93.170985,11.817438,2025-02-28T01:24:04Z,-0.278227,-0.959685,0.022866,2025-02-28T01:24:04Z,0.023287,-0.012707,0.103891,2025-02-28T01:24:04Z
34,256.344682,1.267639,8.608041,44.940136,283.754682,270.141266,2,3,-93.171137,11.930838,2025-02-28T01:24:05Z,-0.258841,-0.963562,0.015728,2025-02-28T01:24:05Z,0.183658,-0.009836,0.129942,2025-02-28T01:24:05Z
35,256.47325,1.268182,8.432238,44.940137,283.883249,270.141266,2.329015,3,-93.171293,12.186134,2025-02-28T01:24:06Z,-0.254958,-0.956989,0.00393,2025-02-28T01:24:06Z,0.151373,0.053485,0.075464,2025-02-28T01:24:06Z
36,256.22916,1.27148,8.207197,44.940137,283.63916,270.141266,2.167073,3,-93.171459,12.552063,2025-02-28T01:24:07Z,-0.265653,-0.966651,0.007286,2025-02-28T01:24:07Z,0.113731,-0.088273,0.004943,2025-02-28T01:24:07Z
37,256.142151,0.646494,7.258935,44.940135,283.552151,270.147034,2.083728,3,-93.17163,13.096664,2025-02-28T01:24:08Z,-0.287266,-0.969077,0.017644,2025-02-28T01:24:08Z,-0.133877,-0.064324,0.054111,2025-02-28T01:24:08Z
38,255.768211,0.644606,7.25805,44.940133,283.178211,270.147034,2.09559,3,-93.171802,13.352906,2025-02-28T01:24:09Z,-0.267722,-0.954657,-4.79e-4,2025-02-28T01:24:09Z,0.025659,0.084668,-0.146419,2025-02-28T01:24:09Z
39,255.839602,0.643842,7.258869,44.940133,283.249602,270.147034,2.047069,3,-93.17197,13.356607,2025-02-28T01:24:10Z,-0.282668,-0.951872,0.009234,2025-02-28T01:24:10Z,-0.109109,0.139672,-0.03416,2025-02-28T01:24:10Z
40,255.615908,0.644465,7.258556,44.940137,283.025908,270.098969,2.02304,3,-93.172144,13.581716,2025-02-28T01:24:11Z,-0.281272,-0.963784,0.013037,2025-02-28T01:24:11Z,-0.114884,-0.044839,-0.009915,2025-02-28T01:24:11Z
41,255.871359,0.643111,7.258728,44.940138,283.281359,270.098969,2.011283,3,-93.172312,13.387512,2025-02-28T01:24:12Z,-0.275998,-0.93897,0.006015,2025-02-28T01:24:12Z,-0.119169,0.202471,0.028053,2025-02-28T01:24:12Z
42,255.737756,0.642956,7.258922,44.940139,283.147756,270.098969,2.005509,3,-93.172482,13.381461,2025-02-28T01:24:13Z,-0.29562,-0.966459,0.002651,2025-02-28T01:24:13Z,-0.212554,0.004573,-0.003334,2025-02-28T01:24:13Z
43,255.668881,0.643691,7.25894,44.940139,283.078881,270.098969,2.062275,3,-93.172653,13.404572,2025-02-28T01:24:14Z,-0.279684,-0.957971,0.001578,2025-02-28T01:24:14Z,-0.08507,0.031974,0.036398,2025-02-28T01:24:14Z
44,255.575303,0.640538,7.258931,44.94014,282.985303,270,2.03045,3,-93.172825,13.469919,2025-02-28T01:24:15Z,-0.306405,-0.961934,-0.027371,2025-02-28T01:24:15Z,-0.356169,0.022525,-0.210546,2025-02-28T01:24:15Z
45,255.346689,0.647947,7.258679,44.940135,282.756689,270,2.014856,3,-93.172995,13.411425,2025-02-28T01:24:16Z,-0.299289,-0.931941,-0.008571,2025-02-28T01:24:16Z,-0.226919,0.267753,-0.065902,2025-02-28T01:24:16Z
46,255.444585,0.645397,7.258974,44.940137,282.854585,270,2.007311,3,-93.173162,13.231839,2025-02-28T01:24:17Z,-0.29494,-0.958218,-0.019,2025-02-28T01:24:17Z,-0.235878,0.062968,-0.107058,2025-02-28T01:24:17Z
47,255.455787,0.643821,7.258972,44.940138,282.865787,270,2.003657,3,-93.173322,12.902166,2025-02-28T01:24:18Z,-0.307353,-0.943184,-0.015385,2025-02-28T01:24:18Z,-0.2681,0.175551,-0.098941,2025-02-28T01:24:18Z
48,255.364882,0.648943,7.258955,44.940141,282.774882,270,2.225847,3,-93.17348,12.563682,2025-02-28T01:24:19Z,-0.314563,-0.961867,-0.015464,2025-02-28T01:24:19Z,-0.389736,-0.024387,-0.107712,2025-02-28T01:24:19Z
49,255.260137,0.661816,7.258803,44.940141,282.670137,270,2.117735,3,-93.173619,11.525732,2025-02-28T01:24:20Z,-0.299138,-0.924021,-0.01523,2025-02-28T01:24:20Z,-0.113472,0.353758,-0.11685,2025-02-28T01:24:20Z
50,255.428661,0.648599,7.25872,44.940134,282.838661,270,2.260151,3,-93.173786,12.238921,2025-02-28T01:24:21Z,-0.298299,-0.957471,-0.001546,2025-02-28T01:24:21Z,-0.125096,-0.007593,-0.001002,2025-02-28T01:24:21Z
51,255.618585,0.644895,7.258954,44.940137,283.028584,270,2.136144,3,-93.173936,12.009587,2025-02-28T01:24:22Z,-0.283452,-0.964607,0.003819,2025-02-28T01:24:22Z,0.011696,-0.054892,0.034848,2025-02-28T01:24:22Z
52,255.753641,0.650454,7.258888,44.940137,283.163641,270,2.363869,3,-93.174085,11.902627,2025-02-28T01:24:23Z,-0.267784,-0.961919,-4.94e-4,2025-02-28T01:24:23Z,0.171334,0.007768,0.077094,2025-02-28T01:24:23Z
53,255.426842,0.642513,7.25853,44.940138,282.836842,270.661878,2.710561,3,-93.174237,11.940928,2025-02-28T01:24:24Z,-0.233564,-0.954457,0.01531,2025-02-28T01:24:24Z,0.61449,-0.037194,0.166867,2025-02-28T01:24:24Z
54,255.31298,0.647088,7.25866,44.94014,282.722979,270.870572,2.657854,3,-93.174396,12.321487,2025-02-28T01:24:25Z,-0.247948,-0.952108,0.015133,2025-02-28T01:24:25Z,0.487827,0.02767,0.166213,2025-02-28T01:24:25Z
55,255.20843,0.647468,7.258716,44.940137,282.61843,269.696764,2.336452,3,-93.174561,12.821144,2025-02-28T01:24:26Z,-0.249406,-0.970087,0.015444,2025-02-28T01:24:26Z,0.540149,-0.173576,0.210749,2025-02-28T01:24:26Z
56,254.764592,0.653499,7.257791,44.940138,282.174592,269.933578,2.473486,3,-93.174732,13.34903,2025-02-28T01:24:27Z,-0.242056,-0.961173,0.001933,2025-02-28T01:24:27Z,0.577495,-0.0687,0.059729,2025-02-28T01:24:27Z
57,254.41803,0.646091,7.257426,44.940137,281.828029,269.37578,2.292314,3,-93.17491,13.872606,2025-02-28T01:24:28Z,-0.278938,-0.960087,0.004221,2025-02-28T01:24:28Z,0.259743,-0.081791,0.07433,2025-02-28T01:24:28Z
58,254.099415,0.645692,7.257328,44.940136,281.509415,270.21167,2.138714,3,-93.175094,14.322987,2025-02-28T01:24:29Z,-0.315648,-0.940299,-0.011266,2025-02-28T01:24:29Z,-0.153753,0.138883,-0.131868,2025-02-28T01:24:29Z
59,253.823552,0.651412,7.257431,44.940137,281.233552,270.21167,2.462689,3,-93.175279,14.476777,2025-02-28T01:24:30Z,-0.322291,-0.946046,-0.010059,2025-02-28T01:24:30Z,-0.166938,0.056475,-0.044194,2025-02-28T01:24:30Z
60,253.235922,0.654006,7.254721,44.940139,280.645922,270.21167,2.530878,3,-93.175456,14.194592,2025-02-28T01:24:31Z,-0.322517,-0.941124,-0.014082,2025-02-28T01:24:31Z,-0.226932,0.115696,-0.129406,2025-02-28T01:24:31Z
61,252.829458,0.662164,7.255354,44.940136,280.239458,270.21167,2.251249,3,-93.175631,13.920527,2025-02-28T01:24:32Z,-0.335816,-0.946113,1.4e-5,2025-02-28T01:24:32Z,-0.293632,0.067109,0.02387,2025-02-28T01:24:32Z
62,252.598476,0.657558,7.256754,44.940142,280.008476,270.21167,2.121108,3,-93.175801,13.59008,2025-02-28T01:24:33Z,-0.326273,-0.938723,-0.006098,2025-02-28T01:24:33Z,-0.225985,0.127546,-0.018543,2025-02-28T01:24:33Z
63,252.727145,0.652848,7.25773,44.940138,280.137145,270.21167,2.472374,3,-93.17597,13.396663,2025-02-28T01:24:34Z,-0.328249,-0.936478,-0.010552,2025-02-28T01:24:34Z,-0.234606,0.182642,-0.059685,2025-02-28T01:24:34Z
64,252.315764,0.654432,7.256624,44.940139,279.725764,270.21167,2.348662,3,-93.176136,13.166758,2025-02-28T01:24:35Z,-0.325089,-0.951281,0.001918,2025-02-28T01:24:35Z,-0.2256,0.009454,0.02589,2025-02-28T01:24:35Z
65,251.023091,0.718686,7.243822,44.940118,278.433091,270,2.664362,3,-93.176314,13.763006,2025-02-28T01:24:36Z,-0.338985,-0.935658,0.021236,2025-02-28T01:24:36Z,-0.308443,0.126978,0.206907,2025-02-28T01:24:36Z
66,251.743473,0.672053,7.258191,44.94013,279.153472,270,2.760344,3,-93.176459,12.590883,2025-02-28T01:24:37Z,-0.36722,-0.936221,0.019401,2025-02-28T01:24:37Z,-0.565295,0.1728,0.166196,2025-02-28T01:24:37Z
67,251.302202,0.65379,7.256653,44.940128,278.712202,270,2.386248,3,-93.176614,12.226471,2025-02-28T01:24:38Z,-0.398249,-0.91782,-0.029034,2025-02-28T01:24:38Z,-0.822697,0.310052,-0.209428,2025-02-28T01:24:38Z
68,251.026861,0.651757,7.256256,44.940118,278.436861,270,2.201768,3,-93.176757,11.542974,2025-02-28T01:24:39Z,-0.44691,-0.913235,-0.069228,2025-02-28T01:24:39Z,-1.290745,0.349336,-0.575229,2025-02-28T01:24:39Z
69,NA,NA,NA,NA,NA,NA,NA,NA,NA,NA,NA,-0.439467,-0.896754,-0.080181,2025-02-28T01:24:40Z,-1.178761,0.491964,-0.535577,2025-02-28T01:24:40Z
