seconds_elapsed,location_altitude,location_speedAccuracy,location_bearingAccuracy,location_latitude,location_altitudeAboveMeanSeaLevel,location_bearing,location_horizontalAccuracy,location_verticalAccuracy,location_longitude,location_speed,location_local_time,accelerometerUncalibrated_z,accelerometerUncalibrated_y,accelerometerUncalibrated_x,accelerometerUncalibrated_local_time,accelerometer_z,accelerometer_y,accelerometer_x,accelerometer_local_time
0,254.104875,-0.463333,0.826831,44.941604,281.514875,31.208333,121.01829,4.666667,-93.175229,2.29,2025-02-28T01:21:44Z,-0.291119,-0.959822,-0.015048,2025-02-28T01:21:44Z,-0.432169,0.0885,-0.013386,2025-02-28T01:21:44Z
1,253.867065,1.39,10.722312,44.941339,281.277065,94.570312,3.535534,3,-93.174225,8.87,2025-02-28T01:21:45Z,-0.280785,-0.945247,-0.005947,2025-02-28T01:21:45Z,-0.311383,0.216581,0.393961,2025-02-28T01:21:45Z
2,253.02832,1.05,6.102305,44.941299,280.43832,95.181595,3.535534,3,-93.174097,8.87,2025-02-28T01:21:46Z,-0.255168,-0.951351,-0.009041,2025-02-28T01:21:46Z,0.04716,0.131026,0.410139,2025-02-28T01:21:46Z
3,252.510864,0.59,3.747999,44.941296,279.920864,90,3.535534,3,-93.173969,9.69,2025-02-28T01:21:47Z,-0.246375,-0.9751,-5.25e-4,2025-02-28T01:21:47Z,0.056716,-0.088411,0.473148,2025-02-28T01:21:47Z
4,252.845703,0.68,4.284515,44.941296,280.255703,90,3.535534,3,-93.173837,10.26,2025-02-28T01:21:48Z,-0.214749,-0.977358,-0.020613,2025-02-28T01:21:48Z,0.320186,-0.108115,0.316786,2025-02-28T01:21:48Z
5,253.110229,0.76,4.59751,44.941296,280.520229,90,3.535534,3,-93.173706,10.76,2025-02-28T01:21:49Z,-0.222435,-0.971162,-0.030308,2025-02-28T01:21:49Z,0.258027,-0.032734,0.278462,2025-02-28T01:21:49Z
6,253.341919,0.95,5.491385,44.941295,280.751919,90.43531,3.535534,3,-93.173568,10.76,2025-02-28T01:21:50Z,-0.200892,-0.980884,-0.059571,2025-02-28T01:21:50Z,0.442102,-0.133293,0.017389,2025-02-28T01:21:50Z
7,253.315063,1.89,7.381369,44.941295,280.725063,90.43531,3.535534,3,-93.173436,10.76,2025-02-28T01:21:51Z,-0.238335,-0.959844,-0.037615,2025-02-28T01:21:51Z,0.130662,0.066545000000000007,0.098263,2025-02-28T01:21:51Z
8,253.113647,1.38,5.000072,44.94131,280.523647,90.43531,3.535534,3,-93.173287,11.58,2025-02-28T01:21:52Z,-0.242654,-0.965896,-0.035655,2025-02-28T01:21:52Z,0.114044,0.001738,0.087112,2025-02-28T01:21:52Z
9,252.851562,1.56,5.976967,44.941306,280.261562,90.43531,3.535534,3,-93.173146,11.69,2025-02-28T01:21:53Z,-0.221527,-0.98174,-0.025572,2025-02-28T01:21:53Z,0.314632,-0.145954,0.020265,2025-02-28T01:21:53Z
10,252.75647,2.01,6.023063,44.941303,280.16647,90.43531,3.535534,3,-93.172987,11.69,2025-02-28T01:21:54Z,-0.22563,-0.957354,-0.012954,2025-02-28T01:21:54Z,0.2615,0.096158,0.166745,2025-02-28T01:21:54Z
11,252.705872,1.88,5.783402,44.941307,280.115871,90.222748,3.535534,3,-93.172824,12.52,2025-02-28T01:21:55Z,-0.264795,-0.956891,-0.050331,2025-02-28T01:21:55Z,-0.141215,0.102019,-0.10463,2025-02-28T01:21:55Z
12,253.162842,1.53,5.29144,44.941304,280.572842,90.222748,3.535534,3,-93.172659,12.57,2025-02-28T01:21:56Z,-0.265498,-0.963417,-0.04226,2025-02-28T01:21:56Z,-0.120629,0.02984,0.001786,2025-02-28T01:21:56Z
13,253.162854,1.53,9.862654,44.941304,280.572854,90.222748,4.748652,4.029364,-93.172499,12.57,2025-02-28T01:21:57Z,-0.260159,-0.964724,-0.032272,2025-02-28T01:21:57Z,-0.031549,0.011977,-0.021545,2025-02-28T01:21:57Z
14,252.901868,1.1,7.258975,44.94129,280.311868,90.222748,4.748652,4.029364,-93.172352,12.57,2025-02-28T01:21:58Z,-0.250943,-0.964592,-0.039667,2025-02-28T01:21:58Z,0.052897,0.01199,-0.017568,2025-02-28T01:21:58Z
15,252.913708,1.1,7.258975,44.94129,280.323708,89.937492,4.748652,4.029364,-93.172196,12.43,2025-02-28T01:21:59Z,-0.24082,-0.944477,-0.044499,2025-02-28T01:21:59Z,0.09312,0.220841,0.012456,2025-02-28T01:21:59Z
16,253.160535,1.59,10.364864,44.94129,280.570534,89.937492,4.748652,4.029364,-93.172038,12.43,2025-02-28T01:22:00Z,-0.279415,-0.965316,-0.068169,2025-02-28T01:22:00Z,-0.259447,0.011867,-0.276186,2025-02-28T01:22:00Z
17,253.369153,1.32,8.529313,44.94129,280.779153,89.937492,4.748652,4.029364,-93.171877,12.54,2025-02-28T01:22:01Z,-0.294502,-0.95479,-0.041122,2025-02-28T01:22:01Z,-0.417936,0.099427,-0.081122,2025-02-28T01:22:01Z
18,253.833753,1.9,12.277041,44.941305,281.243752,89.937492,4.748652,4.029364,-93.171718,12.54,2025-02-28T01:22:02Z,-0.297139,-0.950691,-0.046786,2025-02-28T01:22:02Z,-0.330452,0.148099,-0.016238,2025-02-28T01:22:02Z
19,253.535412,1.58,10.341275,44.94129,280.945412,89.937492,4.748652,4.029364,-93.171565,12.38,2025-02-28T01:22:03Z,-0.284463,-0.940905,-0.050204,2025-02-28T01:22:03Z,-0.266023,0.240357,-0.085052,2025-02-28T01:22:03Z
20,253.981701,2.21,14.464694,44.941291,281.391701,89.937492,4.748652,4.029364,-93.171399,12.38,2025-02-28T01:22:04Z,-0.30661,-0.955903,-0.055617,2025-02-28T01:22:04Z,-0.396178,0.071456,-0.193797,2025-02-28T01:22:04Z
21,254.396128,1.96,14.543571,44.941307,281.806127,89.937492,4.748652,4.029364,-93.171285,10.92,2025-02-28T01:22:05Z,-0.330613,-0.94347,-0.028466,2025-02-28T01:22:05Z,-0.597259,0.188315,-0.074705,2025-02-28T01:22:05Z
22,254.326364,0.9,7.258975,44.941291,281.736364,89.937492,4.748652,4.029364,-93.171153,10.92,2025-02-28T01:22:06Z,-0.353236,-0.935831,-0.083811,2025-02-28T01:22:06Z,-0.792376,0.251081,-0.456442,2025-02-28T01:22:06Z
23,254.721017,0.72,7.258975,44.941302,282.131017,90,4.748652,4.029364,-93.171025,10.51,2025-02-28T01:22:07Z,-0.395659,-0.918125,-0.047208,2025-02-28T01:22:07Z,-1.089532,0.39595,-0.304876,2025-02-28T01:22:07Z
24,254.04493,1.13,8.787156,44.941306,281.45493,87.995911,4.748652,4.029364,-93.170898,10.42,2025-02-28T01:22:08Z,-0.402012,-0.915868,-0.050082,2025-02-28T01:22:08Z,-1.089288,0.399147,-0.318372,2025-02-28T01:22:08Z
25,254.640389,0.79,7.258975,44.941297,282.050389,87.995911,4.748652,4.029364,-93.170814,10.08,2025-02-28T01:22:09Z,-0.401799,-0.930707,-0.054867,2025-02-28T01:22:09Z,-1.043474,0.238133,-0.275483,2025-02-28T01:22:09Z
26,254.635623,0.78,10.516173,44.941295,282.045623,87.995911,4.748652,4.029364,-93.17078,6.01,2025-02-28T01:22:10Z,-0.400924,-0.926267,-0.066267,2025-02-28T01:22:10Z,-1.005206,0.270642,-0.329753,2025-02-28T01:22:10Z
27,254.592898,0.99,13.347451,44.941291,282.002898,87.995911,4.748652,4.029364,-93.170702,6.01,2025-02-28T01:22:11Z,-0.414025,-0.910509,-0.070054,2025-02-28T01:22:11Z,-1.050508,0.395054,-0.276458,2025-02-28T01:22:11Z
28,255.406619,1.12,23.228966,44.941289,282.816618,87.995911,4.748652,4.029364,-93.170665,5.45,2025-02-28T01:22:12Z,-0.381819,-0.927685,-0.085511,2025-02-28T01:22:12Z,-0.614212,0.179772,-0.287757,2025-02-28T01:22:12Z
29,255.591737,1.56,43.55224,44.941292,283.001736,87.995911,4.748652,4.029364,-93.170662,3.06,2025-02-28T01:22:13Z,-0.286929,-0.954599,-0.048897,2025-02-28T01:22:13Z,0.343846,-0.09626,0.116672,2025-02-28T01:22:13Z
30,255.499573,1.94,76.680603,44.941297,282.909573,87.995911,4.748652,4.029364,-93.17066,2.05,2025-02-28T01:22:14Z,-0.180818,-0.984452,-0.024215,2025-02-28T01:22:14Z,1.300111,-0.358659,0.373284,2025-02-28T01:22:14Z
31,255.447083,1.1,133.031813,44.941302,282.857082,87.995911,4.748652,4.029364,-93.170676,0.67,2025-02-28T01:22:15Z,-0.088094,-1.010313,-0.003768,2025-02-28T01:22:15Z,2.216573,-0.62463,0.624776,2025-02-28T01:22:15Z
32,255.388733,0.89,35.524796,44.941303,282.798733,87.995911,4.748652,4.029364,-93.170637,2.03,2025-02-28T01:22:16Z,-0.127454,-1.000329,-0.015461,2025-02-28T01:22:16Z,1.737844,-0.480294,0.444947,2025-02-28T01:22:16Z
33,256.027783,1.281086,34.489212,44.941309,283.437783,87.995911,2,3,-93.170574,3.009514,2025-02-28T01:22:17Z,-0.159228,-0.993026,-0.011895,2025-02-28T01:22:17Z,1.401807,-0.416098,0.456989,2025-02-28T01:22:17Z
34,256.124848,1.469541,30.2369,44.94131,283.534848,87.995911,2.717869,3,-93.170514,3.937395,2025-02-28T01:22:18Z,-0.182711,-0.987589,-0.010154,2025-02-28T01:22:18Z,1.228227,-0.367923,0.389018,2025-02-28T01:22:18Z
35,255.74394,1.289783,19.071378,44.941301,283.15394,87.995911,2.358934,3,-93.170426,5.476576,2025-02-28T01:22:19Z,-0.163881,-0.975102,0.024411,2025-02-28T01:22:19Z,1.446453,-0.250606,0.549325,2025-02-28T01:22:19Z
36,255.671332,1.268854,16.014415,44.94131,283.081332,87.616814,2.236627,3,-93.170332,6.417208,2025-02-28T01:22:20Z,-0.179542,-0.990968,0.010308,2025-02-28T01:22:20Z,1.066434,-0.331471,0.34327,2025-02-28T01:22:20Z
37,254.000502,0.825594,8.954064,44.941315,281.410502,86.266069,2.204924,3,-93.170234,7.376345,2025-02-28T01:22:21Z,-0.221157,-0.966225,-0.004697,2025-02-28T01:22:21Z,0.646776,-0.085801,0.225771,2025-02-28T01:22:21Z
38,254.863868,0.714413,7.258369,44.941311,282.273868,89.281702,2.13863,3,-93.170099,9.021481,2025-02-28T01:22:22Z,-0.326487,-0.953189,-0.046721,2025-02-28T01:22:22Z,-0.431253,0.055468,-0.18336,2025-02-28T01:22:22Z
39,254.755396,0.719659,7.257784,44.941315,282.165396,86.507013,2.278251,3,-93.169988,8.981616,2025-02-28T01:22:23Z,-0.379828,-0.927285,-0.060656,2025-02-28T01:22:23Z,-0.999887,0.322423,-0.308051,2025-02-28T01:22:23Z
40,254.429279,0.76235,8.168569,44.941317,281.839279,86.486204,2.93878,3,-93.169902,7.514879,2025-02-28T01:22:24Z,-0.404379,-0.919839,-0.091059,2025-02-28T01:22:24Z,-1.28914,0.405213,-0.493339,2025-02-28T01:22:24Z
41,255.039776,0.738305,8.997681,44.941322,282.449776,85.220322,2.903867,3,-93.169819,6.646745,2025-02-28T01:22:25Z,-0.413996,-0.91395,-0.096093,2025-02-28T01:22:25Z,-1.355739,0.451901,-0.473544,2025-02-28T01:22:25Z
42,254.459563,0.719707,12.758088,44.94132,281.869563,88.294992,2.6779,3,-93.169779,4.484294,2025-02-28T01:22:26Z,-0.443158,-0.913303,-0.084939,2025-02-28T01:22:26Z,-1.598825,0.449727,-0.454072,2025-02-28T01:22:26Z
43,253.859963,0.783902,22.131927,44.941322,281.269962,85.506901,2.562149,3,-93.169765,2.031196,2025-02-28T01:22:27Z,-0.405102,-0.917794,-0.069462,2025-02-28T01:22:27Z,-1.115798,0.373942,-0.36463,2025-02-28T01:22:27Z
44,254.694344,0.725559,46.526499,44.941315,282.104344,95.727671,2.468458,3,-93.169746,1.081508,2025-02-28T01:22:28Z,-0.23819,-0.97065,-0.016248,2025-02-28T01:22:28Z,0.520702,-0.140705,0.137136,2025-02-28T01:22:28Z
45,255.184131,0.657851,71.04852,44.941316,282.594131,87.905089,2.614807,3,-93.169735,0.74859,2025-02-28T01:22:29Z,-0.109447,-1.005389,0.030306,2025-02-28T01:22:29Z,1.72418,-0.463897,0.530925,2025-02-28T01:22:29Z
46,255.50642,0.663283,22.51934,44.941315,282.91642,89.162388000000007,2.537956,3,-93.169695,2.310672,2025-02-28T01:22:30Z,-0.154178,-0.995937,0.00846,2025-02-28T01:22:30Z,1.19286,-0.34318,0.346007,2025-02-28T01:22:30Z
47,255.407703,0.651018,16.02946,44.941317,282.817703,87.141225,2.478183,3,-93.169645,3.288759,2025-02-28T01:22:31Z,-0.150433,-0.987213,0.028933,2025-02-28T01:22:31Z,1.284956,-0.273986,0.50501,2025-02-28T01:22:31Z
48,255.411464,0.659879,9.12676,44.941317,282.821464,87.725877,2.430365,3,-93.169549,5.841879,2025-02-28T01:22:32Z,-0.19056,-0.98817,0.010336,2025-02-28T01:22:32Z,0.931142,-0.297484,0.386431,2025-02-28T01:22:32Z
49,254.348173,0.676293,7.99602,44.941334,281.758173,78.620923,2.391241,3,-93.169467,6.674076,2025-02-28T01:22:33Z,-0.259429,-0.9463,-0.061627,2025-02-28T01:22:33Z,0.273186,0.102803,-0.177748,2025-02-28T01:22:33Z
50,255.284907,0.669892,9.694809,44.941326,282.694907,87.206728,2.358637,3,-93.169407,5.587426,2025-02-28T01:22:34Z,-0.318602,-0.992537,-0.102435,2025-02-28T01:22:34Z,-0.384796,-0.349563,-0.260752,2025-02-28T01:22:34Z
51,256.091319,0.705691,10.952536,44.941333,283.501319,84.693875,2.33105,3,-93.169339,5.153372,2025-02-28T01:22:35Z,-0.254074,-0.915435,-0.067607,2025-02-28T01:22:35Z,-0.069811,0.495789,0.053041,2025-02-28T01:22:35Z
52,255.390726,0.669814,11.641017,44.941333,282.800726,87.216168,2.363263,3,-93.169283,4.615803,2025-02-28T01:22:36Z,-0.217337,-0.973874,-0.076752,2025-02-28T01:22:36Z,0.31672,-0.080171,-0.053817,2025-02-28T01:22:36Z
53,255.875176,0.665488,11.446797,44.941331,283.285176,89.067149,2.339046,3,-93.169221,4.705584,2025-02-28T01:22:37Z,-0.207653,-0.979539,-0.05904,2025-02-28T01:22:37Z,0.436325,-0.139715,0.087658,2025-02-28T01:22:37Z
54,256.545278,0.669717,9.91606,44.94133,283.955278,89.942394,2.317855,3,-93.169147,5.369311,2025-02-28T01:22:38Z,-0.194925,-0.973258,-0.049581,2025-02-28T01:22:38Z,0.519941,-0.06666,0.16937,2025-02-28T01:22:38Z
55,256.343443,0.668662,9.233539,44.941281,283.753443,90.253952,5.649247,3,-93.169071,5.868679,2025-02-28T01:22:39Z,-0.195741,-0.976136,-0.051744,2025-02-28T01:22:39Z,0.524871,-0.096895,0.128626,2025-02-28T01:22:39Z
56,256.063103,0.658034,8.329251,44.941281,283.473103,90.253952,5.706563,3,-93.168988,6.377648,2025-02-28T01:22:40Z,-0.209464,-0.985062,-0.05402,2025-02-28T01:22:40Z,0.330242,-0.169018,0.102749,2025-02-28T01:22:40Z
57,256.681603,0.661162,7.94853,44.94128,284.091603,90.253952,5.512295,3,-93.168901,6.734922,2025-02-28T01:22:41Z,-0.239323,-0.963522,-0.054393,2025-02-28T01:22:41Z,0.047089,0.045056,0.015345,2025-02-28T01:22:41Z
58,256.581154,0.66309,7.884853,44.94128,283.991154,90.253952,5.800619,3,-93.168814,6.815134,2025-02-28T01:22:42Z,-0.26689,-0.961074,-0.061225,2025-02-28T01:22:42Z,-0.22549,0.068094,-0.031838,2025-02-28T01:22:42Z
59,256.757116,0.663445,8.015262,44.94128,284.167116,90.253952,5.753275,3,-93.16873,6.707653,2025-02-28T01:22:43Z,-0.292829,-0.947755,-0.071637,2025-02-28T01:22:43Z,-0.472121,0.198028,-0.151609,2025-02-28T01:22:43Z
60,256.770788,0.66657,8.623737,44.941279,284.180787,90.253952,5.738832,3,-93.168652,6.2597,2025-02-28T01:22:44Z,-0.296587,-0.955658,-0.067363,2025-02-28T01:22:44Z,-0.523303,0.127457,-0.173062,2025-02-28T01:22:44Z
61,257.090888,0.670309,9.524097,44.941279,284.500888,90.253952,5.825919,3,-93.168583,5.698582,2025-02-28T01:22:45Z,-0.287357,-0.953049,-0.071704,2025-02-28T01:22:45Z,-0.465951,0.15801,-0.151631,2025-02-28T01:22:45Z
62,257.246387,0.67459,10.69472,44.941279,284.656387,90.253952,5.895633,3,-93.16852,5.109043,2025-02-28T01:22:46Z,-0.28806,-0.959846,-0.067339,2025-02-28T01:22:46Z,-0.436953,0.085517,-0.162708,2025-02-28T01:22:46Z
63,257.158336,0.67678,12.090884,44.941279,284.568336,90.253952,6.10365,3,-93.168466,4.531421,2025-02-28T01:22:47Z,-0.279458,-0.951911,-0.054326,2025-02-28T01:22:47Z,-0.341406,0.162906,-0.083024,2025-02-28T01:22:47Z
64,257.281914,0.680572,12.708567,44.941279,284.691914,90.253952,5.827597,3,-93.168409,4.336238,2025-02-28T01:22:48Z,-0.21873,-0.968168,-0.041475,2025-02-28T01:22:48Z,0.26359900000000003,-5.7e-4,0.076792,2025-02-28T01:22:48Z
65,258.034783,0.713253,13.527778,44.941279,285.444783,90.253952,5.689957,3,-93.16836,4.105604,2025-02-28T01:22:49Z,-0.136544,-0.99909,-0.012416,2025-02-28T01:22:49Z,1.020796,-0.289591,0.320969,2025-02-28T01:22:49Z
66,257.968336,0.73792,11.365487,44.941279,285.378336,89.704323,5.669528,3,-93.168285,5.256734,2025-02-28T01:22:50Z,-0.155526,-0.986596,-0.007902,2025-02-28T01:22:50Z,0.838646,-0.167499,0.347399,2025-02-28T01:22:50Z
67,258.090648,0.67551,9.307213,44.941279,285.500648,89.704323,5.527343,3,-93.168209,5.872232,2025-02-28T01:22:51Z,-0.158238,-0.989993,-0.016556,2025-02-28T01:22:51Z,0.763421,-0.187413,0.233645,2025-02-28T01:22:51Z
68,258.572866,0.673332,8.007216,44.941279,285.982866,89.704323,5.745942,3,-93.168116,6.779609,2025-02-28T01:22:52Z,-0.196776,-0.974983,-0.031441,2025-02-28T01:22:52Z,0.398196,-0.041166,0.030889,2025-02-28T01:22:52Z
69,258.408376,0.673363,7.687509,44.94128,285.818376,89.704323,5.713,3,-93.168024,7.096832,2025-02-28T01:22:53Z,-0.247913,-0.97666,-0.034448,2025-02-28T01:22:53Z,-0.082722,-0.060115,-0.08037,2025-02-28T01:22:53Z
70,258.584138,0.668427,7.645293,44.94128,285.994138,89.704323,5.730276,3,-93.167933,7.085931,2025-02-28T01:22:54Z,-0.238572,-0.966828,-0.016372,2025-02-28T01:22:54Z,-0.06186,0.054886,0.036665,2025-02-28T01:22:54Z
71,259.150894,0.681972,7.559603,44.94128,286.560893,89.704323,5.61164,3,-93.167838,7.299573,2025-02-28T01:22:55Z,-0.221092,-0.97078,-0.027483,2025-02-28T01:22:55Z,0.094945,0.027855,-0.002815,2025-02-28T01:22:55Z
72,259.311048,0.668021,7.438598,44.941281,286.721048,89.704323,5.567348,3,-93.167748,7.271469,2025-02-28T01:22:56Z,-0.280544,-0.956647,-0.031598,2025-02-28T01:22:56Z,-0.464422,0.142167,-0.089557,2025-02-28T01:22:56Z
73,259.761555,0.68299,7.863453,44.941281,287.171555,89.704323,5.590004,3,-93.16766,7.016146,2025-02-28T01:22:57Z,-0.282323,-0.953399,-0.045946,2025-02-28T01:22:57Z,-0.493012,0.203134,-0.185097,2025-02-28T01:22:57Z
74,260.108441,0.67995,8.372233,44.941281,287.518441,89.704323,5.594963,3,-93.167579,6.532072,2025-02-28T01:22:58Z,-0.277711,-0.967094,-0.045597,2025-02-28T01:22:58Z,-0.379447,0.01877,-0.192662,2025-02-28T01:22:58Z
75,259.837013,0.676537,9.081964,44.941282,287.247013,89.704323,5.628973,3,-93.167506,6.037305,2025-02-28T01:22:59Z,-0.292564,-0.949612,-0.04714,2025-02-28T01:22:59Z,-0.552994,0.2132,-0.207313,2025-02-28T01:22:59Z
76,260.261678,0.670701,9.923372,44.941282,287.671678,89.704323,5.374506,3,-93.167438,5.465774,2025-02-28T01:23:00Z,-0.330452,-0.934628,-0.049455,2025-02-28T01:23:00Z,-0.931126,0.363346,-0.302985,2025-02-28T01:23:00Z
77,260.47356,0.69226,13.274951,44.941298,287.88356,89.704323,2.345335,3,-93.167395,4.206402,2025-02-28T01:23:01Z,-0.306724,-0.94702,-0.049724,2025-02-28T01:23:01Z,-0.656329,0.230973,-0.274281,2025-02-28T01:23:01Z
78,260.669325,0.678865,15.404198,44.941292,288.079325,89.704323,2.36204,3,-93.167351,3.549254,2025-02-28T01:23:02Z,-0.27596,-0.963136,-0.06112,2025-02-28T01:23:02Z,-0.346221,0.06868,-0.30385,2025-02-28T01:23:02Z
79,NA,NA,NA,NA,NA,NA,NA,NA,NA,NA,NA,-0.282319,-0.948369,-0.037706,2025-02-28T01:23:03Z,-0.311627,0.189831,-0.105947,2025-02-28T01:23:03Z
