seconds_elapsed,location_altitude,location_speedAccuracy,location_bearingAccuracy,location_latitude,location_altitudeAboveMeanSeaLevel,location_bearing,location_horizontalAccuracy,location_verticalAccuracy,location_longitude,location_speed,location_local_time,accelerometerUncalibrated_z,accelerometerUncalibrated_y,accelerometerUncalibrated_x,accelerometerUncalibrated_local_time,accelerometer_z,accelerometer_y,accelerometer_x,accelerometer_local_time
0.000000,262.184243,0.678967,12.466530,44.934361,289.594243,329.092943,2.396561,3.000000,-93.166975,4.412529,2025-04-03T22:36:40.000-05:00,-0.218087,-0.978450,-0.086300,2025-04-03T22:36:39.499-05:00,0.245283,-0.084741,-0.984683,2025-04-03T22:36:39.507-05:00
1.000000,262.112150,0.670917,11.529963,44.934410,289.522150,351.608015,2.412602,3.000000,-93.166974,4.713614,2025-04-03T22:36:41.000-05:00,-0.210328,-0.979068,0.043972,2025-04-03T22:36:40.493-05:00,0.080540,-0.043494,0.053425,2025-04-03T22:36:40.492-05:00
2.000000,261.979242,0.660086,10.657566,44.934459,289.389241,0.150174,2.367792,3.000000,-93.166972,5.013702,2025-04-03T22:36:42.000-05:00,-0.133391,-0.996720,0.083379,2025-04-03T22:36:41.488-05:00,0.788493,-0.199603,0.529436,2025-04-03T22:36:41.487-05:00
3.000000,262.198990,0.693538,9.840440,44.934514,289.608990,0.150174,2.409162,3.000000,-93.166971,5.707690,2025-04-03T22:36:43.000-05:00,-0.145688,-0.990847,0.077209,2025-04-03T22:36:42.493-05:00,0.613844,-0.128352,0.524036,2025-04-03T22:36:42.492-05:00
4.000000,262.209608,0.654475,7.499136,44.934587,289.619607,0.150174,2.452617,3.000000,-93.166966,7.071061,2025-04-03T22:36:44.000-05:00,-0.155485,-0.990907,0.079774,2025-04-03T22:36:43.488-05:00,0.424836,-0.108833,0.599091,2025-04-03T22:36:43.486-05:00
5.000000,262.135539,0.656452,7.258940,44.934663,289.545538,359.502319,2.591860,3.000000,-93.166963,7.947002,2025-04-03T22:36:45.000-05:00,-0.163004,-0.986558,0.063405,2025-04-03T22:36:44.492-05:00,0.298004,-0.055807,0.510189,2025-04-03T22:36:44.491-05:00
6.000000,261.987713,0.657271,7.258247,44.934748,289.397713,359.502319,2.422557,3.000000,-93.166963,8.865786,2025-04-03T22:36:46.000-05:00,-0.171425,-0.986797,0.058329,2025-04-03T22:36:45.487-05:00,0.145499,-0.041165,0.533544,2025-04-03T22:36:45.486-05:00
7.000000,262.086532,0.661375,7.258954,44.934840,289.496532,0.000000,2.444568,3.000000,-93.166961,9.609884,2025-04-03T22:36:47.000-05:00,-0.178929,-0.982279,0.054997,2025-04-03T22:36:46.492-05:00,0.051336,0.006340,0.493537,2025-04-03T22:36:46.491-05:00
8.000000,262.114386,0.654934,7.258795,44.934935,289.524386,0.000000,2.470834,3.000000,-93.166962,10.260159,2025-04-03T22:36:48.000-05:00,-0.176188,-0.983039,0.044495,2025-04-03T22:36:47.487-05:00,0.053220,0.002193,0.362083,2025-04-03T22:36:47.486-05:00
9.000000,262.501382,0.663479,7.258768,44.935027,289.911381,0.000000,2.823210,3.000000,-93.166964,10.383937,2025-04-03T22:36:49.000-05:00,-0.183422,-0.985247,0.052100,2025-04-03T22:36:48.492-05:00,-0.051901,-0.012800,0.387289,2025-04-03T22:36:48.490-05:00
10.000000,262.729850,0.653881,7.258152,44.935139,290.139850,0.000000,2.889483,3.000000,-93.166962,11.537068,2025-04-03T22:36:50.000-05:00,-0.190484,-0.967816,0.030562,2025-04-03T22:36:49.486-05:00,-0.116181,0.157098,0.220097,2025-04-03T22:36:49.485-05:00
11.000000,262.562436,0.660130,7.258752,44.935246,289.972436,0.000000,2.737609,3.000000,-93.166962,11.841018,2025-04-03T22:36:51.000-05:00,-0.221708,-0.990319,0.049498,2025-04-03T22:36:50.491-05:00,-0.298209,-0.091390,0.183153,2025-04-03T22:36:50.490-05:00
12.000000,262.762067,0.807366,7.258967,44.935351,290.172067,0.000000,2.465419,3.000000,-93.166963,11.804333,2025-04-03T22:36:52.000-05:00,-0.215682,-0.972018,0.048669,2025-04-03T22:36:51.486-05:00,-0.365616,0.111133,0.127650,2025-04-03T22:36:51.485-05:00
13.000000,263.495304,0.760557,7.255506,44.935468,290.905304,0.000000,2.458442,3.000000,-93.166960,12.337148,2025-04-03T22:36:53.000-05:00,-0.213301,-0.975378,0.047231,2025-04-03T22:36:52.491-05:00,-0.320361,0.074980,0.169687,2025-04-03T22:36:52.489-05:00
14.000000,263.080072,0.661059,7.258833,44.935586,290.490072,0.000000,2.231446,3.000000,-93.166961,12.695705,2025-04-03T22:36:54.000-05:00,-0.241003,-0.968978,0.034280,2025-04-03T22:36:53.485-05:00,-0.559303,0.133119,0.087123,2025-04-03T22:36:53.484-05:00
15.000000,263.071122,0.663274,7.258824,44.935705,290.481122,0.230505,2.256012,3.000000,-93.166960,12.874225,2025-04-03T22:36:55.000-05:00,-0.262871,-0.961695,0.030688,2025-04-03T22:36:54.490-05:00,-0.724685,0.195457,0.035057,2025-04-03T22:36:54.489-05:00
16.000000,263.182340,0.656912,7.258779,44.935820,290.592340,0.230505,2.294109,3.000000,-93.166962,12.706018,2025-04-03T22:36:56.000-05:00,-0.252044,-0.964991,0.025338,2025-04-03T22:36:55.485-05:00,-0.566849,0.152258,-0.063474,2025-04-03T22:36:55.484-05:00
17.000000,263.270895,0.664079,7.258171,44.935931,290.680895,0.230505,2.303762,3.000000,-93.166961,12.388426,2025-04-03T22:36:57.000-05:00,-0.247382,-0.965789,0.045629,2025-04-03T22:36:56.490-05:00,-0.415401,0.128347,0.035814,2025-04-03T22:36:56.488-05:00
18.000000,263.249192,0.654666,7.258868,44.936044,290.659192,0.230505,2.539090,3.000000,-93.166962,12.344212,2025-04-03T22:36:58.000-05:00,-0.225895,-0.973185,0.050377,2025-04-03T22:36:57.485-05:00,-0.191252,0.032054,0.093583,2025-04-03T22:36:57.493-05:00
19.000000,262.930853,0.788707,7.258815,44.936165,290.340853,0.230505,2.478187,3.000000,-93.166948,13.029554,2025-04-03T22:36:59.000-05:00,-0.217263,-0.957367,0.033950,2025-04-03T22:36:58.489-05:00,-0.059337,0.191685,-0.021062,2025-04-03T22:36:58.488-05:00
20.000000,261.919272,0.901130,7.251261,44.936295,289.329272,359.878601,2.233580,3.000000,-93.166960,13.920987,2025-04-03T22:37:00.000-05:00,-0.232410,-0.985831,0.048508,2025-04-03T22:36:59.484-05:00,-0.185522,-0.100465,0.065154,2025-04-03T22:36:59.493-05:00
21.000000,262.714949,0.664845,7.258972,44.936387,290.124949,359.878601,2.252789,3.000000,-93.166961,12.544114,2025-04-03T22:37:01.000-05:00,-0.228740,-0.974427,0.039183,2025-04-03T22:37:00.489-05:00,-0.167754,0.025793,0.029391,2025-04-03T22:37:00.488-05:00
22.000000,262.857322,0.664176,7.258897,44.936504,290.267322,359.878601,2.197156,3.000000,-93.166961,12.756494,2025-04-03T22:37:02.000-05:00,-0.244506,-0.960933,0.028633,2025-04-03T22:37:01.484-05:00,-0.276243,0.142442,-0.071525,2025-04-03T22:37:01.492-05:00
23.000000,263.008416,0.660844,7.258859,44.936621,290.418415,0.133635,2.099080,3.000000,-93.166958,12.815795,2025-04-03T22:37:03.000-05:00,-0.251843,-0.969515,0.027296,2025-04-03T22:37:02.488-05:00,-0.325012,0.055884,-0.073816,2025-04-03T22:37:02.487-05:00
24.000000,263.334257,0.661021,7.258166,44.936735,290.744257,0.133635,2.161942,3.000000,-93.166957,12.752793,2025-04-03T22:37:04.000-05:00,-0.238967,-0.972887,0.035892,2025-04-03T22:37:03.493-05:00,-0.201600,0.022508,-0.012813,2025-04-03T22:37:03.492-05:00
25.000000,263.681840,0.672569,7.258080,44.936847,291.091840,0.133635,2.611977,3.000000,-93.166955,12.587820,2025-04-03T22:37:05.000-05:00,-0.225920,-0.976393,0.041811,2025-04-03T22:37:04.488-05:00,-0.083551,-0.008995,0.053149,2025-04-03T22:37:04.487-05:00
26.000000,263.735137,0.668968,7.258616,44.936962,291.145137,0.679126,2.310367,3.000000,-93.166954,12.694246,2025-04-03T22:37:06.000-05:00,-0.224949,-0.970794,0.041965,2025-04-03T22:37:05.493-05:00,-0.027112,0.035992,0.042989,2025-04-03T22:37:05.491-05:00
27.000000,263.641847,0.677841,7.258822,44.937081,291.051847,359.884857,2.991198,3.000000,-93.166951,13.037093,2025-04-03T22:37:07.000-05:00,-0.220611,-0.963957,0.042312,2025-04-03T22:37:06.487-05:00,0.046694,0.094455,0.066722,2025-04-03T22:37:06.486-05:00
28.000000,264.216111,0.779352,7.257928,44.937198,291.626110,359.884857,2.497472,3.000000,-93.166958,13.106952,2025-04-03T22:37:08.000-05:00,-0.221864,-0.979953,0.033954,2025-04-03T22:37:07.492-05:00,-0.006305,-0.056465,0.013013,2025-04-03T22:37:07.491-05:00
29.000000,265.144968,0.728776,7.253112,44.937314,292.554968,359.884857,2.841327,3.000000,-93.166953,13.063664,2025-04-03T22:37:09.000-05:00,-0.219803,-0.971395,0.033102,2025-04-03T22:37:08.487-05:00,0.023148,0.028759,-0.002174,2025-04-03T22:37:08.486-05:00
30.000000,264.776455,0.682296,7.258338,44.937433,292.186455,359.884857,2.419123,3.000000,-93.166952,13.200783,2025-04-03T22:37:10.000-05:00,-0.229951,-0.978158,0.043596,2025-04-03T22:37:09.492-05:00,-0.077992,-0.038360,0.020303,2025-04-03T22:37:09.490-05:00
31.000000,264.953509,0.711964,7.257931,44.937554,292.363509,0.565810,2.289621,3.000000,-93.166956,13.327371,2025-04-03T22:37:11.000-05:00,-0.239453,-0.966790,0.044616,2025-04-03T22:37:10.486-05:00,-0.145564,0.064432,0.024815,2025-04-03T22:37:10.485-05:00
32.000000,265.185927,0.678671,7.257935,44.937674,292.595927,0.565810,2.301183,3.000000,-93.166951,13.256896,2025-04-03T22:37:12.000-05:00,-0.239765,-0.968079,0.050658,2025-04-03T22:37:11.491-05:00,-0.145032,0.051751,0.032378,2025-04-03T22:37:11.490-05:00
33.000000,265.475142,0.705557,7.257339,44.937796,292.885141,0.000000,2.148256,3.000000,-93.166953,13.438836,2025-04-03T22:37:13.000-05:00,-0.236021,-0.962536,0.054682,2025-04-03T22:37:12.486-05:00,-0.073824,0.094485,0.099030,2025-04-03T22:37:12.485-05:00
34.000000,265.587091,0.661605,7.257968,44.937915,292.997091,0.000000,2.072740,3.000000,-93.166955,13.382594,2025-04-03T22:37:14.000-05:00,-0.239818,-0.953734,0.022237,2025-04-03T22:37:13.491-05:00,-0.093157,0.184618,-0.111355,2025-04-03T22:37:13.489-05:00
35.000000,265.491266,0.661416,7.258884,44.938035,292.901266,0.000000,2.035777,3.000000,-93.166957,13.314448,2025-04-03T22:37:15.000-05:00,-0.244613,-0.948257,0.027371,2025-04-03T22:37:14.486-05:00,0.066658,0.185135,-0.068849,2025-04-03T22:37:14.484-05:00
36.000000,265.079683,0.653500,7.258403,44.938156,292.489683,0.000000,2.017516,3.000000,-93.166958,13.325792,2025-04-03T22:37:16.000-05:00,-0.271582,-0.961385,0.027632,2025-04-03T22:37:15.490-05:00,-0.148914,0.047429,-0.095557,2025-04-03T22:37:15.489-05:00
37.000000,264.744319,0.659969,7.257840,44.938277,292.154319,0.435847,2.008599,3.000000,-93.166958,13.323354,2025-04-03T22:37:17.000-05:00,-0.277312,-0.962131,0.034965,2025-04-03T22:37:16.485-05:00,-0.188132,0.027415,-0.121050,2025-04-03T22:37:16.484-05:00
38.000000,264.681699,0.656400,7.258402,44.938394,292.091699,0.435847,2.004241,3.000000,-93.166957,13.154880,2025-04-03T22:37:18.000-05:00,-0.279646,-0.956868,0.035588,2025-04-03T22:37:17.490-05:00,-0.208998,0.073483,-0.115552,2025-04-03T22:37:17.489-05:00
39.000000,264.502584,0.657177,7.258155,44.938511,291.912584,0.435847,2.166588,3.000000,-93.166955,12.989778,2025-04-03T22:37:19.000-05:00,-0.279603,-0.957827,0.039377,2025-04-03T22:37:18.485-05:00,-0.194892,0.070400,-0.069430,2025-04-03T22:37:18.493-05:00
40.000000,264.347168,0.660349,7.258192,44.938626,291.757168,0.435847,2.083571,3.000000,-93.166956,12.832445,2025-04-03T22:37:20.000-05:00,-0.280002,-0.961470,0.037419,2025-04-03T22:37:19.489-05:00,-0.224386,0.039120,-0.020451,2025-04-03T22:37:19.488-05:00
41.000000,263.686212,0.667921,7.253215,44.938730,291.096212,0.435847,2.100749,3.000000,-93.166956,11.989715,2025-04-03T22:37:21.000-05:00,-0.274190,-0.956442,0.029620,2025-04-03T22:37:20.484-05:00,-0.130928,0.082697,-0.057166,2025-04-03T22:37:20.493-05:00
42.000000,263.942766,0.668706,7.258482,44.938851,291.352766,0.435847,2.063838,3.000000,-93.166955,12.605064,2025-04-03T22:37:22.000-05:00,-0.273705,-0.967650,0.029974,2025-04-03T22:37:21.489-05:00,-0.140387,-0.018351,-0.073024,2025-04-03T22:37:21.488-05:00
43.000000,263.786630,0.662932,7.258604,44.938960,291.196630,0.283038,2.038993,3.000000,-93.166955,12.419641,2025-04-03T22:37:23.000-05:00,-0.279311,-0.951771,0.003233,2025-04-03T22:37:22.484-05:00,-0.250385,0.143636,-0.202328,2025-04-03T22:37:22.492-05:00
44.000000,263.741631,0.657324,7.258672,44.939068,291.151631,0.283038,2.020122,3.000000,-93.166955,12.043415,2025-04-03T22:37:24.000-05:00,-0.293527,-0.952058,0.005244,2025-04-03T22:37:23.488-05:00,-0.316382,0.128055,-0.064367,2025-04-03T22:37:23.487-05:00
45.000000,263.671897,0.664443,7.258611,44.939174,291.081897,0.225612,2.010484,3.000000,-93.166952,11.800202,2025-04-03T22:37:25.000-05:00,-0.311720,-0.952347,-0.006372,2025-04-03T22:37:24.493-05:00,-0.440273,0.111388,-0.106980,2025-04-03T22:37:24.492-05:00
46.000000,263.354028,0.660789,7.257277,44.939273,290.764028,0.225612,2.033740,3.000000,-93.166952,11.234747,2025-04-03T22:37:26.000-05:00,-0.331152,-0.948881,-0.007630,2025-04-03T22:37:25.488-05:00,-0.604721,0.137635,-0.155147,2025-04-03T22:37:25.487-05:00
47.000000,263.301989,0.669435,7.257883,44.939367,290.711989,359.584442,2.018342,3.000000,-93.166951,10.539336,2025-04-03T22:37:27.000-05:00,-0.347181,-0.942189,-0.010808,2025-04-03T22:37:26.493-05:00,-0.721309,0.191886,-0.215452,2025-04-03T22:37:26.491-05:00
48.000000,262.605515,0.778606,7.243473,44.939452,290.015515,359.584442,2.165035,3.000000,-93.166952,9.727311,2025-04-03T22:37:28.000-05:00,-0.362936,-0.939417,-0.011322,2025-04-03T22:37:27.487-05:00,-0.806596,0.199976,-0.240039,2025-04-03T22:37:27.486-05:00
49.000000,262.957048,0.669902,7.256686,44.939528,290.367048,0.000000,2.096418,3.000000,-93.166951,8.777570,2025-04-03T22:37:29.000-05:00,-0.368987,-0.936029,-0.009119,2025-04-03T22:37:28.492-05:00,-0.772610,0.203054,-0.209725,2025-04-03T22:37:28.491-05:00
50.000000,262.875576,0.663856,7.257290,44.939595,290.285576,0.000000,2.058483,3.000000,-93.166951,7.778456,2025-04-03T22:37:30.000-05:00,-0.361832,-0.936994,-0.000771,2025-04-03T22:37:29.487-05:00,-0.581413,0.158697,-0.135024,2025-04-03T22:37:29.486-05:00
51.000000,262.846409,0.675675,8.280371,44.939650,290.256409,359.692230,2.041063,3.000000,-93.166953,6.598345,2025-04-03T22:37:31.000-05:00,-0.356463,-0.941815,-0.001998,2025-04-03T22:37:30.492-05:00,-0.466458,0.090002,-0.175052,2025-04-03T22:37:30.490-05:00
52.000000,262.900814,0.664794,9.287150,44.939701,290.310814,359.692230,2.040078,3.000000,-93.166953,5.798285,2025-04-03T22:37:32.000-05:00,-0.338329,-0.941921,0.000969,2025-04-03T22:37:31.487-05:00,-0.315781,0.095248,-0.153255,2025-04-03T22:37:31.485-05:00
53.000000,262.945619,0.662506,11.334871,44.939740,290.355619,359.692230,2.032062,3.000000,-93.166953,4.734312,2025-04-03T22:37:33.000-05:00,-0.339551,-0.948423,0.005829,2025-04-03T22:37:32.491-05:00,-0.294084,0.023662,-0.088155,2025-04-03T22:37:32.490-05:00
54.000000,263.116523,0.663751,13.149029,44.939775,290.526523,359.692230,2.140577,3.000000,-93.166953,4.083906,2025-04-03T22:37:34.000-05:00,-0.341427,-0.943400,0.005397,2025-04-03T22:37:33.486-05:00,-0.282515,0.063125,-0.112105,2025-04-03T22:37:33.485-05:00
55.000000,263.149782,0.673591,17.055284,44.939800,290.559781,0.000000,2.156135,3.000000,-93.166952,3.199862,2025-04-03T22:37:35.000-05:00,-0.330262,-0.945878,0.010228,2025-04-03T22:37:34.491-05:00,-0.137206,0.025257,-0.071932,2025-04-03T22:37:34.490-05:00
56.000000,262.899197,0.865596,24.218835,44.939826,290.309197,0.000000,2.644087,3.000000,-93.166951,2.768345,2025-04-03T22:37:36.000-05:00,-0.303802,-0.953310,0.019356,2025-04-03T22:37:35.486-05:00,0.163888,-0.061329,0.011029,2025-04-03T22:37:35.484-05:00
57.000000,261.858468,1.129057,20.713862,44.939856,289.268468,0.000000,2.572521,3.000000,-93.166965,3.078351,2025-04-03T22:37:37.000-05:00,-0.283671,-0.958666,0.023711,2025-04-03T22:37:36.490-05:00,0.346593,-0.108642,0.060420,2025-04-03T22:37:36.489-05:00
58.000000,262.631448,0.668939,36.429350,44.939851,290.041448,0.000000,2.561422,3.000000,-93.166956,1.469616,2025-04-03T22:37:38.000-05:00,-0.275269,-0.960692,0.024243,2025-04-03T22:37:37.485-05:00,0.390962,-0.115264,0.077740,2025-04-03T22:37:37.484-05:00
59.000000,262.603167,0.679768,39.802323,44.939864,290.013167,0.000000,2.626359,3.000000,-93.166956,1.330258,2025-04-03T22:37:39.000-05:00,-0.247504,-0.967811,0.027907,2025-04-03T22:37:38.490-05:00,0.607174,-0.167619,0.138977,2025-04-03T22:37:38.489-05:00
60.000000,262.617535,0.864174,43.246589,44.939878,290.027535,0.000000,2.707858,3.000000,-93.166956,1.412815,2025-04-03T22:37:40.000-05:00,-0.222909,-0.973993,0.030086,2025-04-03T22:37:39.485-05:00,0.788318,-0.206357,0.171337,2025-04-03T22:37:39.493-05:00
61.000000,263.537418,0.938591,22.564482,44.939896,290.947418,0.000000,2.696778,3.000000,-93.166958,1.716156,2025-04-03T22:37:41.000-05:00,-0.152246,-0.990695,0.046489,2025-04-03T22:37:40.489-05:00,1.384928,-0.341548,0.338935,2025-04-03T22:37:40.488-05:00
62.000000,263.273703,0.795402,24.184770,44.939923,290.683703,0.000000,2.647008,3.000000,-93.166957,2.592268,2025-04-03T22:37:42.000-05:00,-0.111481,-0.997726,0.055934,2025-04-03T22:37:41.484-05:00,1.684036,-0.380584,0.405553,2025-04-03T22:37:41.493-05:00
63.000000,262.995526,0.676717,15.373724,44.939957,290.405526,0.000000,2.603874,3.000000,-93.166960,3.532649,2025-04-03T22:37:43.000-05:00,-0.141763,-0.994957,0.052501,2025-04-03T22:37:42.489-05:00,1.334196,-0.336302,0.314080,2025-04-03T22:37:42.488-05:00
64.000000,263.037232,0.673485,10.724656,44.940011,290.447232,0.000000,2.566132,3.000000,-93.166960,5.087388,2025-04-03T22:37:44.000-05:00,-0.154280,-0.998156,0.060140,2025-04-03T22:37:43.484-05:00,1.071999,-0.338030,0.265288,2025-04-03T22:37:43.492-05:00
65.000000,263.073762,0.662428,8.513342,44.940073,290.483762,0.000000,2.532830,3.000000,-93.166958,6.303058,2025-04-03T22:37:45.000-05:00,-0.157752,-0.985826,0.049287,2025-04-03T22:37:44.488-05:00,0.834576,-0.155117,0.252330,2025-04-03T22:37:44.487-05:00
66.000000,262.798970,0.668807,7.362445,44.940143,290.208970,0.000000,2.500624,3.000000,-93.166957,7.349987,2025-04-03T22:37:46.000-05:00,-0.165967,-0.963296,0.038192,2025-04-03T22:37:45.493-05:00,0.843290,0.034710,0.209157,2025-04-03T22:37:45.492-05:00
67.000000,261.978569,0.708428,7.210827,44.940216,289.388569,0.195503,2.414659,3.000000,-93.166948,8.103340,2025-04-03T22:37:47.000-05:00,-0.177635,-0.986384,0.053327,2025-04-03T22:37:46.488-05:00,0.815637,-0.206230,0.226905,2025-04-03T22:37:46.487-05:00
68.000000,262.042516,0.672951,7.251609,44.940299,289.452516,0.195503,2.305315,3.000000,-93.166956,8.932678,2025-04-03T22:37:48.000-05:00,-0.195868,-0.992581,0.040076,2025-04-03T22:37:47.493-05:00,0.534668,-0.246268,0.042093,2025-04-03T22:37:47.491-05:00
69.000000,262.238442,0.671550,7.258951,44.940388,289.648442,0.195503,2.424626,3.000000,-93.166954,9.512829,2025-04-03T22:37:49.000-05:00,-0.188371,-0.986531,0.042963,2025-04-03T22:37:48.487-05:00,0.492043,-0.158138,0.037796,2025-04-03T22:37:48.486-05:00
70.000000,262.811093,0.662413,7.251490,44.940484,290.221093,0.195503,2.407954,3.000000,-93.166955,10.280478,2025-04-03T22:37:50.000-05:00,-0.191066,-0.978046,0.037100,2025-04-03T22:37:49.492-05:00,0.374744,-0.052088,0.035523,2025-04-03T22:37:49.491-05:00
71.000000,262.261188,0.663061,7.258459,44.940589,289.671188,0.195503,2.600300,3.000000,-93.166950,11.190017,2025-04-03T22:37:51.000-05:00,-0.207755,-0.969867,0.040829,2025-04-03T22:37:50.487-05:00,0.170293,0.036641,0.031092,2025-04-03T22:37:50.486-05:00
72.000000,262.672324,0.666844,7.258793,44.940691,290.082324,0.195503,2.682449,3.000000,-93.166951,11.466900,2025-04-03T22:37:52.000-05:00,-0.246404,-0.966402,0.049708,2025-04-03T22:37:51.492-05:00,-0.135209,0.045446,-0.050535,2025-04-03T22:37:51.491-05:00
73.000000,262.345397,0.667096,7.258727,44.940796,289.755397,359.438293,2.363911,3.000000,-93.166949,11.584893,2025-04-03T22:37:53.000-05:00,-0.244167,-0.969010,0.064629,2025-04-03T22:37:52.487-05:00,-0.119321,0.016744,0.058775,2025-04-03T22:37:52.485-05:00
74.000000,262.621759,0.673272,7.258467,44.940906,290.031758,359.107178,2.192336,3.000000,-93.166950,11.921789,2025-04-03T22:37:54.000-05:00,-0.251477,-0.965677,0.054711,2025-04-03T22:37:53.491-05:00,-0.208110,0.057603,-0.021900,2025-04-03T22:37:53.490-05:00
75.000000,262.730305,0.825754,7.258525,44.941015,290.140304,359.107178,2.100983,3.000000,-93.166946,12.053579,2025-04-03T22:37:55.000-05:00,-0.254945,-0.962400,0.063351,2025-04-03T22:37:54.486-05:00,-0.241046,0.080434,-0.008927,2025-04-03T22:37:54.485-05:00
76.000000,262.568292,0.664037,7.258918,44.941126,289.978292,0.206405,2.052626,3.000000,-93.166956,12.317193,2025-04-03T22:37:56.000-05:00,-0.266286,-0.969097,0.046124,2025-04-03T22:37:55.491-05:00,-0.343216,0.020365,-0.145163,2025-04-03T22:37:55.490-05:00
77.000000,262.100729,0.669378,7.258478,44.941235,289.510729,0.206405,2.027221,3.000000,-93.166959,12.224999,2025-04-03T22:37:57.000-05:00,-0.281130,-0.970631,0.052101,2025-04-03T22:37:56.486-05:00,-0.511910,0.006306,-0.177174,2025-04-03T22:37:56.484-05:00
78.000000,261.604205,0.664277,7.257675,44.941344,289.014205,0.206405,2.014124,3.000000,-93.166958,12.097427,2025-04-03T22:37:58.000-05:00,-0.265587,-0.961431,0.024270,2025-04-03T22:37:57.490-05:00,-0.363384,0.103415,-0.219434,2025-04-03T22:37:57.489-05:00
79.000000,261.957634,0.663044,7.258791,44.941451,289.367634,0.000000,2.007379,3.000000,-93.166959,11.922825,2025-04-03T22:37:59.000-05:00,-0.236827,-0.952126,0.010918,2025-04-03T22:37:58.485-05:00,-0.169409,0.218838,-0.277035,2025-04-03T22:37:58.484-05:00
80.000000,261.842523,0.661320,7.258921,44.941556,289.252523,0.000000,2.003891,3.000000,-93.166959,11.728200,2025-04-03T22:38:00.000-05:00,-0.265544,-0.939735,0.011548,2025-04-03T22:37:59.490-05:00,-0.208252,0.297451,-0.136893,2025-04-03T22:37:59.489-05:00
