seconds_elapsed,location_altitude,location_speedAccuracy,location_bearingAccuracy,location_latitude,location_altitudeAboveMeanSeaLevel,location_bearing,location_horizontalAccuracy,location_verticalAccuracy,location_longitude,location_speed,location_local_time,accelerometerUncalibrated_z,accelerometerUncalibrated_y,accelerometerUncalibrated_x,accelerometerUncalibrated_local_time,accelerometer_z,accelerometer_y,accelerometer_x,accelerometer_local_time
0.000000,264.436380,-1.000000,-1.000000,44.941621,291.846379,-1.000000,43.571505,3.000000,-93.166826,-1.000000,2025-04-03T22:10:08.132-05:00,-0.160499,-0.966200,-0.011279,2025-04-03T22:10:08.135-05:00,1.111100,-0.034733,0.156768,2025-04-03T22:10:08.154-05:00
1.000000,253.640228,1.345000,11.790502,44.941541,281.050228,274.921875,5.367445,8.000000,-93.167100,9.210000,2025-04-03T22:10:09.265-05:00,-0.186307,-0.977787,-0.003992,2025-04-03T22:10:09.120-05:00,0.947225,-0.186340,0.177643,2025-04-03T22:10:09.118-05:00
2.000000,256.456299,1.010000,5.751593,44.941536,283.866299,269.296875,3.535534,3.000000,-93.167289,9.210000,2025-04-03T22:10:11.029-05:00,-0.225459,-0.963833,-0.013626,2025-04-03T22:10:10.124-05:00,0.712836,-0.095525,0.064601,2025-04-03T22:10:10.123-05:00
3.000000,255.107422,1.350000,7.798193,44.941536,282.517422,269.648438,3.535534,3.000000,-93.167411,9.370000,2025-04-03T22:10:12.028-05:00,-0.233333,-0.981894,0.018830,2025-04-03T22:10:11.119-05:00,0.587382,-0.252912,0.235152,2025-04-03T22:10:11.118-05:00
4.000000,253.775513,1.380000,7.489098,44.941533,281.185513,269.296875,3.535534,3.000000,-93.167537,9.370000,2025-04-03T22:10:13.027-05:00,-0.234836,-0.964384,0.013868,2025-04-03T22:10:12.124-05:00,0.578736,-0.083640,0.183707,2025-04-03T22:10:12.122-05:00
5.000000,253.448425,0.720000,3.766921,44.941527,280.858425,268.242188,3.535534,3.000000,-93.167701,12.350000,2025-04-03T22:10:14.028-05:00,-0.247664,-0.971081,-0.015325,2025-04-03T22:10:13.118-05:00,0.388810,-0.130773,-0.044454,2025-04-03T22:10:13.117-05:00
6.000000,253.218018,0.310000,1.701819,44.941526,280.628017,270.069122,3.535534,3.000000,-93.167845,12.350000,2025-04-03T22:10:15.000-05:00,-0.263252,-0.954901,-0.030035,2025-04-03T22:10:14.123-05:00,0.226165,0.032155,-0.181372,2025-04-03T22:10:14.122-05:00
7.000000,253.121460,0.130000,0.748947,44.941523,280.531460,270.069122,3.535534,3.000000,-93.167999,11.940000,2025-04-03T22:10:16.000-05:00,-0.267376,-0.965943,-0.029675,2025-04-03T22:10:15.118-05:00,0.163682,-0.070052,-0.144663,2025-04-03T22:10:15.117-05:00
8.000000,252.497192,0.260000,1.404984,44.941524,279.907192,270.081268,3.535534,3.000000,-93.168151,11.940000,2025-04-03T22:10:17.000-05:00,-0.274502,-0.956144,-0.031043,2025-04-03T22:10:16.122-05:00,0.059276,0.022704,-0.127609,2025-04-03T22:10:16.121-05:00
9.000000,252.184631,0.310000,1.688011,44.941525,279.594631,270.081268,3.535534,3.000000,-93.168304,12.020000,2025-04-03T22:10:18.000-05:00,-0.285279,-0.955388,-0.029660,2025-04-03T22:10:17.117-05:00,-0.038424,0.049694,-0.109932,2025-04-03T22:10:17.126-05:00
10.000000,251.953247,1.550000,6.599803,44.941534,279.363247,270.081268,3.535534,3.000000,-93.168453,11.690000,2025-04-03T22:10:19.000-05:00,-0.290703,-0.956489,-0.024080,2025-04-03T22:10:18.122-05:00,-0.103964,0.034564,-0.057072,2025-04-03T22:10:18.121-05:00
11.000000,251.979553,2.620000,7.916918,44.941522,279.389553,270.081268,3.535534,3.000000,-93.168598,11.690000,2025-04-03T22:10:20.000-05:00,-0.277377,-0.960509,-0.026344,2025-04-03T22:10:19.126-05:00,-0.001748,0.000319,-0.056722,2025-04-03T22:10:19.125-05:00
12.000000,251.814880,0.870000,4.299894,44.941524,279.224880,270.081268,3.535534,3.000000,-93.168760,11.690000,2025-04-03T22:10:21.000-05:00,-0.270509,-0.956081,-0.025087,2025-04-03T22:10:20.121-05:00,0.047561,0.047821,-0.033441,2025-04-03T22:10:20.120-05:00
13.000000,251.814891,0.870000,7.258975,44.941522,279.224891,270.081268,4.748652,4.029364,-93.168908,11.690000,2025-04-03T22:10:22.000-05:00,-0.276809,-0.971138,-0.023149,2025-04-03T22:10:21.126-05:00,-0.025306,-0.093142,-0.070585,2025-04-03T22:10:21.125-05:00
14.000000,251.725720,0.850000,7.258975,44.941518,279.135720,270.081268,4.748652,4.029364,-93.169077,12.580000,2025-04-03T22:10:23.000-05:00,-0.276320,-0.970362,-0.015470,2025-04-03T22:10:22.120-05:00,-0.152243,-0.050100,-0.042678,2025-04-03T22:10:22.119-05:00
15.000000,251.226636,1.010000,7.258975,44.941526,278.636636,270.155579,4.748652,4.029364,-93.169241,12.620000,2025-04-03T22:10:24.000-05:00,-0.269581,-0.965498,-0.032444,2025-04-03T22:10:23.125-05:00,-0.131411,0.009247,-0.144492,2025-04-03T22:10:23.124-05:00
16.000000,251.312024,0.880000,7.258975,44.941523,278.722024,270.155579,4.748652,4.029364,-93.169400,12.720000,2025-04-03T22:10:25.000-05:00,-0.266830,-0.963165,-0.013718,2025-04-03T22:10:24.120-05:00,-0.139287,0.042700,-0.084596,2025-04-03T22:10:24.119-05:00
17.000000,251.268995,1.630000,10.383365,44.941517,278.678994,270.155579,4.748652,4.029364,-93.169560,12.720000,2025-04-03T22:10:26.000-05:00,-0.272994,-0.963113,-0.007801,2025-04-03T22:10:25.124-05:00,-0.177301,0.035878,-0.068545,2025-04-03T22:10:25.123-05:00
18.000000,251.607373,1.150000,7.448660,44.941527,279.017373,270.101074,4.748652,4.029364,-93.169719,12.510000,2025-04-03T22:10:27.000-05:00,-0.262004,-0.958398,-0.009779,2025-04-03T22:10:26.119-05:00,-0.056568,0.082941,-0.091265,2025-04-03T22:10:26.118-05:00
19.000000,251.378430,0.910000,7.258975,44.941530,278.788430,270.101074,4.748652,4.029364,-93.169886,12.510000,2025-04-03T22:10:28.000-05:00,-0.260214,-0.968164,-0.000935,2025-04-03T22:10:27.124-05:00,-0.048420,-0.012845,-0.030876,2025-04-03T22:10:27.123-05:00
20.000000,251.238539,1.290000,8.084046,44.941521,278.648538,270.101074,4.748652,4.029364,-93.170055,12.930000,2025-04-03T22:10:29.000-05:00,-0.263612,-0.968852,0.005878,2025-04-03T22:10:28.118-05:00,-0.091531,-0.016809,0.016426,2025-04-03T22:10:28.117-05:00
21.000000,251.573499,0.800000,7.258975,44.941533,278.983499,270.101074,4.748652,4.029364,-93.170217,12.860000,2025-04-03T22:10:30.000-05:00,-0.261924,-0.957856,-0.003845,2025-04-03T22:10:29.123-05:00,-0.091234,0.094448,-0.006164,2025-04-03T22:10:29.122-05:00
22.000000,251.284986,0.910000,7.258975,44.941524,278.694986,270.101074,4.748652,4.029364,-93.170378,12.860000,2025-04-03T22:10:31.000-05:00,-0.265420,-0.966574,-0.010021,2025-04-03T22:10:30.118-05:00,-0.123468,0.011649,-0.080578,2025-04-03T22:10:30.117-05:00
23.000000,250.942518,0.950000,7.258975,44.941520,278.352518,270.101074,4.748652,4.029364,-93.170542,12.860000,2025-04-03T22:10:32.000-05:00,-0.267777,-0.958226,0.000319,2025-04-03T22:10:31.122-05:00,-0.104114,0.072585,-0.043956,2025-04-03T22:10:31.121-05:00
24.000000,250.989210,1.200000,7.614265,44.941529,278.399209,270.000000,4.748652,4.029364,-93.170698,12.770000,2025-04-03T22:10:33.000-05:00,-0.258144,-0.964074,-0.011966,2025-04-03T22:10:32.117-05:00,-0.061040,0.043192,-0.071264,2025-04-03T22:10:32.126-05:00
25.000000,250.286512,0.910000,7.258975,44.941532,277.696512,270.000000,4.748652,4.029364,-93.170863,12.850000,2025-04-03T22:10:34.000-05:00,-0.249006,-0.966715,-0.020501,2025-04-03T22:10:33.122-05:00,-0.002648,0.014874,-0.024586,2025-04-03T22:10:33.121-05:00
26.000000,250.567763,0.690000,7.258975,44.941531,277.977763,270.052673,4.748652,4.029364,-93.171033,13.230000,2025-04-03T22:10:35.000-05:00,-0.253325,-0.961857,-0.016653,2025-04-03T22:10:34.117-05:00,0.031831,0.042783,-0.014964,2025-04-03T22:10:34.125-05:00
27.000000,250.522841,1.590000,9.738116,44.941533,277.932841,270.052673,4.748652,4.029364,-93.171199,13.230000,2025-04-03T22:10:36.000-05:00,-0.258635,-0.970116,-0.011712,2025-04-03T22:10:35.121-05:00,-0.017348,-0.035338,-0.036661,2025-04-03T22:10:35.120-05:00
28.000000,250.509291,1.020000,7.258975,44.941531,277.919291,270.052673,4.748652,4.029364,-93.171374,13.230000,2025-04-03T22:10:37.000-05:00,-0.265708,-0.962318,-0.014235,2025-04-03T22:10:36.126-05:00,-0.092841,0.041832,-0.059208,2025-04-03T22:10:36.125-05:00
29.000000,250.405409,0.350000,7.258975,44.941534,277.815409,270.052673,4.748652,4.029364,-93.171542,13.280000,2025-04-03T22:10:38.000-05:00,-0.260930,-0.961586,-0.016166,2025-04-03T22:10:37.121-05:00,-0.050500,0.048040,-0.056500,2025-04-03T22:10:37.119-05:00
30.000000,250.261000,0.308016,7.258975,44.941533,277.671000,270.052673,4.748652,4.029364,-93.171710,13.400000,2025-04-03T22:10:39.000-05:00,-0.263899,-0.967037,-0.018241,2025-04-03T22:10:38.125-05:00,-0.075123,-0.004006,-0.069429,2025-04-03T22:10:38.124-05:00
31.000000,250.095107,0.308016,7.258975,44.941534,277.505107,270.052673,4.748652,4.029364,-93.171881,13.470000,2025-04-03T22:10:40.000-05:00,-0.260386,-0.958611,-0.013116,2025-04-03T22:10:39.120-05:00,-0.038347,0.076385,-0.021868,2025-04-03T22:10:39.119-05:00
32.000000,249.704970,0.308017,7.258975,44.941537,277.114970,270.052673,4.748652,4.029364,-93.172051,13.480000,2025-04-03T22:10:41.000-05:00,-0.252873,-0.964170,-0.017332,2025-04-03T22:10:40.124-05:00,0.039964,0.020748,-0.055836,2025-04-03T22:10:40.123-05:00
33.000000,253.686370,1.270379,7.642261,44.941526,281.096369,270.068512,2.000000,3.000000,-93.172239,13.466954,2025-04-03T22:10:42.000-05:00,-0.257896,-0.970035,-0.007277,2025-04-03T22:10:41.119-05:00,0.014073,-0.040040,-0.010665,2025-04-03T22:10:41.118-05:00
34.000000,253.666182,1.270374,7.482450,44.941527,281.076182,270.068512,2.043977,3.000000,-93.172414,13.754882,2025-04-03T22:10:43.000-05:00,-0.256185,-0.960634,-0.010260,2025-04-03T22:10:42.124-05:00,-0.001745,0.055866,-0.003534,2025-04-03T22:10:42.123-05:00
35.000000,253.589572,1.156868,7.258965,44.941528,280.999572,270.068512,2.021988,3.000000,-93.172588,13.746526,2025-04-03T22:10:44.000-05:00,-0.254624,-0.963681,-0.017273,2025-04-03T22:10:43.119-05:00,0.035136,0.023556,-0.041639,2025-04-03T22:10:43.117-05:00
36.000000,253.459236,1.268762,7.399768,44.941526,280.869236,270.068512,2.010421,3.000000,-93.172769,13.891205,2025-04-03T22:10:45.000-05:00,-0.256127,-0.968629,-0.005729,2025-04-03T22:10:44.123-05:00,0.005372,-0.025101,0.023454,2025-04-03T22:10:44.122-05:00
37.000000,253.357926,1.269950,7.337255,44.941528,280.767926,270.068512,2.004942,3.000000,-93.172949,14.023021,2025-04-03T22:10:46.000-05:00,-0.272587,-0.957795,-0.006192,2025-04-03T22:10:45.118-05:00,-0.104273,0.076332,0.016323,2025-04-03T22:10:45.117-05:00
38.000000,253.126880,1.269629,7.325674,44.941529,280.536880,270.068512,2.002341,3.000000,-93.173127,14.039845,2025-04-03T22:10:47.000-05:00,-0.272836,-0.962462,-0.005591,2025-04-03T22:10:46.123-05:00,-0.109837,0.031626,-0.036605,2025-04-03T22:10:46.121-05:00
39.000000,253.081325,1.269675,7.341797,44.941529,280.491325,270.068512,2.001118,3.000000,-93.173304,14.010746,2025-04-03T22:10:48.000-05:00,-0.286657,-0.964404,-0.013772,2025-04-03T22:10:47.117-05:00,-0.280481,0.013239,-0.060620,2025-04-03T22:10:47.126-05:00
40.000000,252.852495,1.267606,7.381503,44.941530,280.262494,270.068512,2.000529,3.000000,-93.173481,13.912174,2025-04-03T22:10:49.000-05:00,-0.273531,-0.934775,-0.038091,2025-04-03T22:10:48.122-05:00,-0.142983,0.292058,-0.179677,2025-04-03T22:10:48.121-05:00
41.000000,252.520316,1.269011,7.491208,44.941530,279.930316,270.032296,2.000257,3.000000,-93.173651,13.720902,2025-04-03T22:10:50.000-05:00,-0.281793,-0.965885,-0.031359,2025-04-03T22:10:49.117-05:00,-0.120596,-0.024338,-0.245008,2025-04-03T22:10:49.125-05:00
42.000000,252.362781,1.264532,7.542014,44.941532,279.772780,270.137981,2.000124,3.000000,-93.173822,13.581687,2025-04-03T22:10:51.000-05:00,-0.268336,-0.960096,-0.063916,2025-04-03T22:10:50.121-05:00,-0.007660,0.034570,-0.565465,2025-04-03T22:10:50.120-05:00
43.000000,252.187280,1.271291,7.517889,44.941541,279.597280,271.524889,2.000060,3.000000,-93.173998,13.698109,2025-04-03T22:10:52.000-05:00,-0.257512,-0.958888,-0.127680,2025-04-03T22:10:51.126-05:00,0.118710,0.038080,-1.114039,2025-04-03T22:10:51.125-05:00
44.000000,252.104059,1.445472,9.237161,44.941519,279.514058,264.312366,2.000030,3.000000,-93.174149,12.676930,2025-04-03T22:10:53.000-05:00,-0.263365,-0.969355,-0.105904,2025-04-03T22:10:52.121-05:00,0.043670,-0.056325,-0.948220,2025-04-03T22:10:52.119-05:00
45.000000,251.896053,0.680594,7.258428,44.941586,279.306053,281.477197,2.671653,3.000000,-93.174316,12.781375,2025-04-03T22:10:54.000-05:00,-0.253922,-0.944296,-0.038156,2025-04-03T22:10:53.125-05:00,0.106870,0.189039,-0.099037,2025-04-03T22:10:53.124-05:00
46.000000,251.669958,0.732880,7.257624,44.941611,279.079958,281.079943,2.329960,3.000000,-93.174482,12.836620,2025-04-03T22:10:55.000-05:00,-0.268959,-0.970915,-0.045399,2025-04-03T22:10:54.120-05:00,-0.109608,-0.071986,0.268224,2025-04-03T22:10:54.119-05:00
47.000000,251.324987,0.670133,7.257607,44.941636,278.734987,281.011198,2.163746,3.000000,-93.174650,13.238813,2025-04-03T22:10:56.000-05:00,-0.281654,-0.963585,-0.010136,2025-04-03T22:10:55.125-05:00,-0.240137,0.001076,0.596935,2025-04-03T22:10:55.123-05:00
48.000000,251.029458,0.670972,7.258115,44.941654,278.439458,271.209106,2.081436,3.000000,-93.174815,13.249093,2025-04-03T22:10:57.000-05:00,-0.285936,-0.955220,0.020210,2025-04-03T22:10:56.119-05:00,-0.275401,0.088816,0.793341,2025-04-03T22:10:56.118-05:00
49.000000,250.718863,0.671234,7.257112,44.941659,278.128863,270.000000,2.040640,3.000000,-93.174980,13.195224,2025-04-03T22:10:58.000-05:00,-0.284820,-0.965503,0.020342,2025-04-03T22:10:57.124-05:00,-0.196714,-0.029499,0.768657,2025-04-03T22:10:57.123-05:00
50.000000,250.454286,0.687206,7.256893,44.941658,277.864286,270.000000,2.020302,3.000000,-93.175144,13.133229,2025-04-03T22:10:58.999-05:00,-0.258447,-0.964694,-0.038190,2025-04-03T22:10:58.119-05:00,0.017506,-0.009073,0.219042,2025-04-03T22:10:58.117-05:00
51.000000,250.596902,0.693540,7.258648,44.941657,278.006902,270.000000,2.010061,3.000000,-93.175311,13.105917,2025-04-03T22:10:59.999-05:00,-0.264502,-0.965972,-0.049401,2025-04-03T22:10:59.123-05:00,-0.049910,-0.021886,0.119626,2025-04-03T22:10:59.122-05:00
52.000000,250.664784,0.672778,7.258932,44.941656,278.074784,270.000000,2.004980,3.000000,-93.175481,13.262599,2025-04-03T22:11:00.999-05:00,-0.257694,-0.957934,-0.048427,2025-04-03T22:11:00.118-05:00,0.034046,0.055215,0.100281,2025-04-03T22:11:00.117-05:00
53.000000,250.206270,0.664741,7.257367,44.941657,277.616270,270.000000,2.002459,3.000000,-93.175647,13.155422,2025-04-03T22:11:01.999-05:00,-0.255882,-0.961843,-0.059728,2025-04-03T22:11:01.123-05:00,0.061602,0.011908,-0.042541,2025-04-03T22:11:01.121-05:00
54.000000,250.248060,0.708554,7.258129,44.941654,277.658060,270.000000,2.407735,3.000000,-93.175815,13.225767,2025-04-03T22:11:02.999-05:00,-0.263867,-0.960956,-0.069468,2025-04-03T22:11:02.117-05:00,0.013420,0.018048,-0.104291,2025-04-03T22:11:02.126-05:00
55.000000,249.821319,0.669705,7.256846,44.941652,277.231319,270.000000,2.639140,3.000000,-93.175980,13.179712,2025-04-03T22:11:03.999-05:00,-0.274901,-0.955125,-0.067850,2025-04-03T22:11:03.122-05:00,-0.087288,0.061893,-0.093777,2025-04-03T22:11:03.121-05:00
56.000000,249.441190,0.696063,7.256019,44.941656,276.851190,270.000000,2.844214,3.000000,-93.176147,13.124831,2025-04-03T22:11:04.999-05:00,-0.325458,-0.938642,-0.076579,2025-04-03T22:11:04.117-05:00,-0.571463,0.234327,-0.148629,2025-04-03T22:11:04.125-05:00
57.000000,249.174060,0.686903,7.255759,44.941652,276.584059,270.000000,2.729573,3.000000,-93.176299,12.316537,2025-04-03T22:11:05.999-05:00,-0.357379,-0.936984,-0.091147,2025-04-03T22:11:05.121-05:00,-0.868014,0.231133,-0.208708,2025-04-03T22:11:05.120-05:00
58.000000,248.820482,0.686748,7.256608,44.941653,276.230482,269.798828,2.387619,3.000000,-93.176441,11.466185,2025-04-03T22:11:06.999-05:00,-0.358012,-0.945907,-0.120865,2025-04-03T22:11:06.126-05:00,-0.964443,0.157081,-0.343575,2025-04-03T22:11:06.125-05:00
59.000000,248.301797,0.705778,7.247294,44.941655,275.711797,269.798828,2.363755,3.000000,-93.176567,10.314219,2025-04-03T22:11:07.999-05:00,-0.356819,-0.921705,-0.122021,2025-04-03T22:11:07.121-05:00,-0.859215,0.362528,-0.288269,2025-04-03T22:11:07.119-05:00
60.000000,248.010680,0.707210,7.239891,44.941657,275.420680,269.798828,2.209952,3.000000,-93.176673,8.937647,2025-04-03T22:11:08.999-05:00,-0.373672,-0.931432,-0.136917,2025-04-03T22:11:08.125-05:00,-0.971378,0.244777,-0.367040,2025-04-03T22:11:08.124-05:00
61.000000,248.129790,0.699156,7.248759,44.941656,275.539790,269.798828,2.125941,3.000000,-93.176771,7.889947,2025-04-03T22:11:09.999-05:00,-0.350588,-0.935911,-0.135061,2025-04-03T22:11:09.120-05:00,-0.714382,0.188553,-0.307201,2025-04-03T22:11:09.119-05:00
62.000000,248.639443,0.859838,9.374619,44.941660,276.049443,269.798828,2.257360,3.000000,-93.176867,7.435564,2025-04-03T22:11:10.999-05:00,-0.383084,-0.921086,-0.125064,2025-04-03T22:11:10.125-05:00,-0.975603,0.322129,-0.259101,2025-04-03T22:11:10.123-05:00
63.000000,247.366635,0.814954,11.739105,44.941661,274.776635,269.798828,2.257762,3.000000,-93.176914,5.361620,2025-04-03T22:11:11.999-05:00,-0.393553,-0.925299,-0.131566,2025-04-03T22:11:11.119-05:00,-1.042838,0.267474,-0.319202,2025-04-03T22:11:11.118-05:00
64.000000,247.950621,0.691211,13.406833,44.941661,275.360621,269.798828,2.219265,3.000000,-93.176962,4.171833,2025-04-03T22:11:12.999-05:00,-0.396487,-0.924784,-0.128804,2025-04-03T22:11:12.124-05:00,-1.033262,0.264330,-0.308131,2025-04-03T22:11:12.123-05:00
65.000000,248.529952,0.720871,18.454693,44.941661,275.939952,269.798828,2.182721,3.000000,-93.176997,2.984815,2025-04-03T22:11:13.999-05:00,-0.355012,-0.928631,-0.116961,2025-04-03T22:11:13.119-05:00,-0.574008,0.213747,-0.222595,2025-04-03T22:11:13.117-05:00
66.000000,248.274735,0.685551,33.413419,44.941661,275.684735,269.798828,2.247541,3.000000,-93.177010,1.659451,2025-04-03T22:11:14.999-05:00,-0.324784,-0.942329,-0.099907,2025-04-03T22:11:14.123-05:00,-0.243200,0.073895,-0.110621,2025-04-03T22:11:14.122-05:00
67.000000,,,,,,,,,,,,-0.313894,-0.946769,-0.092667,2025-04-03T22:11:15.118-05:00,-0.105706,0.025500,-0.099259,2025-04-03T22:11:15.117-05:00
