seconds_elapsed,location_altitude,location_speedAccuracy,location_bearingAccuracy,location_latitude,location_altitudeAboveMeanSeaLevel,location_bearing,location_horizontalAccuracy,location_verticalAccuracy,location_longitude,location_speed,location_local_time,accelerometerUncalibrated_z,accelerometerUncalibrated_y,accelerometerUncalibrated_x,accelerometerUncalibrated_local_time,accelerometer_z,accelerometer_y,accelerometer_x,accelerometer_local_time
0.000000,259.073682,-1.000000,-1.000000,44.941493,286.483681,-1.000000,484.722026,3.000000,-93.166835,-1.000000,2025-03-06T18:42:10.095-06:00,-0.232429,-0.961231,-0.131489,2025-03-06T18:42:10.087-06:00,0.204459,0.060957,-1.162789,2025-03-06T18:42:10.094-06:00
1.000000,256.964600,2.990000,37.452588,44.941679,284.374599,151.171875,6.784499,8.000000,-93.167136,4.780000,2025-03-06T18:42:11.999-06:00,-0.148100,-0.978431,-0.060893,2025-03-06T18:42:11.071-06:00,1.023761,-0.137295,-0.271239,2025-03-06T18:42:11.069-06:00
2.000000,260.124756,0.990000,12.896376,44.941682,287.534756,270.292633,3.535534,3.000000,-93.167292,4.780000,2025-03-06T18:42:12.999-06:00,-0.164234,-0.982242,-0.045134,2025-03-06T18:42:12.076-06:00,1.017602,-0.172369,-0.012658,2025-03-06T18:42:12.073-06:00
3.000000,259.352478,0.090000,0.911619,44.941689,286.762478,274.218750,3.535534,3.000000,-93.167369,4.970000,2025-03-06T18:42:13.999-06:00,-0.226898,-0.980895,0.007458,2025-03-06T18:42:13.071-06:00,0.342726,-0.180052,0.459686,2025-03-06T18:42:13.078-06:00
4.000000,259.495361,0.510000,4.700592,44.941689,286.905361,273.515625,3.535534,3.000000,-93.167463,7.100000,2025-03-06T18:42:14.999-06:00,-0.228472,-0.961927,-0.026782,2025-03-06T18:42:14.075-06:00,0.239374,0.050834,0.230694,2025-03-06T18:42:14.073-06:00
5.000000,259.148682,0.270000,2.414678,44.941690,286.558681,268.593750,3.535534,3.000000,-93.167562,7.380000,2025-03-06T18:42:15.999-06:00,-0.220562,-0.983963,0.016310,2025-03-06T18:42:15.070-06:00,0.209347,-0.135290,0.441190,2025-03-06T18:42:15.077-06:00
6.000000,258.697754,0.140000,1.133425,44.941694,286.107754,268.945312,3.535534,3.000000,-93.167663,7.380000,2025-03-06T18:42:17.000-06:00,-0.230730,-0.964611,0.008250,2025-03-06T18:42:16.075-06:00,0.015987,0.072515,0.313125,2025-03-06T18:42:16.072-06:00
7.000000,258.162537,0.180000,1.495451,44.941693,285.572536,269.296875,3.535534,3.000000,-93.167762,7.840000,2025-03-06T18:42:18.000-06:00,-0.270322,-0.961159,-0.016797,2025-03-06T18:42:17.069-06:00,-0.389213,0.106097,0.186456,2025-03-06T18:42:17.077-06:00
8.000000,257.302856,1.820000,17.077882,44.941692,284.712856,270.351562,3.535534,3.000000,-93.167856,6.880000,2025-03-06T18:42:19.000-06:00,-0.229300,-0.968883,-0.013974,2025-03-06T18:42:18.074-06:00,-0.011479,0.063756,0.133063,2025-03-06T18:42:18.071-06:00
9.000000,257.763916,2.160000,16.964814,44.941693,285.173916,271.406250,3.535534,3.000000,-93.167966,8.180000,2025-03-06T18:42:20.000-06:00,-0.254955,-0.972867,-0.032274,2025-03-06T18:42:19.069-06:00,-0.304710,-0.002889,0.104989,2025-03-06T18:42:19.076-06:00
10.000000,256.745239,2.090000,15.474195,44.941674,284.155239,260.156250,3.535534,3.000000,-93.168069,8.180000,2025-03-06T18:42:21.000-06:00,-0.263492,-0.945376,-0.041154,2025-03-06T18:42:20.073-06:00,-0.336826,0.263850,-0.005649,2025-03-06T18:42:20.071-06:00
11.000000,255.884033,0.800000,6.460479,44.941683,283.294033,270.000000,3.535534,3.000000,-93.168175,8.180000,2025-03-06T18:42:22.000-06:00,-0.273457,-0.967800,-0.014388,2025-03-06T18:42:21.078-06:00,-0.498152,0.088998,0.208441,2025-03-06T18:42:21.075-06:00
12.000000,255.884038,0.800000,7.924544,44.941683,283.294038,269.999927,4.748652,4.029364,-93.168279,8.180000,2025-03-06T18:42:23.000-06:00,-0.300810,-0.945147,-0.008922,2025-03-06T18:42:22.073-06:00,-0.645783,0.205902,0.112828,2025-03-06T18:42:22.070-06:00
13.000000,255.683843,0.308016,7.258975,44.941681,283.093843,269.296801,4.748652,4.029364,-93.168388,8.270000,2025-03-06T18:42:24.000-06:00,-0.286136,-0.962721,-0.015364,2025-03-06T18:42:23.077-06:00,-0.469130,0.113817,0.098950,2025-03-06T18:42:23.075-06:00
14.000000,255.576787,0.620000,7.258975,44.941680,282.986787,269.296805,4.748652,4.029364,-93.168479,7.810000,2025-03-06T18:42:25.000-06:00,-0.275139,-0.957056,-0.039635,2025-03-06T18:42:24.072-06:00,-0.351278,0.126723,-0.189336,2025-03-06T18:42:24.069-06:00
15.000000,255.051091,0.308016,7.258975,44.941679,282.461091,269.648366,4.748652,4.029364,-93.168583,7.950000,2025-03-06T18:42:26.000-06:00,-0.283183,-0.950909,-0.024908,2025-03-06T18:42:25.077-06:00,-0.469025,0.197369,-0.009464,2025-03-06T18:42:25.074-06:00
16.000000,254.567144,0.308016,7.258975,44.941682,281.977143,271.406179,4.748652,4.029364,-93.168686,7.900000,2025-03-06T18:42:27.000-06:00,-0.333204,-0.945017,-0.012689,2025-03-06T18:42:26.071-06:00,-0.797860,0.254147,0.011824,2025-03-06T18:42:26.069-06:00
17.000000,254.505681,0.308016,7.258975,44.941681,281.915681,269.999929,4.748652,4.029364,-93.168783,7.900000,2025-03-06T18:42:28.000-06:00,-0.355302,-0.948988,-0.043230,2025-03-06T18:42:27.076-06:00,-1.069310,0.174415,-0.194727,2025-03-06T18:42:27.073-06:00
18.000000,254.711979,0.308016,7.258975,44.941683,282.121979,270.703061,4.748652,4.029364,-93.168855,7.200000,2025-03-06T18:42:29.000-06:00,-0.369347,-0.928116,-0.036072,2025-03-06T18:42:28.071-06:00,-1.183379,0.388688,-0.142521,2025-03-06T18:42:28.078-06:00
19.000000,254.604616,0.308016,7.258975,44.941678,282.014616,268.945266,4.748652,4.029364,-93.168903,5.160000,2025-03-06T18:42:30.000-06:00,-0.371796,-0.933512,-0.053886,2025-03-06T18:42:29.075-06:00,-1.084743,0.305532,-0.183189,2025-03-06T18:42:29.073-06:00
20.000000,254.186098,0.308016,7.258975,44.941682,281.596098,272.460891,4.748652,4.029364,-93.168963,5.160000,2025-03-06T18:42:31.000-06:00,-0.412888,-0.923066,-0.064667,2025-03-06T18:42:30.070-06:00,-1.431502,0.385924,-0.273129,2025-03-06T18:42:30.077-06:00
21.000000,254.183351,1.580000,31.074026,44.941670,281.593351,263.320276,4.748652,4.029364,-93.169006,4.120000,2025-03-06T18:42:32.000-06:00,-0.393629,-0.934762,-0.054081,2025-03-06T18:42:31.075-06:00,-1.070983,0.235776,-0.156881,2025-03-06T18:42:31.072-06:00
22.000000,253.965089,1.910000,58.828337,44.941676,281.375089,271.054651,4.748652,4.029364,-93.169019,4.030000,2025-03-06T18:42:33.000-06:00,-0.282748,-0.952194,-0.043462,2025-03-06T18:42:32.069-06:00,0.022546,0.052462,0.005530,2025-03-06T18:42:32.077-06:00
23.000000,254.475281,1.920000,116.100487,44.941680,281.885281,271.054676,4.748652,4.029364,-93.168991,1.340000,2025-03-06T18:42:34.000-06:00,-0.187659,-0.983212,-0.024451,2025-03-06T18:42:33.074-06:00,0.940826,-0.248709,0.219874,2025-03-06T18:42:33.071-06:00
24.000000,254.229492,0.600000,32.628915,44.941677,281.639492,261.210924,4.748652,4.029364,-93.169019,1.490000,2025-03-06T18:42:35.000-06:00,-0.161452,-0.994261,-0.009839,2025-03-06T18:42:34.069-06:00,1.065531,-0.311168,0.337419,2025-03-06T18:42:34.076-06:00
25.000000,254.044617,0.308016,11.608391,44.941684,281.454617,272.812481,4.748652,4.029364,-93.169058,2.150000,2025-03-06T18:42:36.000-06:00,-0.172749,-0.983584,-0.030172,2025-03-06T18:42:35.073-06:00,0.785083,-0.179160,0.088165,2025-03-06T18:42:35.071-06:00
26.000000,254.398499,0.720000,27.135115,44.941684,281.808499,270.703106,4.748652,4.029364,-93.169095,2.150000,2025-03-06T18:42:37.000-06:00,-0.171036,-0.993205,-0.001540,2025-03-06T18:42:36.078-06:00,0.801100,-0.261800,0.357633,2025-03-06T18:42:36.075-06:00
27.000000,254.635010,0.308016,8.636000,44.941684,282.045010,270.234100,4.748652,4.029364,-93.169144,2.890000,2025-03-06T18:42:38.000-06:00,-0.147367,-0.976174,-0.015181,2025-03-06T18:42:37.073-06:00,1.019452,-0.081574,0.173756,2025-03-06T18:42:37.070-06:00
28.000000,254.712892,0.308016,7.258975,44.941686,282.122892,269.648405,4.748652,4.029364,-93.169203,3.660000,2025-03-06T18:42:39.000-06:00,-0.191157,-0.969648,-0.023427,2025-03-06T18:42:38.077-06:00,0.582849,-0.047113,0.101237,2025-03-06T18:42:38.075-06:00
29.000000,254.729861,0.308016,7.258975,44.941685,282.139860,268.945266,4.748652,4.029364,-93.169283,5.170000,2025-03-06T18:42:40.000-06:00,-0.210054,-0.964647,-0.009335,2025-03-06T18:42:39.072-06:00,0.585991,-0.011234,0.081960,2025-03-06T18:42:39.069-06:00
30.000000,254.490725,0.308016,7.258975,44.941684,281.900725,271.054637,4.748652,4.029364,-93.169357,5.590000,2025-03-06T18:42:41.000-06:00,-0.247045,-0.980151,-0.016585,2025-03-06T18:42:40.077-06:00,0.051455,-0.122799,0.000249,2025-03-06T18:42:40.074-06:00
31.000000,254.584902,0.308016,7.258975,44.941684,281.994902,270.351512,4.748652,4.029364,-93.169429,5.590000,2025-03-06T18:42:42.000-06:00,-0.248021,-0.967876,0.004877,2025-03-06T18:42:41.071-06:00,-0.024365,0.012244,0.207261,2025-03-06T18:42:41.069-06:00
32.000000,255.900643,1.270012,18.131498,44.941682,283.310643,268.591881,2.000000,3.000000,-93.169488,5.673441,2025-03-06T18:42:43.000-06:00,-0.254892,-0.955402,-0.024310,2025-03-06T18:42:42.076-06:00,-0.137434,0.159207,0.039491,2025-03-06T18:42:42.073-06:00
33.000000,255.889286,1.268755,18.134548,44.941680,283.299285,267.711669,3.214406,3.000000,-93.169559,5.668509,2025-03-06T18:42:44.000-06:00,-0.255928,-0.960078,-0.048815,2025-03-06T18:42:43.071-06:00,-0.164309,0.090320,-0.100261,2025-03-06T18:42:43.078-06:00
34.000000,255.918138,1.272817,18.539038,44.941679,283.328138,268.396823,3.316044,3.000000,-93.169628,5.562973,2025-03-06T18:42:45.000-06:00,-0.225166,-0.976337,-0.038405,2025-03-06T18:42:44.075-06:00,0.133330,-0.043476,-0.003635,2025-03-06T18:42:44.073-06:00
35.000000,256.071500,1.275809,18.812697,44.941682,283.481499,269.029780,3.366152,3.000000,-93.169697,5.494807,2025-03-06T18:42:46.000-06:00,-0.221199,-0.973638,-0.039261,2025-03-06T18:42:45.070-06:00,0.184912,-0.024420,-0.067922,2025-03-06T18:42:45.077-06:00
36.000000,256.140080,1.272961,17.864512,44.941678,283.550080,270.156483,3.337258,3.000000,-93.169771,5.773514,2025-03-06T18:42:47.000-06:00,-0.217022,-0.967103,-0.025084,2025-03-06T18:42:46.075-06:00,0.232088,0.010381,0.063579,2025-03-06T18:42:46.072-06:00
37.000000,255.979145,1.269055,16.774223,44.941683,283.389145,270.081600,3.468926,3.000000,-93.169855,6.129814,2025-03-06T18:42:48.000-06:00,-0.221305,-0.973484,-0.034409,2025-03-06T18:42:47.069-06:00,0.069668,-0.008835,-0.065552,2025-03-06T18:42:47.077-06:00
38.000000,255.848493,1.321217,26.664944,44.941682,283.258493,265.597529,3.540663,3.000000,-93.169896,4.013968,2025-03-06T18:42:49.000-06:00,-0.231003,-0.963905,-0.014338,2025-03-06T18:42:48.074-06:00,0.045441,0.080416,0.029719,2025-03-06T18:42:48.071-06:00
39.000000,255.726044,1.269911,15.872778,44.941686,283.136044,269.993693,3.261792,3.000000,-93.170014,6.480282,2025-03-06T18:42:50.000-06:00,-0.236534,-0.977757,-0.019872,2025-03-06T18:42:49.069-06:00,0.025451,-0.064770,0.004818,2025-03-06T18:42:49.076-06:00
40.000000,255.964915,1.269139,15.354573,44.941684,283.374914,269.838032,3.053742,3.000000,-93.170104,6.697456,2025-03-06T18:42:51.000-06:00,-0.242204,-0.972418,-0.029118,2025-03-06T18:42:50.073-06:00,-0.146487,-0.005407,-0.042314,2025-03-06T18:42:50.071-06:00
41.000000,255.765682,1.272503,15.096757,44.941690,283.175682,271.544476,2.899734,3.000000,-93.170192,6.828829,2025-03-06T18:42:52.000-06:00,-0.264143,-0.960311,-0.038936,2025-03-06T18:42:51.078-06:00,-0.315388,0.147654,-0.071583,2025-03-06T18:42:51.075-06:00
42.000000,256.179647,1.277044,15.387247,44.941683,283.589647,270.133820,2.766108,3.000000,-93.170281,6.724218,2025-03-06T18:42:53.000-06:00,-0.279477,-0.956341,-0.030809,2025-03-06T18:42:52.073-06:00,-0.422066,0.127834,-0.013578,2025-03-06T18:42:52.070-06:00
43.000000,256.007575,1.269485,16.028337,44.941686,283.417575,270.133820,2.600753,3.000000,-93.170358,6.417666,2025-03-06T18:42:54.000-06:00,-0.276575,-0.955366,-0.024617,2025-03-06T18:42:53.077-06:00,-0.396456,0.168337,-0.131861,2025-03-06T18:42:53.075-06:00
44.000000,255.695358,1.271439,21.389547,44.941676,283.105358,270.133820,2.707517,3.000000,-93.170414,4.814450,2025-03-06T18:42:55.000-06:00,-0.273204,-0.961764,-0.014150,2025-03-06T18:42:54.072-06:00,-0.334396,0.092251,-0.024193,2025-03-06T18:42:54.070-06:00
45.000000,253.619148,1.029487,15.342519,44.941686,281.029148,270.133820,2.687518,3.000000,-93.170421,2.615307,2025-03-06T18:42:56.000-06:00,-0.272289,-0.955202,-0.036284,2025-03-06T18:42:55.077-06:00,-0.301995,0.147505,-0.093799,2025-03-06T18:42:55.074-06:00
46.000000,254.482452,0.711363,9.693950,44.941685,281.892452,270.133820,2.733614,3.000000,-93.170545,5.589796,2025-03-06T18:42:57.000-06:00,-0.284499,-0.971062,-0.058601,2025-03-06T18:42:56.071-06:00,-0.422518,-0.026144,-0.178099,2025-03-06T18:42:56.069-06:00
47.000000,254.427880,0.672968,10.439240,44.941688,281.837880,270.133820,2.628812,3.000000,-93.170603,5.107125,2025-03-06T18:42:58.000-06:00,-0.321973,-0.936932,-0.057625,2025-03-06T18:42:57.076-06:00,-0.768492,0.312658,-0.234928,2025-03-06T18:42:57.074-06:00
48.000000,254.413311,0.689005,11.663230,44.941687,281.823311,270.133820,2.550211,3.000000,-93.170660,4.713888,2025-03-06T18:42:59.000-06:00,-0.366654,-0.933396,-0.066283,2025-03-06T18:42:58.071-06:00,-1.183135,0.342595,-0.252628,2025-03-06T18:42:58.078-06:00
49.000000,255.050267,0.694995,16.057644,44.941685,282.460267,270.133820,2.586249,3.000000,-93.170693,3.374500,2025-03-06T18:43:00.000-06:00,-0.371763,-0.940885,-0.071549,2025-03-06T18:42:59.075-06:00,-1.107714,0.237286,-0.287347,2025-03-06T18:42:59.073-06:00
50.000000,255.112721,0.729109,35.522568,44.941686,282.522721,270.133820,2.716708,3.000000,-93.170700,1.507569,2025-03-06T18:43:01.000-06:00,-0.322078,-0.945769,-0.049460,2025-03-06T18:43:00.070-06:00,-0.534324,0.168757,-0.102830,2025-03-06T18:43:00.078-06:00
51.000000,254.977133,0.851351,180.000000,44.941686,282.387133,272.634277,2.743415,3.000000,-93.170700,0.097441,2025-03-06T18:43:02.000-06:00,-0.196302,-0.981977,-0.016563,2025-03-06T18:43:01.075-06:00,0.650713,-0.172662,0.130469,2025-03-06T18:43:01.072-06:00
52.000000,254.949113,0.731936,180.000000,44.941693,282.359113,322.274101,2.723050,3.000000,-93.170724,1.030356,2025-03-06T18:43:03.000-06:00,-0.069571,-1.012141,0.017675,2025-03-06T18:43:02.069-06:00,1.717376,-0.418334,0.395910,2025-03-06T18:43:02.077-06:00
53.000000,254.660827,0.716560,27.752526,44.941688,282.070827,279.838129,2.803290,3.000000,-93.170764,1.718180,2025-03-06T18:43:04.000-06:00,-0.139394,-0.994222,0.004508,2025-03-06T18:43:03.074-06:00,0.974688,-0.235081,0.202710,2025-03-06T18:43:03.072-06:00
54.000000,254.656775,0.718349,14.170669,44.941682,282.066775,269.723407,2.810533,3.000000,-93.170836,3.789286,2025-03-06T18:43:05.000-06:00,-0.131681,-0.980195,0.019734,2025-03-06T18:43:04.069-06:00,1.118981,-0.103256,0.231425,2025-03-06T18:43:04.076-06:00
55.000000,254.759267,0.671445,11.145651,44.941682,282.169267,270.133820,2.801730,3.000000,-93.170901,4.847514,2025-03-06T18:43:06.000-06:00,-0.158778,-0.994180,0.010268,2025-03-06T18:43:05.073-06:00,0.938021,-0.262154,0.168528,2025-03-06T18:43:05.071-06:00
56.000000,255.127020,0.663299,9.225903,44.941680,282.537020,268.208369,2.775478,3.000000,-93.170979,5.825220,2025-03-06T18:43:07.000-06:00,-0.202522,-0.980674,0.011276,2025-03-06T18:43:06.078-06:00,0.489838,-0.135180,0.151892,2025-03-06T18:43:06.076-06:00
57.000000,254.939079,0.660819,8.537852,44.941680,282.349079,268.360908,2.865436,3.000000,-93.171058,6.263046,2025-03-06T18:43:08.000-06:00,-0.221355,-0.960692,-0.023603,2025-03-06T18:43:07.073-06:00,0.149351,0.111116,-0.007675,2025-03-06T18:43:07.070-06:00
58.000000,254.953417,0.654026,8.612772,44.941678,282.363417,268.531702,2.936590,3.000000,-93.171134,6.146003,2025-03-06T18:43:08.999-06:00,-0.216816,-0.962853,-0.023855,2025-03-06T18:43:08.077-06:00,0.233384,0.061315,0.097764,2025-03-06T18:43:08.075-06:00
59.000000,254.905704,0.658416,8.624647,44.941681,282.315704,271.482524,2.952086,3.000000,-93.171214,6.184256,2025-03-06T18:43:09.999-06:00,-0.267961,-0.972389,-0.046825,2025-03-06T18:43:09.072-06:00,-0.377923,0.000893,-0.116627,2025-03-06T18:43:09.070-06:00
60.000000,254.079588,0.798546,12.122226,44.941687,281.489588,270.114380,2.983360,3.000000,-93.171273,5.217848,2025-03-06T18:43:10.999-06:00,-0.266704,-0.961844,-0.039286,2025-03-06T18:43:10.077-06:00,-0.325417,0.123142,-0.066610,2025-03-06T18:43:10.074-06:00
61.000000,254.465801,0.669082,9.053681,44.941678,281.875800,270.114380,3.034238,3.000000,-93.171367,5.951138,2025-03-06T18:43:11.999-06:00,-0.229967,-0.966049,-0.040049,2025-03-06T18:43:11.071-06:00,-0.042593,0.050032,-0.107172,2025-03-06T18:43:11.069-06:00
62.000000,254.280739,0.672127,9.075245,44.941689,281.690739,270.114380,3.116465,3.000000,-93.171443,5.983906,2025-03-06T18:43:12.999-06:00,-0.221422,-0.970088,-0.048269,2025-03-06T18:43:12.076-06:00,0.045812,0.035246,-0.093438,2025-03-06T18:43:12.074-06:00
63.000000,254.374189,0.677185,9.088572,44.941686,281.784189,270.114380,3.018158,3.000000,-93.171521,6.017367,2025-03-06T18:43:13.999-06:00,-0.243553,-0.970409,-0.035243,2025-03-06T18:43:13.071-06:00,-0.152076,0.031811,-0.065276,2025-03-06T18:43:13.078-06:00
64.000000,254.228105,0.665759,8.789343,44.941687,281.638105,270.114380,2.973380,3.000000,-93.171602,6.119638,2025-03-06T18:43:14.999-06:00,-0.253524,-0.967069,-0.035318,2025-03-06T18:43:14.075-06:00,-0.241479,0.062201,-0.013498,2025-03-06T18:43:14.073-06:00
65.000000,254.491972,0.660612,9.018524,44.941682,281.901972,270.114380,2.871066,3.000000,-93.171676,5.936255,2025-03-06T18:43:15.999-06:00,-0.256971,-0.956798,-0.029984,2025-03-06T18:43:15.070-06:00,-0.256453,0.155131,-0.074169,2025-03-06T18:43:15.078-06:00
66.000000,254.258304,0.659586,9.545043,44.941685,281.668304,270.114380,2.791878,3.000000,-93.171746,5.589410,2025-03-06T18:43:16.999-06:00,-0.276183,-0.967236,-0.032293,2025-03-06T18:43:16.075-06:00,-0.344784,0.025882,-0.092318,2025-03-06T18:43:16.072-06:00
67.000000,254.359210,0.657502,10.101560,44.941685,281.769210,270.114380,2.746038,3.000000,-93.171813,5.272248,2025-03-06T18:43:17.999-06:00,-0.215517,-0.968882,-0.029617,2025-03-06T18:43:17.070-06:00,0.221796,0.024598,0.001050,2025-03-06T18:43:17.077-06:00
68.000000,254.124906,0.663365,9.596049,44.941691,281.534906,270.114380,2.690409,3.000000,-93.171887,5.572474,2025-03-06T18:43:18.999-06:00,-0.248464,-0.969436,-0.010639,2025-03-06T18:43:18.074-06:00,-0.104294,0.015542,-0.053532,2025-03-06T18:43:18.072-06:00
69.000000,254.088471,0.658904,9.308247,44.941688,281.498471,270.114380,2.641094,3.000000,-93.171962,5.716012,2025-03-06T18:43:19.999-06:00,-0.267226,-0.957036,-0.005852,2025-03-06T18:43:19.069-06:00,-0.267796,0.145018,0.058268,2025-03-06T18:43:19.076-06:00
70.000000,253.638130,0.805462,11.374892,44.941695,281.048130,270.114380,2.598354,3.000000,-93.172031,5.640579,2025-03-06T18:43:20.999-06:00,-0.237919,-0.953593,0.005796,2025-03-06T18:43:20.074-06:00,0.061026,0.140229,0.219643,2025-03-06T18:43:20.071-06:00
71.000000,254.242115,0.665136,9.628871,44.941681,281.652115,270.114380,2.684008,3.000000,-93.172102,5.597043,2025-03-06T18:43:21.999-06:00,-0.237837,-0.983321,-0.052629,2025-03-06T18:43:21.078-06:00,0.084079,-0.144982,-0.140695,2025-03-06T18:43:21.076-06:00
72.000000,254.208059,0.672219,9.608148,44.941680,281.618059,270.114380,2.648549,3.000000,-93.172174,5.665426,2025-03-06T18:43:22.999-06:00,-0.242882,-0.967100,-0.037941,2025-03-06T18:43:22.073-06:00,-0.089215,0.035855,0.078372,2025-03-06T18:43:22.070-06:00
73.000000,254.230007,0.664501,9.529674,44.941695,281.640007,270.130157,2.658146,3.000000,-93.172247,5.647262,2025-03-06T18:43:23.999-06:00,-0.271623,-0.958899,-0.075556,2025-03-06T18:43:23.078-06:00,-0.411420,0.132292,-0.185807,2025-03-06T18:43:23.075-06:00
74.000000,254.011008,0.668635,10.225587,44.941695,281.421007,270.130157,2.623507,3.000000,-93.172313,5.267908,2025-03-06T18:43:24.999-06:00,-0.282149,-0.950333,-0.094438,2025-03-06T18:43:24.072-06:00,-0.437619,0.177180,-0.303551,2025-03-06T18:43:24.070-06:00
75.000000,253.876684,0.669636,11.238411,44.941695,281.286684,270.130157,2.605314,3.000000,-93.172372,4.801308,2025-03-06T18:43:25.999-06:00,-0.220899,-0.975456,-0.059457,2025-03-06T18:43:25.077-06:00,0.144284,-0.039433,-0.014751,2025-03-06T18:43:25.074-06:00
76.000000,254.095240,0.665005,10.660466,44.941680,281.505239,270.130157,2.627151,3.000000,-93.172438,5.054797,2025-03-06T18:43:26.999-06:00,-0.207431,-0.981826,-0.047108,2025-03-06T18:43:26.072-06:00,0.304625,-0.122615,0.056138,2025-03-06T18:43:26.069-06:00
77.000000,253.965103,0.658399,9.971549,44.941681,281.375103,270.130157,2.595793,3.000000,-93.172506,5.342138,2025-03-06T18:43:27.999-06:00,-0.182917,-0.971277,-0.049071,2025-03-06T18:43:27.076-06:00,0.451633,0.000391,0.077519,2025-03-06T18:43:27.074-06:00
78.000000,254.258893,0.660509,9.191167,44.941682,281.668893,270.130157,2.566004,3.000000,-93.172584,5.819956,2025-03-06T18:43:28.999-06:00,-0.195652,-0.979317,-0.060741,2025-03-06T18:43:28.071-06:00,0.372417,-0.090875,-0.011106,2025-03-06T18:43:28.078-06:00
79.000000,254.178372,0.660661,8.840218,44.941688,281.588372,270.130157,2.537703,3.000000,-93.172661,6.055925,2025-03-06T18:43:29.999-06:00,-0.245101,-0.969132,-0.057268,2025-03-06T18:43:29.076-06:00,-0.154841,0.043430,-0.029088,2025-03-06T18:43:29.073-06:00
80.000000,253.978908,0.663512,8.789427,44.941689,281.388907,270.130157,2.540751,3.000000,-93.172740,6.103365,2025-03-06T18:43:30.999-06:00,-0.244038,-0.948086,-0.045606,2025-03-06T18:43:30.070-06:00,-0.085041,0.211167,0.019381,2025-03-06T18:43:30.078-06:00
81.000000,254.008427,0.679661,9.266624,44.941688,281.418427,270.130157,2.602390,3.000000,-93.172815,5.928900,2025-03-06T18:43:31.999-06:00,-0.252569,-0.961926,-0.024419,2025-03-06T18:43:31.075-06:00,-0.174248,0.099196,0.042184,2025-03-06T18:43:31.072-06:00
82.000000,253.735228,0.676622,9.439964,44.941690,281.145227,270.130157,2.564741,3.000000,-93.172887,5.780862,2025-03-06T18:43:32.999-06:00,-0.216708,-0.980206,-0.047006,2025-03-06T18:43:32.070-06:00,0.235835,-0.118486,-0.209329,2025-03-06T18:43:32.077-06:00
83.000000,254.027181,0.672483,8.867408,44.941694,281.437180,270.130157,2.540217,3.000000,-93.172969,6.146654,2025-03-06T18:43:33.999-06:00,-0.226864,-0.972661,-0.017887,2025-03-06T18:43:33.074-06:00,0.074403,0.010699,-0.025805,2025-03-06T18:43:33.072-06:00
84.000000,253.482880,0.764784,8.883920,44.941696,280.892880,270.130157,2.561802,3.000000,-93.173065,6.873865,2025-03-06T18:43:34.999-06:00,-0.227697,-0.970862,-0.004963,2025-03-06T18:43:34.069-06:00,0.128775,-0.013984,-0.011737,2025-03-06T18:43:34.076-06:00
85.000000,253.878602,0.678428,8.692621,44.941698,281.288602,270.130157,2.534942,3.000000,-93.173134,6.321964,2025-03-06T18:43:35.999-06:00,-0.253991,-0.966970,0.015213,2025-03-06T18:43:35.074-06:00,-0.137592,0.045865,0.090976,2025-03-06T18:43:35.071-06:00
86.000000,253.829199,0.665221,8.564509,44.941700,281.239199,270.130157,2.469844,3.000000,-93.173216,6.291390,2025-03-06T18:43:36.999-06:00,-0.259162,-0.961839,0.009726,2025-03-06T18:43:36.078-06:00,-0.111779,0.072508,0.090551,2025-03-06T18:43:36.076-06:00
87.000000,253.725942,0.660452,8.592279,44.941701,281.135941,270.130157,2.451380,3.000000,-93.173296,6.225993,2025-03-06T18:43:37.999-06:00,-0.247365,-0.965693,0.007867,2025-03-06T18:43:37.073-06:00,-0.075717,0.059077,-0.077182,2025-03-06T18:43:37.070-06:00
88.000000,253.750067,0.664140,8.573445,44.941700,281.160067,270.130157,2.421550,3.000000,-93.173375,6.272266,2025-03-06T18:43:38.999-06:00,-0.230066,-0.967991,0.046420,2025-03-06T18:43:38.078-06:00,0.101468,0.012909,0.127353,2025-03-06T18:43:38.075-06:00
89.000000,253.476571,0.661901,8.133636,44.941701,280.886571,271.159180,2.369096,3.000000,-93.173461,6.584109,2025-03-06T18:43:39.999-06:00,-0.248352,-0.948477,0.050152,2025-03-06T18:43:39.072-06:00,0.074157,0.147434,0.052708,2025-03-06T18:43:39.070-06:00
90.000000,253.119235,0.665759,8.079478,44.941710,280.529235,271.159180,2.379923,3.000000,-93.173545,6.655434,2025-03-06T18:43:40.999-06:00,-0.300890,-0.960529,0.013197,2025-03-06T18:43:40.077-06:00,-0.434243,0.079688,-0.103993,2025-03-06T18:43:40.074-06:00
91.000000,252.845726,0.674049,8.882920,44.941708,280.255725,271.159180,2.381187,3.000000,-93.173619,6.079785,2025-03-06T18:43:41.999-06:00,-0.308748,-0.953084,-0.005969,2025-03-06T18:43:41.072-06:00,-0.450537,0.099981,-0.189153,2025-03-06T18:43:41.069-06:00
92.000000,252.842508,0.667148,9.429887,44.941708,280.252508,271.159180,2.458896,3.000000,-93.173688,5.714384,2025-03-06T18:43:42.999-06:00,-0.296453,-0.956607,-0.004785,2025-03-06T18:43:42.076-06:00,-0.418668,0.110933,-0.192635,2025-03-06T18:43:42.074-06:00
93.000000,252.690395,0.662696,10.064629,44.941710,280.100395,269.529907,2.401534,3.000000,-93.173755,5.303812,2025-03-06T18:43:43.999-06:00,-0.306717,-0.946297,-0.013902,2025-03-06T18:43:43.071-06:00,-0.434958,0.172727,-0.301737,2025-03-06T18:43:43.069-06:00
94.000000,252.943031,0.665529,11.097114,44.941709,280.353031,269.529907,2.356919,3.000000,-93.173815,4.860355,2025-03-06T18:43:44.999-06:00,-0.296123,-0.967462,0.023974,2025-03-06T18:43:44.076-06:00,-0.324054,-0.019249,0.041434,2025-03-06T18:43:44.073-06:00
95.000000,252.558160,0.679720,12.199303,44.941717,279.968159,269.529907,2.321227,3.000000,-93.173871,4.485540,2025-03-06T18:43:45.999-06:00,-0.288268,-0.949741,0.031166,2025-03-06T18:43:45.070-06:00,-0.335107,0.171675,0.067787,2025-03-06T18:43:45.078-06:00
96.000000,252.463761,0.679539,13.006493,44.941716,279.873761,268.270569,2.321631,3.000000,-93.173924,4.171102,2025-03-06T18:43:46.999-06:00,-0.288716,-0.958730,0.017355,2025-03-06T18:43:46.075-06:00,-0.217492,0.041620,-0.057098,2025-03-06T18:43:46.073-06:00
97.000000,252.514873,0.677351,13.118690,44.941708,279.924873,268.270569,2.294828,3.000000,-93.173979,4.106538,2025-03-06T18:43:47.999-06:00,-0.289539,-0.953546,0.006357,2025-03-06T18:43:47.070-06:00,-0.257216,0.108094,-0.052810,2025-03-06T18:43:47.077-06:00
98.000000,252.679551,0.683838,14.869302,44.941707,280.089551,268.270569,2.272149,3.000000,-93.174025,3.725420,2025-03-06T18:43:48.999-06:00,-0.305963,-0.947413,0.014909,2025-03-06T18:43:48.074-06:00,-0.390907,0.163714,0.057192,2025-03-06T18:43:48.072-06:00
99.000000,252.615939,0.675251,18.319410,44.941704,280.025938,261.262909,2.323555,3.000000,-93.174058,2.984152,2025-03-06T18:43:49.999-06:00,-0.287714,-0.957360,0.009719,2025-03-06T18:43:49.069-06:00,-0.114663,0.038733,-0.012541,2025-03-06T18:43:49.077-06:00
100.000000,252.667664,0.675537,20.756429,44.941702,280.077664,261.262909,2.367813,3.000000,-93.174091,2.632393,2025-03-06T18:43:50.999-06:00,-0.338645,-0.942206,0.009313,2025-03-06T18:43:50.074-06:00,-0.575447,0.168865,-0.109315,2025-03-06T18:43:50.071-06:00
101.000000,252.368489,0.729912,31.307418,44.941700,279.778489,261.262909,2.344825,3.000000,-93.174106,1.661891,2025-03-06T18:43:51.999-06:00,-0.352058,-0.944670,-0.006356,2025-03-06T18:43:51.078-06:00,-0.692642,0.144907,-0.230673,2025-03-06T18:43:51.076-06:00
102.000000,,,,,,,,,,,,-0.324199,-0.927566,0.011357,2025-03-06T18:43:52.073-06:00,-0.361288,0.276599,-0.142298,2025-03-06T18:43:52.071-06:00
