seconds_elapsed,location_altitude,location_speedAccuracy,location_bearingAccuracy,location_latitude,location_altitudeAboveMeanSeaLevel,location_bearing,location_horizontalAccuracy,location_verticalAccuracy,location_longitude,location_speed,location_local_time,accelerometerUncalibrated_z,accelerometerUncalibrated_y,accelerometerUncalibrated_x,accelerometerUncalibrated_local_time,accelerometer_z,accelerometer_y,accelerometer_x,accelerometer_local_time
0.000000,259.422577,0.265000,3.037214,44.934299,286.832577,310.605469,3.604351,4.500000,-93.166804,5.700000,2025-03-06T18:38:19.214-06:00,-0.142454,-0.982859,-0.210979,2025-03-06T18:38:19.213-06:00,0.837751,-0.102575,-1.583624,2025-03-06T18:38:19.215-06:00
1.000000,258.886963,0.850000,12.048676,44.934392,286.296963,343.828125,3.651643,3.000000,-93.166957,5.090000,2025-03-06T18:38:20.999-06:00,-0.155363,-0.993227,-0.098466,2025-03-06T18:38:20.188-06:00,0.695577,-0.192373,-0.742349,2025-03-06T18:38:20.190-06:00
2.000000,259.079834,0.990000,10.995441,44.934448,286.489834,0.150174,3.535534,3.000000,-93.166963,5.090000,2025-03-06T18:38:21.999-06:00,-0.159569,-0.990051,-0.030299,2025-03-06T18:38:21.192-06:00,0.353127,-0.092099,-0.336785,2025-03-06T18:38:21.195-06:00
3.000000,258.480225,0.980000,8.141395,44.934506,285.890224,0.150174,3.535534,3.000000,-93.166962,5.870000,2025-03-06T18:38:22.999-06:00,-0.189285,-0.985030,0.036779,2025-03-06T18:38:22.187-06:00,0.058683,-0.041769,0.326346,2025-03-06T18:38:22.190-06:00
4.000000,258.910950,0.130000,1.173505,44.934574,286.320950,0.150174,3.535534,3.000000,-93.166974,7.630000,2025-03-06T18:38:23.999-06:00,-0.128357,-0.991985,0.043797,2025-03-06T18:38:23.192-06:00,0.592222,-0.099934,0.449267,2025-03-06T18:38:23.194-06:00
5.000000,259.552307,0.360000,2.702649,44.934649,286.962307,359.502319,3.535534,3.000000,-93.166978,8.740000,2025-03-06T18:38:24.999-06:00,-0.131411,-0.999357,0.031379,2025-03-06T18:38:24.196-06:00,0.484637,-0.150289,0.430529,2025-03-06T18:38:24.189-06:00
6.000000,259.822510,1.690000,12.478448,44.934731,287.232510,359.502319,3.535534,3.000000,-93.166983,8.740000,2025-03-06T18:38:25.999-06:00,-0.139186,-0.992045,0.014710,2025-03-06T18:38:25.191-06:00,0.357762,-0.070886,0.342235,2025-03-06T18:38:25.194-06:00
7.000000,260.431030,0.720000,4.208810,44.934830,287.841030,0.000000,3.535534,3.000000,-93.166980,8.760000,2025-03-06T18:38:26.999-06:00,-0.181352,-0.984505,0.002351,2025-03-06T18:38:26.196-06:00,-0.094367,-0.004015,0.238420,2025-03-06T18:38:26.188-06:00
8.000000,260.530273,0.090000,0.576222,44.934927,287.940273,0.000000,3.535534,3.000000,-93.166978,11.030000,2025-03-06T18:38:27.999-06:00,-0.174166,-0.989415,0.005239,2025-03-06T18:38:27.191-06:00,-0.050901,-0.038880,0.251094,2025-03-06T18:38:27.193-06:00
9.000000,260.760498,0.060000,0.375776,44.935029,288.170498,0.000000,3.535534,3.000000,-93.166978,11.480000,2025-03-06T18:38:28.999-06:00,-0.185656,-0.983217,0.007681,2025-03-06T18:38:28.195-06:00,-0.166622,0.023196,0.205306,2025-03-06T18:38:28.188-06:00
10.000000,260.741760,0.070000,0.419214,44.935136,288.151760,0.000000,3.535534,3.000000,-93.166975,11.480000,2025-03-06T18:38:29.999-06:00,-0.208029,-0.970290,0.010999,2025-03-06T18:38:29.190-06:00,-0.398780,0.149921,0.245390,2025-03-06T18:38:29.192-06:00
11.000000,260.730408,0.060000,0.355044,44.935245,288.140408,359.259125,3.535534,3.000000,-93.166976,11.940000,2025-03-06T18:38:30.999-06:00,-0.203624,-0.960270,0.001442,2025-03-06T18:38:30.195-06:00,-0.298253,0.247871,0.129963,2025-03-06T18:38:30.187-06:00
12.000000,260.979492,0.300000,1.599004,44.935351,288.389492,0.000000,3.535534,3.000000,-93.166972,12.250000,2025-03-06T18:38:31.999-06:00,-0.235936,-0.998957,0.026568,2025-03-06T18:38:31.189-06:00,-0.557305,-0.154593,0.161696,2025-03-06T18:38:31.192-06:00
13.000000,260.979504,0.308016,7.258975,44.935462,288.389504,0.000000,4.748652,4.029364,-93.166972,12.250000,2025-03-06T18:38:32.999-06:00,-0.214392,-0.967639,0.007062,2025-03-06T18:38:32.194-06:00,-0.405915,0.166927,0.073058,2025-03-06T18:38:32.187-06:00
14.000000,261.156140,0.308016,7.258975,44.935571,288.566140,0.000000,4.748652,4.029364,-93.166973,12.250000,2025-03-06T18:38:33.999-06:00,-0.219463,-0.971490,0.004182,2025-03-06T18:38:33.189-06:00,-0.398230,0.120700,0.071488,2025-03-06T18:38:33.191-06:00
15.000000,261.327526,0.308016,7.258975,44.935685,288.737526,0.230505,4.748652,4.029364,-93.166971,12.250000,2025-03-06T18:38:34.999-06:00,-0.232773,-0.972223,0.005741,2025-03-06T18:38:34.193-06:00,-0.482936,0.107444,0.093467,2025-03-06T18:38:34.196-06:00
16.000000,261.344373,0.308018,7.258975,44.935802,288.754373,0.230505,4.748652,4.029364,-93.166971,12.540000,2025-03-06T18:38:35.999-06:00,-0.238136,-0.971634,-0.003380,2025-03-06T18:38:35.188-06:00,-0.496423,0.103928,0.023211,2025-03-06T18:38:35.191-06:00
17.000000,261.276502,0.420000,7.258975,44.935914,288.686502,0.230505,4.748652,4.029364,-93.166977,12.540000,2025-03-06T18:38:36.999-06:00,-0.237186,-0.970015,0.010724,2025-03-06T18:38:36.193-06:00,-0.405922,0.103426,0.045140,2025-03-06T18:38:36.195-06:00
18.000000,261.125134,0.308016,7.258975,44.936023,288.535134,0.230505,4.748652,4.029364,-93.166975,12.460000,2025-03-06T18:38:37.999-06:00,-0.233166,-0.968789,0.005159,2025-03-06T18:38:37.188-06:00,-0.397650,0.118269,-0.030907,2025-03-06T18:38:37.190-06:00
19.000000,261.080505,0.100000,0.564798,44.936134,288.490505,0.230505,3.535534,3.000000,-93.166981,12.420000,2025-03-06T18:38:38.999-06:00,-0.232571,-0.961914,0.009400,2025-03-06T18:38:38.192-06:00,-0.322007,0.174380,0.051115,2025-03-06T18:38:38.195-06:00
20.000000,261.080518,0.308016,7.258975,44.936245,288.490517,359.878601,4.748652,4.029364,-93.166981,12.420000,2025-03-06T18:38:39.999-06:00,-0.238586,-0.979997,0.018531,2025-03-06T18:38:39.187-06:00,-0.322645,-0.005808,0.082644,2025-03-06T18:38:39.190-06:00
21.000000,261.096191,0.060000,0.340066,44.936357,288.506191,359.878601,3.535534,3.000000,-93.166988,12.420000,2025-03-06T18:38:40.999-06:00,-0.235547,-0.966818,0.000558,2025-03-06T18:38:40.192-06:00,-0.314019,0.117532,-0.035755,2025-03-06T18:38:40.194-06:00
22.000000,261.096204,0.308017,7.258975,44.936468,288.506203,359.878601,4.748652,4.029364,-93.166990,12.420000,2025-03-06T18:38:41.999-06:00,-0.234922,-0.971415,-0.011832,2025-03-06T18:38:41.196-06:00,-0.275317,0.065507,-0.132482,2025-03-06T18:38:41.189-06:00
23.000000,261.101086,0.308017,7.258975,44.936581,288.511086,359.878601,4.748652,4.029364,-93.166988,12.420000,2025-03-06T18:38:42.999-06:00,-0.226495,-0.972935,-0.005452,2025-03-06T18:38:42.191-06:00,-0.199084,0.051928,-0.082744,2025-03-06T18:38:42.194-06:00
24.000000,261.112683,0.308017,7.258975,44.936692,288.522683,0.133635,4.748652,4.029364,-93.166988,12.360000,2025-03-06T18:38:43.999-06:00,-0.236259,-0.966515,0.005900,2025-03-06T18:38:43.196-06:00,-0.240117,0.111542,0.022264,2025-03-06T18:38:43.188-06:00
25.000000,261.062573,0.308016,7.258975,44.936799,288.472573,0.133635,4.748652,4.029364,-93.166987,12.350000,2025-03-06T18:38:44.999-06:00,-0.237952,-0.973141,0.009072,2025-03-06T18:38:44.191-06:00,-0.272866,0.040539,0.069728,2025-03-06T18:38:44.193-06:00
26.000000,261.283093,0.308016,7.258975,44.936913,288.693093,0.133635,4.748652,4.029364,-93.166988,12.450000,2025-03-06T18:38:45.999-06:00,-0.233808,-0.972526,0.007664,2025-03-06T18:38:45.195-06:00,-0.241452,0.056283,0.047575,2025-03-06T18:38:45.188-06:00
27.000000,261.403088,0.308017,7.258975,44.937027,288.813088,0.679126,4.748652,4.029364,-93.166988,12.450000,2025-03-06T18:38:46.999-06:00,-0.227895,-0.968764,0.006543,2025-03-06T18:38:46.190-06:00,-0.135279,0.083722,0.020922,2025-03-06T18:38:46.192-06:00
28.000000,261.719177,0.080000,0.453662,44.937136,289.129177,359.884857,3.535534,3.000000,-93.166986,12.250000,2025-03-06T18:38:47.999-06:00,-0.235656,-0.975636,-0.003703,2025-03-06T18:38:47.195-06:00,-0.136793,-0.012528,-0.060463,2025-03-06T18:38:47.187-06:00
29.000000,261.866455,0.360000,1.932080,44.937246,289.276455,359.884857,3.535534,3.000000,-93.166986,12.260000,2025-03-06T18:38:48.999-06:00,-0.225947,-0.968840,-0.005547,2025-03-06T18:38:48.189-06:00,-0.114281,0.079591,-0.047814,2025-03-06T18:38:48.192-06:00
30.000000,261.866467,0.360000,7.258975,44.937356,289.276467,359.884857,4.748652,4.029364,-93.166985,12.260000,2025-03-06T18:38:49.999-06:00,-0.227623,-0.972302,-0.001880,2025-03-06T18:38:49.194-06:00,-0.108325,0.043213,-0.011241,2025-03-06T18:38:49.187-06:00
31.000000,262.367993,0.550000,7.258975,44.937464,289.777993,359.884857,4.748652,4.029364,-93.166987,12.260000,2025-03-06T18:38:50.999-06:00,-0.223358,-0.974080,0.008546,2025-03-06T18:38:50.189-06:00,-0.061577,0.020482,0.007897,2025-03-06T18:38:50.191-06:00
32.000000,262.015026,1.950000,12.887889,44.937578,289.425026,0.565810,4.748652,4.029364,-93.166972,12.260000,2025-03-06T18:38:51.999-06:00,-0.227797,-0.967040,0.003009,2025-03-06T18:38:51.193-06:00,-0.092913,0.084222,-0.021183,2025-03-06T18:38:51.196-06:00
33.000000,264.647945,1.276465,8.354291,44.937672,292.057945,0.565810,2.000000,3.000000,-93.166969,12.378183,2025-03-06T18:38:52.999-06:00,-0.227277,-0.976967,0.009302,2025-03-06T18:38:52.188-06:00,-0.086361,-0.006297,0.017384,2025-03-06T18:38:52.191-06:00
34.000000,264.892941,1.271984,8.356080,44.937784,292.302941,0.000000,2.000000,3.000000,-93.166968,12.331103,2025-03-06T18:38:53.999-06:00,-0.243159,-0.964007,0.030406,2025-03-06T18:38:53.193-06:00,-0.187541,0.097223,0.174673,2025-03-06T18:38:53.195-06:00
35.000000,265.024811,1.168061,7.647949,44.937897,292.434811,0.000000,2.045720,3.000000,-93.166966,12.373014,2025-03-06T18:38:54.999-06:00,-0.243778,-0.961760,0.002254,2025-03-06T18:38:54.188-06:00,-0.201969,0.128240,0.027654,2025-03-06T18:38:54.190-06:00
36.000000,265.023770,1.167731,7.701220,44.938009,292.433770,0.000000,2.023402,3.000000,-93.166974,12.285544,2025-03-06T18:38:55.999-06:00,-0.239979,-0.939938,-0.015197,2025-03-06T18:38:55.192-06:00,-0.000853,0.302727,-0.157215,2025-03-06T18:38:55.195-06:00
37.000000,264.953760,1.275601,8.527150,44.938122,292.363760,0.000000,2.239742,3.000000,-93.166975,12.121297,2025-03-06T18:38:56.999-06:00,-0.261780,-0.964603,-0.006757,2025-03-06T18:38:56.187-06:00,-0.122771,0.037319,-0.074699,2025-03-06T18:38:56.189-06:00
38.000000,264.901059,1.271667,8.463220,44.938237,292.311058,0.435847,2.342405,3.000000,-93.166972,12.174761,2025-03-06T18:38:57.999-06:00,-0.259968,-0.966507,-0.000679,2025-03-06T18:38:57.192-06:00,-0.081474,0.015784,-0.085556,2025-03-06T18:38:57.194-06:00
39.000000,264.584600,0.695929,7.258484,44.938339,291.994600,0.435847,2.542873,3.000000,-93.166972,12.061819,2025-03-06T18:38:58.999-06:00,-0.253048,-0.967024,0.011896,2025-03-06T18:38:58.196-06:00,-0.017464,0.002895,-0.038022,2025-03-06T18:38:58.189-06:00
40.000000,264.467971,0.690967,7.258320,44.938448,291.877971,0.435847,2.393869,3.000000,-93.166969,12.074838,2025-03-06T18:38:59.999-06:00,-0.256276,-0.963980,0.012053,2025-03-06T18:38:59.191-06:00,-0.056406,0.037694,-0.014439,2025-03-06T18:38:59.193-06:00
41.000000,264.243251,0.678181,7.258202,44.938557,291.653251,0.435847,2.261725,3.000000,-93.166969,12.137684,2025-03-06T18:39:00.999-06:00,-0.273982,-0.960797,0.015742,2025-03-06T18:39:00.196-06:00,-0.192235,0.064432,0.015272,2025-03-06T18:39:00.188-06:00
42.000000,263.366570,0.743302,7.251061,44.938670,290.776570,0.435847,2.984590,3.000000,-93.166964,12.365885,2025-03-06T18:39:01.999-06:00,-0.280727,-0.961712,0.008288,2025-03-06T18:39:01.190-06:00,-0.288755,0.058408,0.022633,2025-03-06T18:39:01.193-06:00
43.000000,263.710633,0.768257,7.257928,44.938774,291.120632,0.435847,2.621267,3.000000,-93.166972,12.008159,2025-03-06T18:39:02.999-06:00,-0.297433,-0.950970,-0.017938,2025-03-06T18:39:02.195-06:00,-0.434283,0.162059,-0.204558,2025-03-06T18:39:02.188-06:00
44.000000,263.741771,0.702166,7.258742,44.938872,291.151771,0.435847,2.581399,3.000000,-93.166975,11.399636,2025-03-06T18:39:03.999-06:00,-0.332310,-0.951968,-0.014380,2025-03-06T18:39:03.190-06:00,-0.755933,0.143442,-0.187164,2025-03-06T18:39:03.192-06:00
45.000000,263.680588,0.696665,7.258789,44.938964,291.090588,0.283038,2.564058,3.000000,-93.166970,10.659909,2025-03-06T18:39:04.999-06:00,-0.325912,-0.950205,-0.021115,2025-03-06T18:39:04.194-06:00,-0.734005,0.173139,-0.152668,2025-03-06T18:39:04.187-06:00
46.000000,263.628023,0.695474,7.258631,44.939046,291.038023,0.283038,2.617910,3.000000,-93.166968,9.667776,2025-03-06T18:39:05.999-06:00,-0.310765,-0.946995,-0.029275,2025-03-06T18:39:05.189-06:00,-0.500793,0.181391,-0.126119,2025-03-06T18:39:05.192-06:00
47.000000,263.325280,0.702800,7.253935,44.939120,290.735280,0.225612,2.368359,3.000000,-93.166968,8.595094,2025-03-06T18:39:06.999-06:00,-0.304388,-0.943147,-0.042999,2025-03-06T18:39:06.194-06:00,-0.385281,0.203622,-0.143649,2025-03-06T18:39:06.196-06:00
48.000000,263.256666,0.686863,7.252468,44.939195,290.666666,0.225612,2.936422,3.000000,-93.166970,8.158946,2025-03-06T18:39:07.999-06:00,-0.326820,-0.948013,-0.046403,2025-03-06T18:39:07.189-06:00,-0.546725,0.139930,-0.180323,2025-03-06T18:39:07.191-06:00
49.000000,263.180261,0.688009,7.253614,44.939267,290.590260,0.225593,2.940110,3.000000,-93.166967,7.837759,2025-03-06T18:39:08.999-06:00,-0.335188,-0.943151,-0.042846,2025-03-06T18:39:08.193-06:00,-0.595871,0.178728,-0.163052,2025-03-06T18:39:08.196-06:00
50.000000,263.117052,0.687207,7.779446,44.939328,290.527052,0.225593,2.729030,3.000000,-93.166965,7.142122,2025-03-06T18:39:09.999-06:00,-0.337333,-0.945787,-0.035845,2025-03-06T18:39:09.188-06:00,-0.565051,0.136725,-0.109065,2025-03-06T18:39:09.190-06:00
51.000000,263.141572,0.675498,8.748845,44.939379,290.551571,359.584442,2.571341,3.000000,-93.166964,6.251870,2025-03-06T18:39:10.999-06:00,-0.343680,-0.944760,-0.035969,2025-03-06T18:39:10.193-06:00,-0.569874,0.128589,-0.121529,2025-03-06T18:39:10.195-06:00
52.000000,263.108952,0.704411,10.978179,44.939420,290.518952,359.584442,2.654515,3.000000,-93.166964,5.195536,2025-03-06T18:39:11.999-06:00,-0.353423,-0.938586,-0.037716,2025-03-06T18:39:11.187-06:00,-0.587757,0.167653,-0.134845,2025-03-06T18:39:11.190-06:00
53.000000,262.894607,0.701410,13.401621,44.939454,290.304607,359.584442,2.559645,3.000000,-93.166963,4.186821,2025-03-06T18:39:12.999-06:00,-0.369564,-0.936448,-0.039778,2025-03-06T18:39:12.192-06:00,-0.625662,0.150481,-0.143538,2025-03-06T18:39:12.195-06:00
54.000000,263.015321,0.692410,17.899587,44.939478,290.425321,359.584442,2.494671,3.000000,-93.166963,3.121680,2025-03-06T18:39:13.999-06:00,-0.361507,-0.936693,-0.037053,2025-03-06T18:39:13.187-06:00,-0.530581,0.144738,-0.126702,2025-03-06T18:39:13.189-06:00
55.000000,263.207881,0.680456,27.441471,44.939492,290.617881,359.584442,2.581148,3.000000,-93.166961,2.007500,2025-03-06T18:39:14.999-06:00,-0.325604,-0.949562,-0.028474,2025-03-06T18:39:14.191-06:00,-0.132438,-0.001008,-0.030929,2025-03-06T18:39:14.194-06:00
56.000000,263.148754,0.821435,58.473536,44.939500,290.558754,0.000000,2.580439,3.000000,-93.166961,0.845254,2025-03-06T18:39:15.999-06:00,-0.310132,-0.953678,-0.027943,2025-03-06T18:39:15.196-06:00,0.040454,-0.044784,-0.030239,2025-03-06T18:39:15.189-06:00
57.000000,263.144926,0.958662,69.004904,44.939507,290.554926,0.000000,2.538324,3.000000,-93.166964,0.556428,2025-03-06T18:39:16.999-06:00,-0.293961,-0.952901,-0.020759,2025-03-06T18:39:16.191-06:00,0.158800,-0.021453,0.020941,2025-03-06T18:39:16.193-06:00
58.000000,263.389466,0.900807,180.000000,44.939510,290.799466,0.000000,2.671540,3.000000,-93.166962,0.275294,2025-03-06T18:39:17.999-06:00,-0.278868,-0.959503,-0.019474,2025-03-06T18:39:17.196-06:00,0.287492,-0.084815,0.041836,2025-03-06T18:39:17.188-06:00
59.000000,263.593728,0.935697,180.000000,44.939512,291.003728,0.000000,2.685921,3.000000,-93.166962,0.072299,2025-03-06T18:39:18.999-06:00,-0.252677,-0.965686,-0.014075,2025-03-06T18:39:18.190-06:00,0.527146,-0.138952,0.091584,2025-03-06T18:39:18.193-06:00
60.000000,263.524771,0.926820,180.000000,44.939515,290.934771,0.000000,2.708480,3.000000,-93.166965,0.113923,2025-03-06T18:39:19.999-06:00,-0.230971,-0.971357,-0.009629,2025-03-06T18:39:19.195-06:00,0.697365,-0.180189,0.127155,2025-03-06T18:39:19.187-06:00
61.000000,263.182832,0.958355,95.923569,44.939523,290.592832,0.000000,2.657874,3.000000,-93.166973,0.595486,2025-03-06T18:39:20.999-06:00,-0.232782,-0.970929,-0.009243,2025-03-06T18:39:20.190-06:00,0.629461,-0.158255,0.116121,2025-03-06T18:39:20.192-06:00
62.000000,263.527132,0.715885,92.192469,44.939527,290.937131,0.000000,2.614016,3.000000,-93.166969,0.577795,2025-03-06T18:39:21.999-06:00,-0.241914,-0.968525,-0.011034,2025-03-06T18:39:21.194-06:00,0.507643,-0.126312,0.088792,2025-03-06T18:39:21.187-06:00
63.000000,263.686437,0.705186,69.958095,44.939537,291.096436,0.000000,2.575640,3.000000,-93.166968,0.787495,2025-03-06T18:39:22.999-06:00,-0.253329,-0.965611,-0.012190,2025-03-06T18:39:22.189-06:00,0.367277,-0.087801,0.062084,2025-03-06T18:39:22.192-06:00
64.000000,263.823030,0.700796,71.037961,44.939545,291.233029,0.000000,2.565269,3.000000,-93.166969,0.789890,2025-03-06T18:39:23.999-06:00,-0.276443,-0.960190,-0.016746,2025-03-06T18:39:23.194-06:00,0.131911,-0.032911,0.015253,2025-03-06T18:39:23.196-06:00
65.000000,263.856392,0.681081,111.354506,44.939547,291.266392,0.000000,2.533865,3.000000,-93.166968,0.495528,2025-03-06T18:39:24.999-06:00,-0.273287,-0.960437,-0.017536,2025-03-06T18:39:24.188-06:00,0.148219,-0.030917,0.007822,2025-03-06T18:39:24.191-06:00
66.000000,263.817330,0.931920,180.000000,44.939546,291.227330,0.000000,2.539565,3.000000,-93.166967,0.198291,2025-03-06T18:39:25.999-06:00,-0.272009,-0.961208,-0.016405,2025-03-06T18:39:25.193-06:00,0.139511,-0.030813,0.012269,2025-03-06T18:39:25.196-06:00
67.000000,263.807298,0.936906,180.000000,44.939545,291.217297,0.000000,2.595434,3.000000,-93.166967,0.000000,2025-03-06T18:39:26.999-06:00,-0.262644,-0.963174,-0.015118,2025-03-06T18:39:26.188-06:00,0.214279,-0.045922,0.020164,2025-03-06T18:39:26.190-06:00
68.000000,263.782468,0.927894,180.000000,44.939545,291.192468,0.000000,2.687215,3.000000,-93.166969,0.069214,2025-03-06T18:39:27.999-06:00,-0.256327,-0.965123,-0.013068,2025-03-06T18:39:27.193-06:00,0.256138,-0.058374,0.034685,2025-03-06T18:39:27.195-06:00
69.000000,263.759227,0.707283,161.666101,44.939544,291.169227,0.000000,2.852250,3.000000,-93.166968,0.000000,2025-03-06T18:39:28.999-06:00,-0.256158,-0.965131,-0.013173,2025-03-06T18:39:28.187-06:00,0.241692,-0.053624,0.030033,2025-03-06T18:39:28.190-06:00
70.000000,263.759227,0.915408,180.000000,44.939544,291.169227,0.000000,2.870144,3.000000,-93.166968,0.000000,2025-03-06T18:39:29.999-06:00,-0.256149,-0.965211,-0.012725,2025-03-06T18:39:29.192-06:00,0.222296,-0.048473,0.030398,2025-03-06T18:39:29.194-06:00
71.000000,263.759227,0.906765,180.000000,44.939544,291.169227,0.000000,2.890146,3.000000,-93.166968,0.000000,2025-03-06T18:39:30.999-06:00,-0.228410,-0.972069,-0.007483,2025-03-06T18:39:30.187-06:00,0.471574,-0.108276,0.076325,2025-03-06T18:39:30.189-06:00
72.000000,263.921318,0.914813,180.000000,44.939540,291.331318,0.000000,2.929282,3.000000,-93.166969,0.095222,2025-03-06T18:39:31.999-06:00,-0.200568,-0.978663,-0.001376,2025-03-06T18:39:31.191-06:00,0.704028,-0.161890,0.121914,2025-03-06T18:39:31.194-06:00
73.000000,263.885581,0.911415,180.000000,44.939547,291.295581,0.000000,2.909492,3.000000,-93.166970,0.222423,2025-03-06T18:39:32.999-06:00,-0.114433,-0.998570,0.018687,2025-03-06T18:39:32.196-06:00,1.472614,-0.338511,0.297389,2025-03-06T18:39:32.189-06:00
74.000000,263.928019,0.699187,39.327243,44.939567,291.338019,0.000000,2.864018,3.000000,-93.166967,1.440197,2025-03-06T18:39:33.999-06:00,-0.127874,-0.995028,0.016466,2025-03-06T18:39:33.191-06:00,1.285682,-0.288142,0.262949,2025-03-06T18:39:33.193-06:00
75.000000,263.762705,0.681922,16.302913,44.939607,291.172705,359.692230,2.820817,3.000000,-93.166974,3.355423,2025-03-06T18:39:34.999-06:00,-0.149847,-0.991196,0.006626,2025-03-06T18:39:34.195-06:00,1.003061,-0.229043,0.153545,2025-03-06T18:39:34.188-06:00
76.000000,263.741966,0.685447,11.849633,44.939654,291.151966,359.692230,2.781652,3.000000,-93.166976,4.683173,2025-03-06T18:39:35.999-06:00,-0.162214,-0.994132,0.008294,2025-03-06T18:39:35.190-06:00,0.784485,-0.230995,0.097474,2025-03-06T18:39:35.193-06:00
77.000000,263.676947,0.846367,13.994935,44.939696,291.086947,359.692230,2.814322,3.000000,-93.166982,4.898616,2025-03-06T18:39:36.999-06:00,-0.162222,-0.985256,0.015012,2025-03-06T18:39:36.195-06:00,0.649609,-0.122910,0.139873,2025-03-06T18:39:36.187-06:00
78.000000,263.413354,0.677690,8.547344,44.939765,290.823354,359.692230,2.877266,3.000000,-93.166975,6.405360,2025-03-06T18:39:37.999-06:00,-0.168333,-0.985796,0.008274,2025-03-06T18:39:37.190-06:00,0.556191,-0.108190,0.066528,2025-03-06T18:39:37.192-06:00
79.000000,263.423377,0.680569,7.573634,44.939832,290.833377,0.000000,2.957051,3.000000,-93.166970,7.276353,2025-03-06T18:39:38.999-06:00,-0.182144,-0.981940,0.014296,2025-03-06T18:39:38.194-06:00,0.408077,-0.072304,0.087487,2025-03-06T18:39:38.187-06:00
80.000000,263.190412,0.676633,7.256789,44.939905,290.600412,0.000000,2.836180,3.000000,-93.166970,7.971486,2025-03-06T18:39:39.999-06:00,-0.199154,-0.983109,-0.004387,2025-03-06T18:39:39.189-06:00,0.131619,-0.060208,-0.016715,2025-03-06T18:39:39.191-06:00
81.000000,263.097040,0.671103,7.257842,44.939983,290.507040,0.000000,2.735594,3.000000,-93.166969,8.450028,2025-03-06T18:39:40.999-06:00,-0.209690,-0.982923,-0.005446,2025-03-06T18:39:40.194-06:00,-0.009096,-0.047986,-0.091287,2025-03-06T18:39:40.196-06:00
82.000000,263.033442,0.670609,7.258891,44.940063,290.443442,0.000000,2.609278,3.000000,-93.166967,8.854362,2025-03-06T18:39:41.999-06:00,-0.198756,-0.982475,0.009166,2025-03-06T18:39:41.188-06:00,-0.047875,-0.010643,0.026861,2025-03-06T18:39:41.191-06:00
83.000000,263.076773,0.667891,7.258953,44.940147,290.486773,0.000000,2.395442,3.000000,-93.166966,9.284205,2025-03-06T18:39:42.999-06:00,-0.170035,-0.950455,0.002380,2025-03-06T18:39:42.193-06:00,0.362656,0.264899,0.082992,2025-03-06T18:39:42.195-06:00
84.000000,262.808961,0.665519,7.256901,44.940239,290.218960,0.195503,2.401486,3.000000,-93.166962,9.998099,2025-03-06T18:39:43.999-06:00,-0.204346,-0.993186,0.020528,2025-03-06T18:39:43.188-06:00,0.128185,-0.169567,0.103258,2025-03-06T18:39:43.190-06:00
85.000000,262.572858,0.674255,7.256736,44.940336,289.982858,0.195503,2.746893,3.000000,-93.166965,10.572440,2025-03-06T18:39:44.999-06:00,-0.247617,-0.971028,0.006162,2025-03-06T18:39:44.192-06:00,-0.391562,0.072794,-0.057668,2025-03-06T18:39:44.195-06:00
86.000000,262.469629,0.678031,7.257885,44.940432,289.879629,0.195503,2.507527,3.000000,-93.166968,10.650150,2025-03-06T18:39:45.999-06:00,-0.277483,-0.962271,-0.005199,2025-03-06T18:39:45.187-06:00,-0.693685,0.158120,-0.147071,2025-03-06T18:39:45.190-06:00
87.000000,262.382821,0.672966,7.257582,44.940527,289.792821,0.195503,2.281952,3.000000,-93.166968,10.531983,2025-03-06T18:39:46.999-06:00,-0.279576,-0.960627,-0.012913,2025-03-06T18:39:46.192-06:00,-0.680964,0.167603,-0.168853,2025-03-06T18:39:46.194-06:00
88.000000,262.411526,0.676241,7.258396,44.940620,289.821526,0.195503,2.702877,3.000000,-93.166965,10.359866,2025-03-06T18:39:47.999-06:00,-0.265108,-0.955669,-0.008064,2025-03-06T18:39:47.196-06:00,-0.550466,0.218714,-0.147080,2025-03-06T18:39:47.189-06:00
89.000000,262.593178,0.677091,7.258962,44.940710,290.003178,359.438293,4.235440,3.591139,-93.166962,10.137197,2025-03-06T18:39:48.999-06:00,-0.234007,-0.969541,0.012542,2025-03-06T18:39:48.191-06:00,-0.117344,0.064856,-0.090282,2025-03-06T18:39:48.194-06:00
90.000000,262.662866,0.681921,7.258934,44.940803,290.072866,359.438293,3.452101,3.000000,-93.166964,10.322802,2025-03-06T18:39:49.999-06:00,-0.250393,-0.971734,0.019737,2025-03-06T18:39:49.196-06:00,-0.274678,0.005282,-0.041312,2025-03-06T18:39:49.188-06:00
91.000000,262.232278,0.673795,7.257136,44.940894,289.642278,359.107178,2.822480,3.000000,-93.166966,10.231705,2025-03-06T18:39:50.999-06:00,-0.276419,-0.956306,0.001489,2025-03-06T18:39:50.191-06:00,-0.486790,0.169952,-0.137620,2025-03-06T18:39:50.193-06:00
92.000000,262.366969,0.667647,7.258974,44.940986,289.776968,359.107178,2.511354,3.000000,-93.166967,10.202047,2025-03-06T18:39:51.999-06:00,-0.261284,-0.964877,0.016523,2025-03-06T18:39:51.195-06:00,-0.377314,0.099841,-0.087970,2025-03-06T18:39:51.188-06:00
93.000000,262.223721,0.667294,7.258639,44.941074,289.633720,0.206405,2.433605,3.000000,-93.166967,10.066451,2025-03-06T18:39:52.999-06:00,-0.264438,-0.961032,0.008129,2025-03-06T18:39:52.190-06:00,-0.341586,0.112858,-0.165499,2025-03-06T18:39:52.192-06:00
94.000000,261.749975,0.675031,7.253146,44.941164,289.159975,0.206405,2.293897,3.000000,-93.166965,9.981131,2025-03-06T18:39:53.999-06:00,-0.279794,-0.956349,0.017104,2025-03-06T18:39:53.195-06:00,-0.440618,0.144404,-0.149671,2025-03-06T18:39:53.187-06:00
95.000000,261.829019,0.676351,7.258851,44.941251,289.239019,0.206405,2.168842,3.000000,-93.166964,9.807833,2025-03-06T18:39:54.999-06:00,-0.265368,-0.977775,0.025295,2025-03-06T18:39:54.189-06:00,-0.390219,-0.034988,-0.077485,2025-03-06T18:39:54.192-06:00
96.000000,261.974411,0.676162,7.258743,44.941336,289.384411,0.206405,2.097575,3.000000,-93.166964,9.579008,2025-03-06T18:39:55.999-06:00,-0.235672,-0.957308,0.003969,2025-03-06T18:39:55.194-06:00,-0.022219,0.142266,-0.004433,2025-03-06T18:39:55.187-06:00
97.000000,261.830540,0.673724,7.258924,44.941423,289.240540,0.000000,2.056814,3.000000,-93.166963,9.683563,2025-03-06T18:39:56.999-06:00,-0.209025,-0.978356,0.034996,2025-03-06T18:39:56.189-06:00,0.146357,-0.037910,0.155320,2025-03-06T18:39:56.191-06:00
98.000000,,,,,,,,,,,,-0.220440,-0.964782,-0.006846,2025-03-06T18:39:57.193-06:00,0.119227,0.069964,-0.027842,2025-03-06T18:39:57.196-06:00
