seconds_elapsed,location_altitude,location_speedAccuracy,location_bearingAccuracy,location_latitude,location_altitudeAboveMeanSeaLevel,location_bearing,location_horizontalAccuracy,location_verticalAccuracy,location_longitude,location_speed,location_local_time,accelerometerUncalibrated_z,accelerometerUncalibrated_y,accelerometerUncalibrated_x,accelerometerUncalibrated_local_time,accelerometer_z,accelerometer_y,accelerometer_x,accelerometer_local_time
0.000000,254.214334,-0.295000,7.235477,44.939032,281.624334,2.589844,136.046746,4.250000,-93.177149,0.125000,2025-03-06T19:08:12.629-06:00,-0.258353,-0.972370,-0.126920,2025-03-06T19:08:12.618-06:00,0.145010,-0.116255,-1.144837,2025-03-06T19:08:12.631-06:00
1.000000,252.885559,1.990000,36.272505,44.938965,280.295559,10.546875,6.975187,3.000000,-93.177193,3.500000,2025-03-06T19:08:13.999-06:00,-0.269088,-0.949655,-0.154878,2025-03-06T19:08:13.603-06:00,0.002622,0.113987,-0.979134,2025-03-06T19:08:13.606-06:00
2.000000,253.268738,1.030000,16.413373,44.938997,280.678738,42.890625,4.089110,3.000000,-93.177124,3.500000,2025-03-06T19:08:14.999-06:00,-0.267635,-0.973619,-0.118232,2025-03-06T19:08:14.608-06:00,-0.378079,-0.019957,-0.564501,2025-03-06T19:08:14.610-06:00
3.000000,252.361572,0.990000,17.894278,44.939016,279.771572,72.070312,3.653486,3.000000,-93.177073,3.390000,2025-03-06T19:08:15.999-06:00,-0.118158,-0.993689,-0.040397,2025-03-06T19:08:15.602-06:00,0.748290,-0.139815,0.024951,2025-03-06T19:08:15.605-06:00
4.000000,250.912415,0.130000,2.064237,44.939022,278.322414,90.161156,3.535534,3.000000,-93.177021,4.040000,2025-03-06T19:08:16.999-06:00,-0.113838,-0.997124,0.026903,2025-03-06T19:08:16.607-06:00,0.659313,-0.132460,0.471054,2025-03-06T19:08:16.609-06:00
5.000000,251.352417,0.120000,1.503795,44.939006,278.762417,90.161156,3.535534,3.000000,-93.176956,5.400000,2025-03-06T19:08:17.999-06:00,-0.142829,-0.991208,0.044126,2025-03-06T19:08:17.611-06:00,0.331234,-0.070163,0.562279,2025-03-06T19:08:17.604-06:00
6.000000,251.065552,0.100000,1.086898,44.939006,278.475552,90.161156,3.535534,3.000000,-93.176890,5.990000,2025-03-06T19:08:19.000-06:00,-0.154120,-0.985161,0.071862,2025-03-06T19:08:18.606-06:00,0.176451,-0.004193,0.780965,2025-03-06T19:08:18.609-06:00
7.000000,250.824585,0.120000,1.204770,44.939005,278.234585,90.161156,3.535534,3.000000,-93.176811,5.990000,2025-03-06T19:08:20.000-06:00,-0.161067,-0.985302,0.061694,2025-03-06T19:08:19.611-06:00,0.069674,0.009874,0.724388,2025-03-06T19:08:19.603-06:00
8.000000,250.209595,0.130000,1.233189,44.939005,277.619595,90.161156,3.535534,3.000000,-93.176728,6.570000,2025-03-06T19:08:21.000-06:00,-0.161380,-0.982194,0.050490,2025-03-06T19:08:20.605-06:00,0.007006,0.051704,0.624413,2025-03-06T19:08:20.608-06:00
9.000000,250.522156,0.520000,4.439579,44.939005,277.932156,90.161156,3.535534,3.000000,-93.176632,7.630000,2025-03-06T19:08:22.000-06:00,-0.188131,-0.977799,0.055149,2025-03-06T19:08:21.610-06:00,-0.216774,0.072791,0.591566,2025-03-06T19:08:21.602-06:00
10.000000,249.619141,1.720000,15.763546,44.939005,277.029140,90.161156,3.535534,3.000000,-93.176546,7.630000,2025-03-06T19:08:23.000-06:00,-0.207101,-0.977999,0.043252,2025-03-06T19:08:22.604-06:00,-0.354934,0.066945,0.379057,2025-03-06T19:08:22.607-06:00
11.000000,249.483337,2.660000,17.070910,44.939006,276.893337,90.161156,3.535534,3.000000,-93.176411,7.630000,2025-03-06T19:08:24.000-06:00,-0.205278,-0.972702,0.042367,2025-03-06T19:08:23.609-06:00,-0.368289,0.135437,0.325858,2025-03-06T19:08:23.602-06:00
12.000000,250.151428,1.170000,6.885414,44.939015,277.561428,90.161156,3.535534,3.000000,-93.176316,7.430000,2025-03-06T19:08:25.000-06:00,-0.211727,-0.974403,0.040973,2025-03-06T19:08:24.604-06:00,-0.353052,0.094004,0.306491,2025-03-06T19:08:24.606-06:00
13.000000,250.151433,1.170000,12.759530,44.939016,277.561432,90.161156,4.748652,4.029364,-93.176222,7.430000,2025-03-06T19:08:26.000-06:00,-0.207086,-0.983229,0.039668,2025-03-06T19:08:25.608-06:00,-0.299674,0.012680,0.320344,2025-03-06T19:08:25.611-06:00
14.000000,250.007818,0.720000,7.258975,44.939018,277.417818,90.075386,4.748652,4.029364,-93.176115,8.110000,2025-03-06T19:08:27.000-06:00,-0.195460,-0.968631,0.027493,2025-03-06T19:08:26.603-06:00,-0.195282,0.150061,0.251336,2025-03-06T19:08:26.605-06:00
15.000000,249.942998,0.470000,7.258975,44.939017,277.352998,90.075386,4.748652,4.029364,-93.176014,8.110000,2025-03-06T19:08:28.000-06:00,-0.205374,-0.982937,0.013564,2025-03-06T19:08:27.607-06:00,-0.242915,-0.000760,0.134483,2025-03-06T19:08:27.610-06:00
16.000000,250.114995,0.450000,7.258975,44.939021,277.524995,90.075386,4.748652,4.029364,-93.175911,8.110000,2025-03-06T19:08:29.000-06:00,-0.188040,-0.969340,0.018630,2025-03-06T19:08:28.602-06:00,-0.091124,0.146457,0.207600,2025-03-06T19:08:28.604-06:00
17.000000,250.304571,0.870000,8.303271,44.939004,277.714571,90.075386,4.748652,4.029364,-93.175800,8.490000,2025-03-06T19:08:30.000-06:00,-0.201377,-0.977611,-0.000796,2025-03-06T19:08:29.607-06:00,-0.223610,0.059130,0.057768,2025-03-06T19:08:29.609-06:00
18.000000,250.344671,0.308016,7.258975,44.939004,277.754671,90.075386,4.748652,4.029364,-93.175688,8.600000,2025-03-06T19:08:31.000-06:00,-0.230792,-0.978698,-0.009495,2025-03-06T19:08:30.611-06:00,-0.428089,0.039263,-0.070170,2025-03-06T19:08:30.604-06:00
19.000000,250.394293,0.308016,7.258975,44.939004,277.804293,90.075386,4.748652,4.029364,-93.175576,8.760000,2025-03-06T19:08:32.000-06:00,-0.218791,-0.961023,0.012042,2025-03-06T19:08:31.606-06:00,-0.363144,0.236770,0.034687,2025-03-06T19:08:31.608-06:00
20.000000,250.633185,0.330000,7.258975,44.939004,278.043185,90.075386,4.748652,4.029364,-93.175463,8.760000,2025-03-06T19:08:33.000-06:00,-0.235899,-0.970867,0.042381,2025-03-06T19:08:32.610-06:00,-0.406434,0.076010,0.252766,2025-03-06T19:08:32.603-06:00
21.000000,250.513922,0.600000,7.258975,44.939004,277.923922,90.075386,4.748652,4.029364,-93.175357,8.730000,2025-03-06T19:08:34.000-06:00,-0.221310,-0.982101,0.044129,2025-03-06T19:08:33.605-06:00,-0.316141,-0.003891,0.270445,2025-03-06T19:08:33.607-06:00
22.000000,250.758917,0.308016,7.258975,44.939003,278.168917,90.075386,4.748652,4.029364,-93.175249,8.600000,2025-03-06T19:08:35.000-06:00,-0.201223,-0.958938,0.022038,2025-03-06T19:08:34.609-06:00,-0.138444,0.231895,0.067583,2025-03-06T19:08:34.602-06:00
23.000000,251.036199,0.308016,7.258975,44.939003,278.446199,90.000000,4.748652,4.029364,-93.175148,8.310000,2025-03-06T19:08:35.999-06:00,-0.230509,-0.971698,0.017770,2025-03-06T19:08:35.604-06:00,-0.260694,0.062377,-0.078328,2025-03-06T19:08:35.607-06:00
24.000000,251.345159,0.308016,7.258975,44.939003,278.755159,90.000000,4.748652,4.029364,-93.175040,8.430000,2025-03-06T19:08:36.999-06:00,-0.253653,-0.966492,0.004404,2025-03-06T19:08:36.609-06:00,-0.539443,0.147330,-0.113619,2025-03-06T19:08:36.611-06:00
25.000000,251.666632,0.420000,7.258975,44.939019,279.076631,90.000000,4.748652,4.029364,-93.174932,8.430000,2025-03-06T19:08:37.999-06:00,-0.271703,-0.943869,0.032121,2025-03-06T19:08:37.603-06:00,-0.724943,0.339316,0.131845,2025-03-06T19:08:37.606-06:00
26.000000,251.765508,0.470000,7.258975,44.939019,279.175508,90.000000,4.748652,4.029364,-93.174837,8.360000,2025-03-06T19:08:38.999-06:00,-0.279389,-0.962827,0.024661,2025-03-06T19:08:38.608-06:00,-0.589227,0.139336,0.031663,2025-03-06T19:08:38.610-06:00
27.000000,251.956486,0.308016,7.258975,44.939020,279.366486,90.000000,4.748652,4.029364,-93.174752,7.590000,2025-03-06T19:08:39.999-06:00,-0.279339,-0.957032,0.008303,2025-03-06T19:08:39.602-06:00,-0.520912,0.160532,-0.157818,2025-03-06T19:08:39.605-06:00
28.000000,252.065068,1.690000,19.179008,44.939020,279.475067,90.000000,4.748652,4.029364,-93.174676,7.140000,2025-03-06T19:08:40.999-06:00,-0.312524,-0.954099,0.017367,2025-03-06T19:08:40.607-06:00,-0.814667,0.185386,-0.127178,2025-03-06T19:08:40.610-06:00
29.000000,252.159061,2.310000,29.383950,44.939003,279.569061,90.000000,4.748652,4.029364,-93.174611,6.370000,2025-03-06T19:08:41.999-06:00,-0.305713,-0.945537,0.015954,2025-03-06T19:08:41.602-06:00,-0.719433,0.263489,-0.091284,2025-03-06T19:08:41.604-06:00
30.000000,252.095584,1.120000,14.246764,44.939012,279.505584,90.000000,4.748652,4.029364,-93.174549,6.370000,2025-03-06T19:08:42.999-06:00,-0.371298,-0.935832,0.008200,2025-03-06T19:08:42.606-06:00,-1.252430,0.325874,-0.182689,2025-03-06T19:08:42.609-06:00
31.000000,252.266238,0.308016,7.258975,44.939014,279.676237,90.000000,4.748652,4.029364,-93.174499,5.210000,2025-03-06T19:08:43.999-06:00,-0.375661,-0.935026,0.009751,2025-03-06T19:08:43.611-06:00,-1.259780,0.333556,-0.166388,2025-03-06T19:08:43.603-06:00
32.000000,252.408083,0.308016,7.258975,44.939012,279.818082,90.000000,4.748652,4.029364,-93.174459,4.320000,2025-03-06T19:08:44.999-06:00,-0.275904,-0.956519,0.032608,2025-03-06T19:08:44.605-06:00,-0.215308,0.098470,0.002777,2025-03-06T19:08:44.608-06:00
33.000000,254.528106,1.269515,51.645981,44.939016,281.938106,90.000000,2.495496,3.000000,-93.174423,1.991788,2025-03-06T19:08:45.999-06:00,-0.189137,-0.979807,0.049685,2025-03-06T19:08:45.610-06:00,0.664509,-0.132110,0.190919,2025-03-06T19:08:45.603-06:00
34.000000,254.111258,1.266960,83.679313,44.939008,281.521258,90.000000,2.000000,3.000000,-93.174419,1.192802,2025-03-06T19:08:46.999-06:00,-0.131584,-0.992056,0.069904,2025-03-06T19:08:46.605-06:00,1.224538,-0.251746,0.376441,2025-03-06T19:08:46.607-06:00
35.000000,254.127643,1.269063,65.661272,44.939008,281.537643,90.000000,2.072943,3.000000,-93.174390,1.555225,2025-03-06T19:08:47.999-06:00,-0.121823,-0.995618,0.072695,2025-03-06T19:08:47.609-06:00,1.303014,-0.290007,0.390896,2025-03-06T19:08:47.602-06:00
36.000000,254.251994,1.272834,40.143674,44.939011,281.661994,90.000000,2.410957,3.000000,-93.174349,2.567047,2025-03-06T19:08:48.999-06:00,-0.134877,-0.991580,0.062218,2025-03-06T19:08:48.604-06:00,1.135347,-0.234355,0.293175,2025-03-06T19:08:48.606-06:00
37.000000,254.498138,0.672626,12.252444,44.939012,281.908138,90.000000,2.678217,3.000000,-93.174296,4.443650,2025-03-06T19:08:49.999-06:00,-0.154665,-0.996646,0.033114,2025-03-06T19:08:49.608-06:00,0.922775,-0.275525,0.038173,2025-03-06T19:08:49.611-06:00
38.000000,254.793135,0.644573,10.017407,44.939016,282.203135,90.000000,2.562110,3.000000,-93.174226,5.202498,2025-03-06T19:08:50.999-06:00,-0.189593,-0.962818,0.024857,2025-03-06T19:08:50.603-06:00,0.603595,0.043676,-0.066656,2025-03-06T19:08:50.605-06:00
39.000000,254.818816,0.637626,8.883809,44.939020,282.228816,89.699310,2.468425,3.000000,-93.174149,5.815414,2025-03-06T19:08:51.999-06:00,-0.206038,-0.975177,0.041454,2025-03-06T19:08:51.608-06:00,0.479390,-0.092976,0.015520,2025-03-06T19:08:51.610-06:00
40.000000,254.700835,0.654091,8.602546,44.939016,282.110835,89.699310,2.478908,3.000000,-93.174069,6.157613,2025-03-06T19:08:52.999-06:00,-0.176923,-0.989512,0.045934,2025-03-06T19:08:52.602-06:00,0.760640,-0.226051,0.051185,2025-03-06T19:08:52.605-06:00
41.000000,254.715220,0.656843,7.597983,44.939021,282.125220,89.699310,2.407452,3.000000,-93.173976,7.001577,2025-03-06T19:08:53.999-06:00,-0.177161,-0.979535,0.053858,2025-03-06T19:08:53.607-06:00,0.612579,-0.095643,0.119654,2025-03-06T19:08:53.609-06:00
42.000000,254.288974,0.656056,7.242751,44.939009,281.698974,89.699310,2.335373,3.000000,-93.173883,7.373515,2025-03-06T19:08:54.999-06:00,-0.223505,-0.970341,0.044081,2025-03-06T19:08:54.611-06:00,0.135528,-0.003138,0.076439,2025-03-06T19:08:54.604-06:00
43.000000,253.982250,0.778974,8.335527,44.939001,281.392250,89.699310,2.659229,3.000000,-93.173787,7.454858,2025-03-06T19:08:55.999-06:00,-0.218157,-0.967617,0.013688,2025-03-06T19:08:55.606-06:00,0.087274,0.064863,-0.047649,2025-03-06T19:08:55.608-06:00
44.000000,254.487904,0.674197,7.258693,44.939015,281.897903,89.699310,2.477515,3.000000,-93.173671,8.280847,2025-03-06T19:08:56.999-06:00,-0.215973,-0.975071,0.030326,2025-03-06T19:08:56.611-06:00,0.116420,-0.019508,0.121255,2025-03-06T19:08:56.603-06:00
45.000000,254.244357,0.663506,7.252380,44.939012,281.654357,89.733643,2.331863,3.000000,-93.173559,8.612332,2025-03-06T19:08:57.999-06:00,-0.212700,-0.972838,0.031479,2025-03-06T19:08:57.605-06:00,-0.006129,0.036798,0.139257,2025-03-06T19:08:57.608-06:00
46.000000,254.408364,0.658673,7.258949,44.939019,281.818363,89.733643,2.218599,3.000000,-93.173448,8.856179,2025-03-06T19:08:58.999-06:00,-0.239342,-0.963562,-0.000900,2025-03-06T19:08:58.610-06:00,-0.251714,0.132155,-0.094823,2025-03-06T19:08:58.602-06:00
47.000000,254.635749,0.641271,7.258264,44.939015,282.045749,89.733643,2.141779,3.000000,-93.173336,8.804258,2025-03-06T19:08:59.999-06:00,-0.235030,-0.970144,-0.009018,2025-03-06T19:08:59.604-06:00,-0.199179,0.074828,-0.179604,2025-03-06T19:08:59.607-06:00
48.000000,254.659474,0.649220,7.258735,44.939017,282.069474,89.733643,2.092011,3.000000,-93.173225,8.759108,2025-03-06T19:09:00.999-06:00,-0.260424,-0.978157,0.000420,2025-03-06T19:09:00.609-06:00,-0.513157,-0.000798,-0.119772,2025-03-06T19:09:00.611-06:00
49.000000,254.702487,0.655838,7.258376,44.939011,282.112487,90.109154,2.060459,3.000000,-93.173122,8.356662,2025-03-06T19:09:01.999-06:00,-0.223990,-0.948749,-0.004176,2025-03-06T19:09:01.604-06:00,-0.184629,0.297240,0.039835,2025-03-06T19:09:01.606-06:00
50.000000,254.884753,0.657215,7.257168,44.939016,282.294752,90.109154,2.040140,3.000000,-93.173014,8.435335,2025-03-06T19:09:02.999-06:00,-0.233927,-0.991055,0.003744,2025-03-06T19:09:02.608-06:00,-0.200241,-0.129159,0.021137,2025-03-06T19:09:02.611-06:00
51.000000,254.864730,0.644066,7.258705,44.939017,282.274730,90.109154,2.026771,3.000000,-93.172908,8.472629,2025-03-06T19:09:03.999-06:00,-0.223145,-0.971059,-0.035338,2025-03-06T19:09:03.603-06:00,-0.206885,0.071399,-0.271790,2025-03-06T19:09:03.605-06:00
52.000000,255.026315,0.651992,7.258684,44.939010,282.436315,90.109154,2.017719,3.000000,-93.172804,8.214299,2025-03-06T19:09:04.999-06:00,-0.218432,-0.962667,-0.007338,2025-03-06T19:09:04.607-06:00,-0.141898,0.158814,-0.008776,2025-03-06T19:09:04.610-06:00
53.000000,255.105756,0.652626,7.258973,44.939016,282.515756,90.109154,2.011805,3.000000,-93.172699,8.148558,2025-03-06T19:09:05.999-06:00,-0.225708,-0.980945,-0.017919,2025-03-06T19:09:05.602-06:00,-0.180373,-0.018156,-0.072866,2025-03-06T19:09:05.604-06:00
54.000000,255.222884,0.664029,7.258957,44.939017,282.632884,90.109154,2.007917,3.000000,-93.172595,8.171859,2025-03-06T19:09:06.999-06:00,-0.215267,-0.969175,-0.009520,2025-03-06T19:09:06.606-06:00,-0.115289,0.092487,0.106749,2025-03-06T19:09:06.609-06:00
55.000000,255.377098,0.658691,7.258218,44.939017,282.787098,90.109154,2.005370,3.000000,-93.172495,8.069228,2025-03-06T19:09:07.999-06:00,-0.208812,-0.974035,-0.019029,2025-03-06T19:09:07.611-06:00,0.008914,0.027004,-0.024105,2025-03-06T19:09:07.604-06:00
56.000000,254.982710,0.660442,7.252257,44.939019,282.392710,90.109154,2.003645,3.000000,-93.172395,7.914241,2025-03-06T19:09:08.999-06:00,-0.220558,-0.970250,-0.022671,2025-03-06T19:09:08.606-06:00,-0.065462,0.035621,-0.072115,2025-03-06T19:09:08.608-06:00
57.000000,255.517545,0.655814,7.258867,44.939019,282.927544,89.691193,2.002425,3.000000,-93.172286,8.182080,2025-03-06T19:09:09.999-06:00,-0.216610,-0.967457,-0.031137,2025-03-06T19:09:09.610-06:00,-0.110745,0.130340,-0.045722,2025-03-06T19:09:09.603-06:00
58.000000,254.827997,0.786641,8.117557,44.939021,282.237997,89.691193,2.431664,3.000000,-93.172191,7.776431,2025-03-06T19:09:10.999-06:00,-0.220939,-0.978821,-0.050256,2025-03-06T19:09:10.605-06:00,-0.124751,-0.000683,-0.144709,2025-03-06T19:09:10.607-06:00
59.000000,255.518928,0.681545,7.258697,44.939016,282.928928,89.691193,2.289700,3.000000,-93.172085,7.957538,2025-03-06T19:09:11.999-06:00,-0.221512,-0.968313,-0.030342,2025-03-06T19:09:11.609-06:00,-0.105740,0.075586,-0.061985,2025-03-06T19:09:11.602-06:00
60.000000,255.249096,0.686824,7.251123,44.939020,282.659096,89.691193,2.456453,3.000000,-93.171986,7.767756,2025-03-06T19:09:12.999-06:00,-0.216744,-0.950226,-0.002752,2025-03-06T19:09:12.604-06:00,-0.075321,0.274933,0.099736,2025-03-06T19:09:12.607-06:00
61.000000,255.607435,0.681888,7.258061,44.939022,283.017434,88.184402,2.487061,3.000000,-93.171885,7.805833,2025-03-06T19:09:13.999-06:00,-0.231823,-0.990151,-0.038424,2025-03-06T19:09:13.609-06:00,-0.144183,-0.145887,-0.074691,2025-03-06T19:09:13.611-06:00
62.000000,256.511844,0.667480,7.246996,44.939019,283.921844,87.450706,2.384967,3.000000,-93.171780,7.986273,2025-03-06T19:09:14.999-06:00,-0.253547,-0.964106,-0.036596,2025-03-06T19:09:14.603-06:00,-0.412486,0.120787,-0.051029,2025-03-06T19:09:14.606-06:00
63.000000,256.791346,0.670746,7.251554,44.939026,284.201346,87.450706,2.283012,3.000000,-93.171682,7.819900,2025-03-06T19:09:15.999-06:00,-0.252510,-0.959354,-0.038842,2025-03-06T19:09:15.608-06:00,-0.439332,0.178151,-0.171973,2025-03-06T19:09:15.610-06:00
64.000000,256.605858,0.672932,7.742996,44.939025,284.015858,87.450706,2.482828,3.000000,-93.171597,7.039784,2025-03-06T19:09:16.999-06:00,-0.256305,-0.960329,-0.006147,2025-03-06T19:09:16.602-06:00,-0.314406,0.149303,-0.009988,2025-03-06T19:09:16.605-06:00
65.000000,256.806875,0.676107,8.272778,44.939027,284.216875,87.450706,2.343327,3.000000,-93.171513,6.624289,2025-03-06T19:09:17.999-06:00,-0.220431,-0.962716,0.005730,2025-03-06T19:09:17.607-06:00,0.120405,0.093721,0.158028,2025-03-06T19:09:17.609-06:00
66.000000,256.734397,0.683306,8.395762,44.939028,284.144397,87.450706,2.585062,3.000000,-93.171429,6.578555,2025-03-06T19:09:18.999-06:00,-0.221976,-0.973901,-0.022883,2025-03-06T19:09:18.602-06:00,0.172889,-0.021973,-0.077881,2025-03-06T19:09:18.604-06:00
67.000000,256.587965,0.692818,8.650311,44.939030,283.997965,88.985916,2.710259,3.000000,-93.171347,6.476546,2025-03-06T19:09:19.999-06:00,-0.236161,-0.971000,-0.017622,2025-03-06T19:09:19.606-06:00,-0.058314,0.002375,-0.152256,2025-03-06T19:09:19.609-06:00
68.000000,256.708825,0.679690,8.304910,44.939038,284.118825,88.985916,2.537650,3.000000,-93.171257,6.625089,2025-03-06T19:09:20.999-06:00,-0.212926,-0.976212,0.007233,2025-03-06T19:09:20.611-06:00,0.112314,-0.012181,0.058061,2025-03-06T19:09:20.603-06:00
69.000000,257.061068,0.689005,8.338089,44.939023,284.471068,90.505722,2.432211,3.000000,-93.171170,6.698940,2025-03-06T19:09:21.999-06:00,-0.193435,-0.987541,-0.001913,2025-03-06T19:09:21.605-06:00,0.304007,-0.122569,-0.036968,2025-03-06T19:09:21.608-06:00
70.000000,257.007856,0.675754,8.040164,44.939022,284.417856,90.505722,2.330807,3.000000,-93.171083,6.799363,2025-03-06T19:09:22.999-06:00,-0.204250,-0.969798,-0.024362,2025-03-06T19:09:22.610-06:00,0.214385,0.037970,-0.215065,2025-03-06T19:09:22.602-06:00
71.000000,258.100786,0.670884,7.533752,44.939022,285.510786,90.505722,2.603137,3.000000,-93.170985,7.219941,2025-03-06T19:09:23.999-06:00,-0.202537,-0.975586,0.009261,2025-03-06T19:09:23.605-06:00,0.255949,-0.020041,0.049786,2025-03-06T19:09:23.607-06:00
72.000000,257.968291,0.656946,7.257335,44.939034,285.378291,90.505722,2.568557,3.000000,-93.170893,7.346264,2025-03-06T19:09:24.999-06:00,-0.205571,-0.959741,0.013475,2025-03-06T19:09:24.609-06:00,0.217896,0.130527,0.131347,2025-03-06T19:09:24.602-06:00
73.000000,258.842844,0.663432,7.240952,44.939037,286.252844,90.000000,2.598485,3.000000,-93.170796,7.477145,2025-03-06T19:09:25.999-06:00,-0.245522,-0.973586,0.024750,2025-03-06T19:09:25.604-06:00,-0.156825,0.000853,0.194416,2025-03-06T19:09:25.606-06:00
74.000000,257.667602,0.717227,8.513439,44.939027,285.077602,90.000000,2.498475,3.000000,-93.170719,6.727353,2025-03-06T19:09:26.999-06:00,-0.229233,-0.966896,-0.002555,2025-03-06T19:09:26.608-06:00,-0.002237,0.060966,-0.008380,2025-03-06T19:09:26.611-06:00
75.000000,258.533063,0.681620,7.439190,44.939021,285.943063,90.000000,2.372518,3.000000,-93.170611,7.431502,2025-03-06T19:09:27.999-06:00,-0.243697,-0.982350,-0.021253,2025-03-06T19:09:27.603-06:00,-0.159535,-0.088571,-0.158388,2025-03-06T19:09:27.605-06:00
76.000000,258.456547,0.677483,7.762166,44.939029,285.866546,90.000000,2.279132,3.000000,-93.170525,7.073159,2025-03-06T19:09:28.999-06:00,-0.232545,-0.967319,-0.031823,2025-03-06T19:09:28.607-06:00,-0.084483,0.077464,-0.287713,2025-03-06T19:09:28.610-06:00
77.000000,258.600023,0.659552,7.573232,44.939033,286.010023,90.000000,2.208515,3.000000,-93.170433,7.060553,2025-03-06T19:09:29.999-06:00,-0.258793,-0.944106,-0.010518,2025-03-06T19:09:29.602-06:00,-0.264794,0.278614,-0.110511,2025-03-06T19:09:29.605-06:00
78.000000,258.628917,0.669297,7.888285,44.939028,286.038917,90.000000,2.157395,3.000000,-93.170346,6.876668,2025-03-06T19:09:30.999-06:00,-0.273870,-0.961864,0.045905,2025-03-06T19:09:30.607-06:00,-0.436415,0.108744,0.246307,2025-03-06T19:09:30.609-06:00
79.000000,259.038930,0.659612,7.926366,44.939032,286.448930,90.000000,2.119597,3.000000,-93.170261,6.729765,2025-03-06T19:09:31.999-06:00,-0.258592,-0.961032,-0.027576,2025-03-06T19:09:31.611-06:00,-0.307616,0.126603,-0.267918,2025-03-06T19:09:31.604-06:00
80.000000,258.897184,0.657007,8.813515,44.939021,286.307184,90.000000,2.093667,3.000000,-93.170189,6.040081,2025-03-06T19:09:32.999-06:00,-0.260945,-0.961413,-0.033329,2025-03-06T19:09:32.606-06:00,-0.320068,0.119382,-0.129108,2025-03-06T19:09:32.608-06:00
81.000000,258.891789,0.648413,9.378402,44.939021,286.301789,90.000000,2.078056,3.000000,-93.170120,5.601981,2025-03-06T19:09:33.999-06:00,-0.256914,-0.968100,-0.033164,2025-03-06T19:09:33.610-06:00,-0.197230,0.031194,-0.262292,2025-03-06T19:09:33.603-06:00
82.000000,259.129523,0.652733,10.137371,44.939030,286.539523,90.000000,2.066905,3.000000,-93.170057,5.203659,2025-03-06T19:09:34.999-06:00,-0.221926,-0.971491,-0.005540,2025-03-06T19:09:34.605-06:00,0.123746,0.020527,-0.013075,2025-03-06T19:09:34.607-06:00
83.000000,259.260345,0.641066,10.167791,44.939030,286.670344,90.000000,2.058542,3.000000,-93.169993,5.097057,2025-03-06T19:09:35.999-06:00,-0.242037,-0.964739,-0.006650,2025-03-06T19:09:35.610-06:00,-0.083851,0.062845,-0.089853,2025-03-06T19:09:35.602-06:00
84.000000,259.172617,0.659182,10.803662,44.939029,286.582617,90.000000,2.059190,3.000000,-93.169931,4.943368,2025-03-06T19:09:36.999-06:00,-0.280564,-0.958480,-0.010840,2025-03-06T19:09:36.604-06:00,-0.353261,0.110536,-0.151122,2025-03-06T19:09:36.607-06:00
85.000000,259.144220,0.671413,11.892366,44.939029,286.554220,90.000000,2.067045,3.000000,-93.169873,4.568764,2025-03-06T19:09:37.999-06:00,-0.278924,-0.961809,-0.011510,2025-03-06T19:09:37.609-06:00,-0.365783,0.084238,-0.226944,2025-03-06T19:09:37.611-06:00
86.000000,258.877950,0.666286,13.624513,44.939023,286.287950,90.000000,2.060950,3.000000,-93.169828,3.907767,2025-03-06T19:09:38.999-06:00,-0.276929,-0.941800,0.000512,2025-03-06T19:09:38.603-06:00,-0.339866,0.277574,-0.036353,2025-03-06T19:09:38.606-06:00
87.000000,,,,,,,,,,,,-0.320842,-0.985123,-0.013357,2025-03-06T19:09:39.608-06:00,-0.600385,-0.186946,-0.070133,2025-03-06T19:09:39.610-06:00
