seconds_elapsed,location_altitude,location_speedAccuracy,location_bearingAccuracy,location_latitude,location_altitudeAboveMeanSeaLevel,location_bearing,location_horizontalAccuracy,location_verticalAccuracy,location_longitude,location_speed,location_local_time,accelerometerUncalibrated_z,accelerometerUncalibrated_y,accelerometerUncalibrated_x,accelerometerUncalibrated_local_time,accelerometer_z,accelerometer_y,accelerometer_x,accelerometer_local_time
0.000000,257.970093,0.860000,9.642911,44.941737,285.380093,262.617188,3.535534,3.000000,-93.167233,4.100000,2025-02-19T15:56:44.000-06:00,-0.204106,-0.961466,-0.225410,2025-02-19T15:56:43.447-06:00,0.069299,0.107145,-1.235475,2025-02-19T15:56:43.456-06:00
1.000000,258.154602,0.390000,5.103960,44.941741,285.564602,282.304688,3.535534,3.000000,-93.167282,5.050000,2025-02-19T15:56:45.000-06:00,-0.120783,-0.980442,-0.073909,2025-02-19T15:56:44.432-06:00,0.996203,-0.098362,0.193463,2025-02-19T15:56:44.431-06:00
2.000000,257.852295,0.340000,3.674152,44.941701,285.262295,270.292664,3.535534,3.000000,-93.167356,6.030000,2025-02-19T15:56:46.000-06:00,-0.163022,-0.969356,-0.077407,2025-02-19T15:56:45.437-06:00,0.530557,0.013383,0.220299,2025-02-19T15:56:45.435-06:00
3.000000,257.853149,0.170000,1.612806,44.941701,285.263149,270.292664,3.535534,3.000000,-93.167434,6.030000,2025-02-19T15:56:47.000-06:00,-0.213266,-0.978290,-0.092458,2025-02-19T15:56:46.431-06:00,-0.027834,-0.058039,0.120146,2025-02-19T15:56:46.440-06:00
4.000000,257.955078,0.320000,3.007018,44.941702,285.365078,270.292664,3.535534,3.000000,-93.167518,6.850000,2025-02-19T15:56:48.000-06:00,-0.190672,-0.989149,-0.077463,2025-02-19T15:56:47.436-06:00,0.073167,-0.127396,0.214088,2025-02-19T15:56:47.435-06:00
5.000000,258.473877,0.160000,1.475524,44.941702,285.883877,270.292664,3.535534,3.000000,-93.167606,6.980000,2025-02-19T15:56:49.000-06:00,-0.193145,-0.973762,-0.068835,2025-02-19T15:56:48.431-06:00,-0.003560,0.014808,0.188465,2025-02-19T15:56:48.440-06:00
6.000000,258.423706,0.670000,5.616803,44.941702,285.833706,270.292664,3.535534,3.000000,-93.167701,7.800000,2025-02-19T15:56:50.000-06:00,-0.193517,-0.979921,-0.070962,2025-02-19T15:56:49.436-06:00,-0.025407,-0.020613,0.166702,2025-02-19T15:56:49.434-06:00
7.000000,258.317627,0.120000,1.000533,44.941703,285.727627,270.292664,3.535534,3.000000,-93.167801,8.250000,2025-02-19T15:56:51.000-06:00,-0.210079,-0.973243,-0.068458,2025-02-19T15:56:50.440-06:00,-0.200925,0.039473,0.237330,2025-02-19T15:56:50.439-06:00
8.000000,258.271484,0.100000,0.810777,44.941703,285.681484,270.292664,3.535534,3.000000,-93.167907,8.250000,2025-02-19T15:56:52.000-06:00,-0.220928,-0.968296,-0.085989,2025-02-19T15:56:51.435-06:00,-0.329632,0.103607,0.097662,2025-02-19T15:56:51.434-06:00
9.000000,258.296631,0.090000,0.702870,44.941716,285.706631,270.292664,3.535534,3.000000,-93.168015,8.390000,2025-02-19T15:56:53.000-06:00,-0.205146,-0.961218,-0.079042,2025-02-19T15:56:52.440-06:00,-0.172186,0.148028,0.177016,2025-02-19T15:56:52.439-06:00
10.000000,258.296636,0.308016,7.258975,44.941716,285.706636,270.234100,4.748652,4.029364,-93.168121,8.390000,2025-02-19T15:56:54.000-06:00,-0.213395,-0.976813,-0.073076,2025-02-19T15:56:53.435-06:00,-0.257445,0.013583,0.188520,2025-02-19T15:56:53.433-06:00
11.000000,258.349981,0.308016,7.258975,44.941714,285.759981,270.234100,4.748652,4.029364,-93.168237,8.570000,2025-02-19T15:56:55.000-06:00,-0.235164,-0.968314,-0.067050,2025-02-19T15:56:54.439-06:00,-0.378206,0.089720,0.099755,2025-02-19T15:56:54.438-06:00
12.000000,258.323615,0.308016,7.258975,44.941714,285.733615,270.234100,4.748652,4.029364,-93.168354,8.910000,2025-02-19T15:56:56.000-06:00,-0.245371,-0.967807,-0.080373,2025-02-19T15:56:55.434-06:00,-0.447252,0.093527,-0.050250,2025-02-19T15:56:55.433-06:00
13.000000,258.028693,1.660000,15.096213,44.941714,285.438693,270.234100,4.748652,4.029364,-93.168467,8.910000,2025-02-19T15:56:57.000-06:00,-0.232103,-0.965330,-0.067773,2025-02-19T15:56:56.439-06:00,-0.335037,0.119792,0.046409,2025-02-19T15:56:56.438-06:00
14.000000,257.126837,2.400000,21.825851,44.941703,284.536837,270.234100,4.748652,4.029364,-93.168588,8.910000,2025-02-19T15:56:58.000-06:00,-0.265707,-0.968893,-0.056047,2025-02-19T15:56:57.434-06:00,-0.643069,0.076890,0.057343,2025-02-19T15:56:57.433-06:00
15.000000,257.988409,2.430000,22.580181,44.941705,285.398409,270.234100,4.748652,4.029364,-93.168685,8.720000,2025-02-19T15:56:59.000-06:00,-0.316107,-0.948153,-0.096018,2025-02-19T15:56:58.438-06:00,-1.072794,0.264341,-0.123542,2025-02-19T15:56:58.437-06:00
16.000000,257.023199,2.010000,18.872215,44.941714,284.433199,270.234100,4.748652,4.029364,-93.168792,8.630000,2025-02-19T15:57:00.000-06:00,-0.356577,-0.935259,-0.106785,2025-02-19T15:56:59.433-06:00,-1.466933,0.386125,-0.191287,2025-02-19T15:56:59.432-06:00
17.000000,256.546879,0.750000,8.223458,44.941709,283.956879,270.234100,4.748652,4.029364,-93.168873,7.390000,2025-02-19T15:57:01.000-06:00,-0.403132,-0.928003,-0.121196,2025-02-19T15:57:00.438-06:00,-1.796184,0.413987,-0.270159,2025-02-19T15:57:00.437-06:00
18.000000,256.355961,0.308016,7.258975,44.941708,283.765961,270.234100,4.748652,4.029364,-93.168962,7.390000,2025-02-19T15:57:02.000-06:00,-0.409228,-0.930818,-0.122117,2025-02-19T15:57:01.433-06:00,-1.694299,0.355449,-0.234702,2025-02-19T15:57:01.432-06:00
19.000000,256.317508,0.520000,9.057701,44.941708,283.727507,270.234100,4.748652,4.029364,-93.169002,5.850000,2025-02-19T15:57:03.000-06:00,-0.399027,-0.929028,-0.125959,2025-02-19T15:57:02.438-06:00,-1.551676,0.351652,-0.222753,2025-02-19T15:57:02.436-06:00
20.000000,255.836671,0.460000,15.968144,44.941714,283.246671,270.234100,4.748652,4.029364,-93.169010,3.750000,2025-02-19T15:57:04.000-06:00,-0.318099,-0.948752,-0.113398,2025-02-19T15:57:03.432-06:00,-0.750382,0.157656,-0.091392,2025-02-19T15:57:03.431-06:00
21.000000,255.958130,0.590000,25.841510,44.941713,283.368130,270.234100,4.748652,4.029364,-93.169007,1.850000,2025-02-19T15:57:05.000-06:00,-0.156992,-0.982274,-0.084170,2025-02-19T15:57:04.437-06:00,0.754816,-0.153437,0.184766,2025-02-19T15:57:04.436-06:00
22.000000,255.681763,1.028591,180.000000,44.941710,283.091763,270.234100,4.748652,4.029364,-93.168988,0.410000,2025-02-19T15:57:06.000-06:00,-0.058261,-1.009706,-0.063047,2025-02-19T15:57:05.432-06:00,1.644206,-0.402363,0.384031,2025-02-19T15:57:05.431-06:00
23.000000,255.681580,0.930000,86.616639,44.941708,283.091580,270.234100,4.748652,4.029364,-93.169013,0.870000,2025-02-19T15:57:07.000-06:00,-0.070119,-1.002818,-0.075627,2025-02-19T15:57:06.437-06:00,1.362190,-0.293249,0.259996,2025-02-19T15:57:06.435-06:00
24.000000,255.581543,0.330000,30.734937,44.941708,282.991543,268.242180,4.748652,4.029364,-93.169047,0.870000,2025-02-19T15:57:08.000-06:00,-0.079329,-0.988332,-0.081584,2025-02-19T15:57:07.431-06:00,1.301562,-0.176551,0.319065,2025-02-19T15:57:07.440-06:00
25.000000,255.356446,0.308016,7.750945,44.941707,282.766446,271.054659,4.748652,4.029364,-93.169124,3.220000,2025-02-19T15:57:09.000-06:00,-0.058557,-0.997341,-0.078898,2025-02-19T15:57:08.436-06:00,1.417648,-0.243602,0.295444,2025-02-19T15:57:08.435-06:00
26.000000,255.358767,0.308016,7.258975,44.941706,282.768767,270.351514,4.748652,4.029364,-93.169213,5.450000,2025-02-19T15:57:10.000-06:00,-0.124116,-0.983169,-0.073710,2025-02-19T15:57:09.431-06:00,0.936696,-0.122215,0.224739,2025-02-19T15:57:09.440-06:00
27.000000,255.050418,1.200000,15.632503,44.941708,282.460418,270.351507,4.748652,4.029364,-93.169294,6.220000,2025-02-19T15:57:11.000-06:00,-0.139772,-0.998470,-0.054870,2025-02-19T15:57:10.436-06:00,0.685406,-0.227542,0.220261,2025-02-19T15:57:10.434-06:00
28.000000,255.081363,0.710000,9.249230,44.941709,282.491363,269.648382,4.748652,4.029364,-93.169393,6.220000,2025-02-19T15:57:12.000-06:00,-0.164906,-0.978167,-0.071215,2025-02-19T15:57:11.440-06:00,0.281341,0.003225,0.048092,2025-02-19T15:57:11.439-06:00
29.000000,254.786382,0.450000,7.258975,44.941713,282.196382,270.351491,4.748652,4.029364,-93.169515,8.010000,2025-02-19T15:57:13.000-06:00,-0.177031,-0.968295,-0.089048,2025-02-19T15:57:12.435-06:00,0.154776,0.070736,0.005441,2025-02-19T15:57:12.434-06:00
30.000000,255.742090,1.269302,12.153308,44.941716,283.152090,270.189309,2.102170,3.000000,-93.169627,8.459486,2025-02-19T15:57:14.000-06:00,-0.223694,-0.976561,-0.094689,2025-02-19T15:57:13.440-06:00,-0.377593,0.036694,-0.110472,2025-02-19T15:57:13.439-06:00
31.000000,255.555760,1.331916,12.257859,44.941707,282.965760,265.876433,2.000000,3.000000,-93.169744,8.801343,2025-02-19T15:57:15.000-06:00,-0.237028,-0.975620,-0.092220,2025-02-19T15:57:14.435-06:00,-0.467565,0.017470,0.029231,2025-02-19T15:57:14.433-06:00
32.000000,255.411455,1.275950,11.902843,44.941710,282.821455,270.220767,2.082596,3.000000,-93.169857,8.681101,2025-02-19T15:57:16.000-06:00,-0.212479,-0.952412,-0.087084,2025-02-19T15:57:15.439-06:00,-0.277658,0.264714,-0.071665,2025-02-19T15:57:15.438-06:00
33.000000,255.598444,0.653941,7.256587,44.941713,283.008444,270.133820,2.049443,3.000000,-93.169966,8.382517,2025-02-19T15:57:17.000-06:00,-0.216018,-0.970489,-0.077912,2025-02-19T15:57:16.434-06:00,-0.262994,0.075706,0.032695,2025-02-19T15:57:16.433-06:00
34.000000,255.644772,0.660209,7.256582,44.941711,283.054772,270.133820,2.030023,3.000000,-93.170072,8.310651,2025-02-19T15:57:18.000-06:00,-0.211768,-0.976781,-0.101815,2025-02-19T15:57:17.439-06:00,-0.263311,0.010861,-0.080401,2025-02-19T15:57:17.438-06:00
35.000000,256.013014,0.649223,7.258148,44.941713,283.423014,270.133820,2.220356,3.000000,-93.170180,8.417132,2025-02-19T15:57:19.000-06:00,-0.222542,-0.967625,-0.105407,2025-02-19T15:57:18.434-06:00,-0.343088,0.095638,-0.027705,2025-02-19T15:57:18.432-06:00
36.000000,256.241938,0.661725,7.257946,44.941711,283.651938,270.133820,2.472436,3.000000,-93.170287,8.406740,2025-02-19T15:57:20.000-06:00,-0.226427,-0.966963,-0.097695,2025-02-19T15:57:19.438-06:00,-0.290728,0.084679,-0.038148,2025-02-19T15:57:19.437-06:00
37.000000,255.718229,0.646006,7.254205,44.941711,283.128228,270.133820,2.318396,3.000000,-93.170387,8.120253,2025-02-19T15:57:21.000-06:00,-0.240419,-0.965287,-0.087605,2025-02-19T15:57:20.433-06:00,-0.416100,0.116113,-0.131479,2025-02-19T15:57:20.432-06:00
38.000000,255.126819,0.672631,7.243504,44.941716,282.536819,270.133820,2.485797,3.000000,-93.170484,7.907208,2025-02-19T15:57:22.000-06:00,-0.296578,-0.950382,-0.104576,2025-02-19T15:57:21.438-06:00,-0.921715,0.248111,-0.138149,2025-02-19T15:57:21.437-06:00
39.000000,255.347234,0.652961,7.430344,44.941712,282.757234,270.133820,2.365592,3.000000,-93.170571,7.120057,2025-02-19T15:57:23.000-06:00,-0.349050,-0.937034,-0.132271,2025-02-19T15:57:22.433-06:00,-1.427767,0.352082,-0.257647,2025-02-19T15:57:22.432-06:00
40.000000,255.247742,0.664007,8.964451,44.941713,282.657742,270.133820,2.535359,3.000000,-93.170643,6.000927,2025-02-19T15:57:24.000-06:00,-0.390380,-0.933736,-0.131823,2025-02-19T15:57:23.438-06:00,-1.649195,0.353224,-0.311568,2025-02-19T15:57:23.436-06:00
41.000000,255.233694,0.658995,12.560922,44.941715,282.643693,270.133820,2.428288,3.000000,-93.170689,4.251373,2025-02-19T15:57:25.000-06:00,-0.392723,-0.927310,-0.137394,2025-02-19T15:57:24.432-06:00,-1.580475,0.393213,-0.304837,2025-02-19T15:57:24.431-06:00
42.000000,255.193330,0.669769,21.634317,44.941715,282.603330,270.133820,2.495554,3.000000,-93.170713,2.508367,2025-02-19T15:57:26.000-06:00,-0.330801,-0.946185,-0.115706,2025-02-19T15:57:25.437-06:00,-0.773081,0.156207,-0.123609,2025-02-19T15:57:25.436-06:00
43.000000,255.303627,0.834774,130.390141,44.941715,282.713627,270.133820,2.728948,3.000000,-93.170706,0.514479,2025-02-19T15:57:27.000-06:00,-0.136591,-0.988049,-0.077159,2025-02-19T15:57:26.432-06:00,1.041575,-0.227731,0.213198,2025-02-19T15:57:26.431-06:00
44.000000,255.470318,0.966742,80.878644,44.941717,282.880318,270.133820,2.637830,3.000000,-93.170722,0.947278,2025-02-19T15:57:28.000-06:00,-0.018480,-1.022064,-0.056375,2025-02-19T15:57:27.437-06:00,1.981775,-0.499921,0.360886,2025-02-19T15:57:27.435-06:00
45.000000,255.579910,0.666294,18.722833,44.941716,282.989910,270.133820,2.606794,3.000000,-93.170776,2.870529,2025-02-19T15:57:29.000-06:00,-0.084699,-1.005662,-0.056921,2025-02-19T15:57:28.431-06:00,1.160830,-0.302772,0.298861,2025-02-19T15:57:28.440-06:00
46.000000,255.674486,0.653543,13.232886,44.941716,283.084486,270.133820,2.546115,3.000000,-93.170834,4.001830,2025-02-19T15:57:30.000-06:00,-0.093760,-0.984250,-0.044518,2025-02-19T15:57:29.436-06:00,1.123466,-0.101029,0.388098,2025-02-19T15:57:29.435-06:00
47.000000,255.710662,0.642951,10.380847,44.941713,283.120662,270.114410,2.496468,3.000000,-93.170902,5.019343,2025-02-19T15:57:31.000-06:00,-0.120196,-0.972282,-0.066148,2025-02-19T15:57:30.431-06:00,0.910213,0.009483,0.266972,2025-02-19T15:57:30.440-06:00
48.000000,255.722561,0.641270,8.865187,44.941709,283.132561,270.114410,2.455096,3.000000,-93.170982,5.860333,2025-02-19T15:57:32.000-06:00,-0.163104,-0.985253,-0.095772,2025-02-19T15:57:31.436-06:00,0.390353,-0.103138,0.001893,2025-02-19T15:57:31.434-06:00
49.000000,255.764517,0.635873,8.151592,44.941705,283.174517,270.114410,2.417690,3.000000,-93.171065,6.317949,2025-02-19T15:57:33.000-06:00,-0.186284,-0.969731,-0.132663,2025-02-19T15:57:32.440-06:00,0.166084,0.006702,-0.103573,2025-02-19T15:57:32.439-06:00
50.000000,255.816821,0.649143,7.997110,44.941701,283.226821,270.114410,2.374175,3.000000,-93.171150,6.576597,2025-02-19T15:57:34.000-06:00,-0.183187,-0.966308,-0.153783,2025-02-19T15:57:33.435-06:00,0.155808,0.035058,-0.129637,2025-02-19T15:57:33.434-06:00
51.000000,255.639375,0.674148,8.047025,44.941698,283.049375,270.114410,2.349294,3.000000,-93.171237,6.765556,2025-02-19T15:57:35.000-06:00,-0.185688,-0.985966,-0.132802,2025-02-19T15:57:34.440-06:00,0.019041,-0.122841,-0.012355,2025-02-19T15:57:34.439-06:00
52.000000,255.751182,0.657192,7.599691,44.941697,283.161182,270.114410,2.293756,3.000000,-93.171327,7.005266,2025-02-19T15:57:36.000-06:00,-0.189493,-0.973420,-0.140897,2025-02-19T15:57:35.435-06:00,-0.052672,0.005680,-0.028957,2025-02-19T15:57:35.433-06:00
53.000000,255.894241,0.654984,7.463409,44.941695,283.304241,270.114410,2.236606,3.000000,-93.171417,7.112368,2025-02-19T15:57:37.000-06:00,-0.174715,-0.963784,-0.150430,2025-02-19T15:57:36.439-06:00,0.071588,0.084575,-0.060055,2025-02-19T15:57:36.438-06:00
54.000000,255.764860,0.658624,7.476667,44.941693,283.174860,270.114410,2.272748,3.000000,-93.171507,7.135586,2025-02-19T15:57:38.000-06:00,-0.183326,-0.962591,-0.145416,2025-02-19T15:57:37.434-06:00,0.020917,0.086670,-0.023604,2025-02-19T15:57:37.433-06:00
55.000000,255.737395,0.652318,7.287910,44.941693,283.147395,270.114410,2.211863,3.000000,-93.171600,7.250154,2025-02-19T15:57:39.000-06:00,-0.178688,-0.974853,-0.158079,2025-02-19T15:57:38.439-06:00,0.012558,-0.026937,-0.065209,2025-02-19T15:57:38.438-06:00
56.000000,255.783705,0.788240,8.714124,44.941685,283.193705,270.114410,3.076451,3.000000,-93.171693,7.325908,2025-02-19T15:57:40.000-06:00,-0.171177,-0.958361,-0.158845,2025-02-19T15:57:39.434-06:00,0.123780,0.131917,-0.087203,2025-02-19T15:57:39.432-06:00
57.000000,254.688663,0.791338,8.929624,44.941683,282.098662,270.114410,2.816630,3.000000,-93.171778,7.102550,2025-02-19T15:57:41.000-06:00,-0.180096,-0.983288,-0.157152,2025-02-19T15:57:40.438-06:00,0.030345,-0.105540,-0.141352,2025-02-19T15:57:40.437-06:00
58.000000,254.834596,0.667626,7.258969,44.941697,282.244595,270.114410,2.594178,3.000000,-93.171887,7.846621,2025-02-19T15:57:42.000-06:00,-0.186889,-0.971935,-0.114504,2025-02-19T15:57:41.433-06:00,-0.016765,0.020821,0.155424,2025-02-19T15:57:41.432-06:00
59.000000,254.445569,0.657907,7.257183,44.941702,281.855569,270.114410,2.510770,3.000000,-93.171989,8.009074,2025-02-19T15:57:43.000-06:00,-0.191650,-0.965912,-0.130658,2025-02-19T15:57:42.438-06:00,-0.030944,0.055478,0.078577,2025-02-19T15:57:42.437-06:00
60.000000,254.461948,0.654504,7.258339,44.941704,281.871948,270.114410,2.411391,3.000000,-93.172092,8.110116,2025-02-19T15:57:44.000-06:00,-0.225149,-0.976132,-0.107740,2025-02-19T15:57:43.433-06:00,-0.285878,-0.039127,0.261444,2025-02-19T15:57:43.431-06:00
61.000000,254.325146,0.726292,7.723486,44.941695,281.735146,270.000000,2.280087,3.000000,-93.172186,7.609687,2025-02-19T15:57:45.000-06:00,-0.214171,-0.961798,-0.151575,2025-02-19T15:57:44.437-06:00,-0.308088,0.111077,-0.085890,2025-02-19T15:57:44.436-06:00
62.000000,254.312152,0.670153,7.258177,44.941700,281.722152,270.130157,2.187331,3.000000,-93.172296,7.981346,2025-02-19T15:57:46.000-06:00,-0.214102,-0.959958,-0.151914,2025-02-19T15:57:45.432-06:00,-0.268588,0.113048,-0.083619,2025-02-19T15:57:45.431-06:00
63.000000,254.083997,0.673083,7.251562,44.941698,281.493997,270.130157,2.127522,3.000000,-93.172393,7.804058,2025-02-19T15:57:47.000-06:00,-0.177152,-0.959162,-0.133935,2025-02-19T15:57:46.437-06:00,0.115187,0.119146,0.059270,2025-02-19T15:57:46.436-06:00
64.000000,254.103956,0.660272,7.255855,44.941698,281.513956,270.130157,2.087944,3.000000,-93.172491,7.785015,2025-02-19T15:57:48.000-06:00,-0.168898,-0.983360,-0.157989,2025-02-19T15:57:47.432-06:00,0.148463,-0.105481,-0.091801,2025-02-19T15:57:47.431-06:00
65.000000,254.302574,0.643906,7.258903,44.941698,281.712574,270.130157,2.060113,3.000000,-93.172593,7.959814,2025-02-19T15:57:49.000-06:00,-0.157660,-0.976659,-0.183818,2025-02-19T15:57:48.437-06:00,0.250279,-0.065144,-0.245953,2025-02-19T15:57:48.435-06:00
66.000000,254.302942,0.667308,7.258964,44.941697,281.712942,270.130157,2.040428,3.000000,-93.172702,8.416445,2025-02-19T15:57:50.000-06:00,-0.161259,-0.970105,-0.133563,2025-02-19T15:57:49.431-06:00,0.237790,0.020873,0.082195,2025-02-19T15:57:49.440-06:00
67.000000,254.446259,0.656599,7.258832,44.941701,281.856259,270.130157,2.026718,3.000000,-93.172814,8.706854,2025-02-19T15:57:51.000-06:00,-0.165831,-0.973532,-0.118666,2025-02-19T15:57:50.436-06:00,0.183991,0.009009,0.071631,2025-02-19T15:57:50.435-06:00
68.000000,254.476957,0.670883,7.258451,44.941703,281.886957,270.130157,2.169162,3.000000,-93.172935,9.215284,2025-02-19T15:57:52.000-06:00,-0.195531,-0.979438,-0.107221,2025-02-19T15:57:51.431-06:00,-0.058549,-0.041848,0.071322,2025-02-19T15:57:51.440-06:00
69.000000,254.682908,0.659242,7.256730,44.941704,282.092908,270.130157,2.157547,3.000000,-93.173046,9.024189,2025-02-19T15:57:53.000-06:00,-0.195062,-0.972084,-0.081460,2025-02-19T15:57:52.436-06:00,-0.031814,0.031860,0.189008,2025-02-19T15:57:52.434-06:00
70.000000,254.292753,0.659338,7.258895,44.941707,281.702753,270.130157,2.100071,3.000000,-93.173168,9.380793,2025-02-19T15:57:54.000-06:00,-0.189184,-0.975989,-0.096595,2025-02-19T15:57:53.440-06:00,0.005466,0.007314,0.040648,2025-02-19T15:57:53.439-06:00
71.000000,254.026271,0.651542,7.258231,44.941709,281.436271,270.130157,2.063100,3.000000,-93.173287,9.467199,2025-02-19T15:57:55.000-06:00,-0.190222,-0.991456,-0.104796,2025-02-19T15:57:54.435-06:00,-0.069333,-0.122773,-0.068242,2025-02-19T15:57:54.434-06:00
72.000000,253.994875,0.654678,7.258789,44.941708,281.404875,270.130157,2.039504,3.000000,-93.173408,9.590084,2025-02-19T15:57:56.000-06:00,-0.188233,-0.944786,-0.069936,2025-02-19T15:57:55.440-06:00,0.072386,0.325079,0.016560,2025-02-19T15:57:55.439-06:00
73.000000,253.854394,0.649220,7.258547,44.941710,281.264394,271.159210,2.024505,3.000000,-93.173533,9.735246,2025-02-19T15:57:57.000-06:00,-0.225267,-0.966769,-0.124277,2025-02-19T15:57:56.435-06:00,-0.200690,0.055202,-0.199164,2025-02-19T15:57:56.433-06:00
74.000000,253.321064,0.658598,7.251467,44.941713,280.731064,271.159210,2.015060,3.000000,-93.173655,9.644181,2025-02-19T15:57:58.000-06:00,-0.246194,-0.966435,-0.100185,2025-02-19T15:57:57.439-06:00,-0.422441,0.081643,-0.000258,2025-02-19T15:57:57.438-06:00
75.000000,253.614993,0.682420,7.258974,44.941714,281.024993,269.529877,2.048100,3.000000,-93.173770,9.292913,2025-02-19T15:57:59.000-06:00,-0.283926,-0.960885,-0.119523,2025-02-19T15:57:58.434-06:00,-0.789264,0.127152,-0.229154,2025-02-19T15:57:58.433-06:00
76.000000,253.761603,0.669108,7.257943,44.941717,281.171603,269.529877,2.030337,3.000000,-93.173882,8.819809,2025-02-19T15:58:00.000-06:00,-0.359315,-0.932977,-0.102105,2025-02-19T15:57:59.439-06:00,-1.491198,0.397415,-0.017006,2025-02-19T15:57:59.438-06:00
77.000000,253.077502,0.661527,7.249721,44.941716,280.487502,268.270508,2.019826,3.000000,-93.173978,7.770324,2025-02-19T15:58:01.000-06:00,-0.401938,-0.927601,-0.123253,2025-02-19T15:58:00.434-06:00,-1.842350,0.403295,-0.034200,2025-02-19T15:58:00.432-06:00
78.000000,253.220520,0.672757,8.968104,44.941711,280.630520,261.262665,2.013956,3.000000,-93.174047,6.061121,2025-02-19T15:58:02.000-06:00,-0.398485,-0.927329,-0.141993,2025-02-19T15:58:01.438-06:00,-1.616472,0.362459,-0.120277,2025-02-19T15:58:01.437-06:00
