seconds_elapsed,location_altitude,location_speedAccuracy,location_bearingAccuracy,location_latitude,location_altitudeAboveMeanSeaLevel,location_bearing,location_horizontalAccuracy,location_verticalAccuracy,location_longitude,location_speed,location_local_time,accelerometerUncalibrated_z,accelerometerUncalibrated_y,accelerometerUncalibrated_x,accelerometerUncalibrated_local_time,accelerometer_z,accelerometer_y,accelerometer_x,accelerometer_local_time
0.000000,249.799445,0.684569,32.519506,44.941485,277.209445,184.875820,2.471853,3.000000,-93.177293,1.675085,2025-02-19T15:27:58.000-06:00,-0.010083,-0.997794,-0.035521,2025-02-19T15:27:57.392-06:00,-0.372606,0.017765,-0.194478,2025-02-19T15:27:57.402-06:00
1.000000,250.309525,0.899464,36.314456,44.941468,277.719525,172.730372,2.474712,3.000000,-93.177280,1.667212,2025-02-19T15:27:59.000-06:00,0.013234,-0.996929,-0.024311,2025-02-19T15:27:58.387-06:00,-0.133071,0.025173,-0.101496,2025-02-19T15:27:58.387-06:00
2.000000,250.076621,0.665145,43.174530,44.941463,277.486621,179.870659,2.492442,3.000000,-93.177284,1.241340,2025-02-19T15:28:00.000-06:00,0.019609,-0.998075,-0.022825,2025-02-19T15:27:59.382-06:00,-0.064472,0.014843,-0.094215,2025-02-19T15:27:59.382-06:00
3.000000,250.056465,0.657747,41.659150,44.941451,277.466465,180.134161,2.467820,3.000000,-93.177283,1.279185,2025-02-19T15:28:01.000-06:00,-0.008298,-0.997890,-0.031648,2025-02-19T15:28:00.387-06:00,-0.306586,0.017132,-0.180843,2025-02-19T15:28:00.387-06:00
4.000000,249.853153,0.675693,45.967357,44.941442,277.263153,179.804158,2.476169,3.000000,-93.177281,1.134307,2025-02-19T15:28:02.000-06:00,-0.031857,-0.997720,-0.038868,2025-02-19T15:28:01.381-06:00,-0.503530,0.019154,-0.235853,2025-02-19T15:28:01.381-06:00
5.000000,249.943544,0.664040,79.600988,44.941437,277.353544,180.349647,2.452360,3.000000,-93.177282,0.672132,2025-02-19T15:28:03.000-06:00,-0.015098,-0.997141,-0.036764,2025-02-19T15:28:02.386-06:00,-0.323750,0.025686,-0.180593,2025-02-19T15:28:02.386-06:00
6.000000,249.995998,0.811641,180.000000,44.941436,277.405998,179.426427,2.429742,3.000000,-93.177279,0.291313,2025-02-19T15:28:04.000-06:00,-0.000759,-0.998181,-0.032451,2025-02-19T15:28:03.381-06:00,-0.156893,0.014784,-0.127097,2025-02-19T15:28:03.381-06:00
7.000000,249.951982,0.896731,180.000000,44.941437,277.361982,179.426427,2.423763,3.000000,-93.177278,0.016348,2025-02-19T15:28:05.000-06:00,0.020445,-0.996969,-0.026002,2025-02-19T15:28:04.386-06:00,0.056043,0.025781,-0.065577,2025-02-19T15:28:04.386-06:00
8.000000,249.990894,0.903821,180.000000,44.941439,277.400894,179.426429,2.507513,3.000000,-93.177276,0.000000,2025-02-19T15:28:06.000-06:00,0.020453,-0.997296,-0.026156,2025-02-19T15:28:05.380-06:00,0.057342,0.023324,-0.063374,2025-02-19T15:28:05.380-06:00
9.000000,249.990894,0.896618,180.000000,44.941439,277.400894,179.426429,2.524246,3.000000,-93.177276,0.000000,2025-02-19T15:28:07.000-06:00,0.020337,-0.997503,-0.025872,2025-02-19T15:28:06.385-06:00,0.057342,0.021722,-0.058134,2025-02-19T15:28:06.385-06:00
10.000000,249.990894,0.901321,180.000000,44.941439,277.400894,179.426429,2.515912,3.000000,-93.177276,0.000000,2025-02-19T15:28:08.000-06:00,0.020262,-0.997308,-0.026010,2025-02-19T15:28:07.380-06:00,0.055071,0.023165,-0.052159,2025-02-19T15:28:07.380-06:00
11.000000,249.990894,0.892550,180.000000,44.941439,277.400894,179.426429,2.582655,3.000000,-93.177276,0.000000,2025-02-19T15:28:09.000-06:00,0.020205,-0.997372,-0.025938,2025-02-19T15:28:08.385-06:00,0.047455,0.022263,-0.047288,2025-02-19T15:28:08.385-06:00
12.000000,249.990894,0.896327,180.000000,44.941439,277.400894,179.426429,2.567140,3.000000,-93.177276,0.000000,2025-02-19T15:28:10.000-06:00,0.020308,-0.997657,-0.026108,2025-02-19T15:28:09.389-06:00,0.051459,0.020200,-0.045327,2025-02-19T15:28:09.389-06:00
13.000000,249.990894,0.894628,180.000000,44.941439,277.400894,179.426429,2.680726,3.000000,-93.177276,0.000000,2025-02-19T15:28:11.000-06:00,0.069392,-0.996681,-0.011000,2025-02-19T15:28:10.384-06:00,0.501434,0.028527,0.090498,2025-02-19T15:28:10.384-06:00
14.000000,250.389487,0.904238,180.000000,44.941440,277.799487,179.426430,2.647279,3.000000,-93.177275,0.378565,2025-02-19T15:28:12.000-06:00,0.176452,-0.995256,0.020245,2025-02-19T15:28:11.389-06:00,1.456159,0.043217,0.371940,2025-02-19T15:28:11.389-06:00
15.000000,250.485821,0.652906,32.131846,44.941421,277.895821,180.052308,2.646938,3.000000,-93.177274,1.639874,2025-02-19T15:28:13.000-06:00,0.152465,-0.993159,0.010261,2025-02-19T15:28:12.383-06:00,1.193197,0.060492,0.306479,2025-02-19T15:28:12.383-06:00
16.000000,250.589158,0.650635,17.629406,44.941390,277.999157,181.424365,2.643731,3.000000,-93.177275,2.957493,2025-02-19T15:28:14.000-06:00,0.104655,-0.993468,-0.003717,2025-02-19T15:28:13.388-06:00,0.742783,0.055889,0.214823,2025-02-19T15:28:13.388-06:00
17.000000,250.501865,0.690045,13.527059,44.941348,277.911865,174.688553,2.642611,3.000000,-93.177262,4.129396,2025-02-19T15:28:15.000-06:00,0.103686,-0.997109,-0.003439,2025-02-19T15:28:14.383-06:00,0.719190,0.023013,0.185091,2025-02-19T15:28:14.383-06:00
18.000000,250.168413,0.661363,10.911615,44.941303,277.578413,178.465356,2.610480,3.000000,-93.177269,4.895577,2025-02-19T15:28:16.000-06:00,0.104551,-0.999334,0.009033,2025-02-19T15:28:15.388-06:00,0.744076,-0.006655,0.278518,2025-02-19T15:28:15.388-06:00
19.000000,250.242810,0.655042,9.057857,44.941248,277.652810,179.049407,2.586790,3.000000,-93.177267,5.858448,2025-02-19T15:28:17.000-06:00,0.088927,-0.980834,-0.016994,2025-02-19T15:28:16.382-06:00,0.499748,0.174202,-0.030409,2025-02-19T15:28:16.382-06:00
20.000000,249.902205,0.655564,8.059408,44.941186,277.312205,178.345318,2.552461,3.000000,-93.177263,6.585803,2025-02-19T15:28:18.000-06:00,0.093670,-1.005835,0.011879,2025-02-19T15:28:17.387-06:00,0.371891,-0.063482,0.056202,2025-02-19T15:28:17.387-06:00
21.000000,250.223004,0.654177,7.255602,44.941117,277.633004,178.497099,2.489729,3.000000,-93.177261,7.337087,2025-02-19T15:28:19.000-06:00,0.088395,-1.007115,-0.003057,2025-02-19T15:28:18.382-06:00,0.279882,-0.086822,-0.012398,2025-02-19T15:28:18.382-06:00
22.000000,249.887589,0.654695,7.257280,44.941043,277.297589,179.227615,2.399152,3.000000,-93.177260,7.990429,2025-02-19T15:28:20.000-06:00,0.081908,-0.987736,-0.014051,2025-02-19T15:28:19.387-06:00,0.187344,0.101963,-0.105557,2025-02-19T15:28:19.387-06:00
23.000000,250.863022,0.662175,7.232808,44.940965,278.273021,181.021661,2.292060,3.000000,-93.177264,8.502779,2025-02-19T15:28:21.000-06:00,0.064931,-0.998471,-0.004335,2025-02-19T15:28:20.381-06:00,-0.055836,-0.008925,-0.034931,2025-02-19T15:28:20.381-06:00
24.000000,250.142736,0.650564,7.257879,44.940878,277.552736,181.650252,2.197630,3.000000,-93.177268,9.279280,2025-02-19T15:28:22.000-06:00,0.080832,-0.993104,0.003390,2025-02-19T15:28:21.386-06:00,0.116512,0.047500,0.029015,2025-02-19T15:28:21.386-06:00
25.000000,250.089658,0.658911,7.258244,44.940794,277.499658,180.538877,2.126196,3.000000,-93.177267,9.509162,2025-02-19T15:28:23.000-06:00,0.093107,-0.999106,0.016938,2025-02-19T15:28:22.381-06:00,0.228043,-0.017047,0.154703,2025-02-19T15:28:22.381-06:00
26.000000,250.776414,0.669943,7.252103,44.940691,278.186414,178.449921,2.076047,3.000000,-93.177259,10.659849,2025-02-19T15:28:24.000-06:00,0.064032,-0.999281,-0.005266,2025-02-19T15:28:23.386-06:00,-0.076068,-0.020312,-0.048407,2025-02-19T15:28:23.386-06:00
27.000000,250.236276,0.681741,7.258536,44.940596,277.646276,179.434570,2.220284,3.000000,-93.177262,10.788277,2025-02-19T15:28:25.000-06:00,0.064773,-0.991204,-0.027274,2025-02-19T15:28:24.380-06:00,-0.099920,0.057434,-0.211294,2025-02-19T15:28:24.380-06:00
28.000000,250.691619,0.659362,7.257577,44.940492,278.101619,180.462147,2.120364,3.000000,-93.177263,11.302125,2025-02-19T15:28:26.000-06:00,0.044551,-0.995728,-0.032018,2025-02-19T15:28:25.385-06:00,-0.307936,0.012078,-0.161296,2025-02-19T15:28:25.385-06:00
29.000000,250.449643,0.651770,7.258931,44.940387,277.859643,180.268352,2.064642,3.000000,-93.177262,11.539867,2025-02-19T15:28:26.999-06:00,0.037509,-1.001668,-0.027799,2025-02-19T15:28:26.380-06:00,-0.361804,-0.046349,-0.093271,2025-02-19T15:28:26.380-06:00
30.000000,250.485052,0.652014,7.258971,44.940281,277.895052,180.453541,2.034578,3.000000,-93.177263,11.711768,2025-02-19T15:28:27.999-06:00,0.036332,-0.998766,-0.034521,2025-02-19T15:28:27.385-06:00,-0.401172,-0.016824,-0.118260,2025-02-19T15:28:27.385-06:00
31.000000,250.639153,0.651710,7.258711,44.940174,278.049153,180.933443,2.080314,3.000000,-93.177266,11.827462,2025-02-19T15:28:28.999-06:00,0.040779,-1.001812,-0.032570,2025-02-19T15:28:28.389-06:00,-0.393526,-0.052485,-0.096325,2025-02-19T15:28:28.389-06:00
32.000000,250.955748,0.645517,7.257932,44.940066,278.365747,180.307719,2.042159,3.000000,-93.177265,11.946918,2025-02-19T15:28:29.999-06:00,0.030664,-0.949969,-0.046873,2025-02-19T15:28:29.384-06:00,-0.310857,0.464378,-0.071942,2025-02-19T15:28:29.384-06:00
33.000000,250.633742,0.644672,7.258009,44.939958,278.043742,180.001151,2.022149,3.000000,-93.177264,11.985727,2025-02-19T15:28:30.999-06:00,0.018972,-1.020337,-0.028395,2025-02-19T15:28:30.389-06:00,-0.384123,-0.207919,0.027011,2025-02-19T15:28:30.389-06:00
34.000000,250.279116,0.653095,7.257821,44.939847,277.689116,180.749666,2.011595,3.000000,-93.177268,12.219490,2025-02-19T15:28:31.999-06:00,0.016920,-1.005490,-0.034861,2025-02-19T15:28:31.384-06:00,-0.436225,-0.090598,-0.203547,2025-02-19T15:28:31.384-06:00
35.000000,250.158113,0.667474,7.258058,44.939741,277.568113,180.171695,2.357711,3.000000,-93.177266,12.092398,2025-02-19T15:28:32.999-06:00,0.017915,-0.997692,-0.026035,2025-02-19T15:28:32.388-06:00,-0.388699,0.007031,-0.098079,2025-02-19T15:28:32.388-06:00
36.000000,249.419919,0.712608,7.252318,44.939634,276.829919,179.902086,2.189969,3.000000,-93.177265,11.982864,2025-02-19T15:28:33.999-06:00,0.040830,-1.003202,-0.031490,2025-02-19T15:28:33.383-06:00,-0.188594,-0.055493,-0.129105,2025-02-19T15:28:33.383-06:00
37.000000,250.145208,0.677895,7.258854,44.939524,277.555208,179.571549,2.099310,3.000000,-93.177263,12.134157,2025-02-19T15:28:34.999-06:00,0.040313,-0.994375,-0.018250,2025-02-19T15:28:34.388-06:00,-0.166336,0.041209,-0.077294,2025-02-19T15:28:34.388-06:00
38.000000,250.302175,0.664585,7.258693,44.939412,277.712175,180.146045,2.149605,3.000000,-93.177264,12.334213,2025-02-19T15:28:35.999-06:00,0.044036,-0.992283,-0.016910,2025-02-19T15:28:35.382-06:00,-0.106051,0.059039,-0.085304,2025-02-19T15:28:35.382-06:00
39.000000,250.483186,0.650918,7.258717,44.939300,277.893185,180.774047,2.261250,3.000000,-93.177267,12.443760,2025-02-19T15:28:36.999-06:00,0.038602,-1.000196,-0.008869,2025-02-19T15:28:36.387-06:00,-0.130022,-0.013548,0.005692,2025-02-19T15:28:36.387-06:00
40.000000,250.758079,0.666650,7.258506,44.939185,278.168079,180.585083,2.133163,3.000000,-93.177268,12.686149,2025-02-19T15:28:37.999-06:00,0.036368,-1.000575,-0.017143,2025-02-19T15:28:37.382-06:00,-0.152722,-0.022539,-0.006655,2025-02-19T15:28:37.382-06:00
41.000000,250.960283,0.655025,7.258436,44.939068,278.370283,179.774836,2.256638,3.000000,-93.177265,12.844783,2025-02-19T15:28:38.999-06:00,0.043968,-0.986991,-0.027899,2025-02-19T15:28:38.387-06:00,-0.100125,0.110862,-0.062552,2025-02-19T15:28:38.387-06:00
42.000000,250.157763,0.705932,7.255667,44.938951,277.567762,172.523111,2.128893,3.000000,-93.177229,13.071215,2025-02-19T15:28:39.999-06:00,0.032273,-0.990364,-0.019462,2025-02-19T15:28:39.381-06:00,-0.065177,0.084689,-0.006078,2025-02-19T15:28:39.381-06:00
43.000000,250.344488,0.677405,7.258482,44.938825,277.754488,178.248280,2.795466,3.000000,-93.177247,13.607138,2025-02-19T15:28:40.999-06:00,0.031925,-1.008594,-0.021808,2025-02-19T15:28:40.386-06:00,-0.149857,-0.097880,-0.064285,2025-02-19T15:28:40.386-06:00
44.000000,250.407744,0.652470,7.258935,44.938709,277.817744,182.108483,2.394594,3.000000,-93.177263,13.387774,2025-02-19T15:28:41.999-06:00,0.022032,-0.995083,-0.015727,2025-02-19T15:28:41.381-06:00,-0.246389,0.040011,0.024105,2025-02-19T15:28:41.381-06:00
45.000000,250.822422,0.653395,7.257834,44.938591,278.232422,180.773625,2.194759,3.000000,-93.177262,13.259011,2025-02-19T15:28:42.999-06:00,0.011034,-0.996166,-0.015196,2025-02-19T15:28:42.386-06:00,-0.313702,0.033022,-0.063453,2025-02-19T15:28:42.386-06:00
46.000000,250.667095,0.654292,7.258970,44.938468,278.077095,179.845385,2.195969,3.000000,-93.177261,13.435061,2025-02-19T15:28:43.999-06:00,0.016165,-1.003251,-0.028648,2025-02-19T15:28:43.380-06:00,-0.256524,-0.048231,-0.119805,2025-02-19T15:28:43.380-06:00
47.000000,249.715011,0.724237,7.252117,44.938347,277.125011,178.272880,2.095678,3.000000,-93.177253,13.506989,2025-02-19T15:28:44.999-06:00,0.035740,-0.995460,-0.017982,2025-02-19T15:28:44.385-06:00,-0.066250,0.035375,-0.041770,2025-02-19T15:28:44.385-06:00
48.000000,250.053667,0.681687,7.257006,44.938227,277.463667,178.927256,2.047138,3.000000,-93.177255,13.516563,2025-02-19T15:28:45.999-06:00,0.046563,-0.991280,-0.010619,2025-02-19T15:28:45.380-06:00,0.048589,0.077317,0.037368,2025-02-19T15:28:45.380-06:00
49.000000,250.608136,0.664951,7.258912,44.938104,278.018136,180.619137,2.023027,3.000000,-93.177262,13.666857,2025-02-19T15:28:46.999-06:00,0.038013,-1.001196,-0.018355,2025-02-19T15:28:46.385-06:00,0.000779,-0.021107,-0.049958,2025-02-19T15:28:46.385-06:00
50.000000,251.238954,0.661354,7.257012,44.937981,278.648954,180.619257,2.011197,3.000000,-93.177262,13.739152,2025-02-19T15:28:47.999-06:00,0.023507,-1.007390,-0.018157,2025-02-19T15:28:47.389-06:00,-0.193670,-0.082909,-0.087578,2025-02-19T15:28:47.389-06:00
51.000000,251.203882,0.656801,7.258720,44.937854,278.613882,180.294504,2.005349,3.000000,-93.177260,13.880166,2025-02-19T15:28:48.999-06:00,0.026676,-0.967674,-0.028227,2025-02-19T15:28:48.384-06:00,-0.158721,0.311503,-0.010123,2025-02-19T15:28:48.384-06:00
52.000000,251.620570,0.649277,7.258413,44.937729,279.030570,180.577274,2.002569,3.000000,-93.177263,13.931159,2025-02-19T15:28:49.999-06:00,0.004947,-1.017551,-0.014994,2025-02-19T15:28:49.389-06:00,-0.208842,-0.178304,-0.026653,2025-02-19T15:28:49.389-06:00
53.000000,252.603967,0.696350,7.252305,44.937604,280.013967,177.884694,2.024238,3.000000,-93.177251,13.938858,2025-02-19T15:28:50.999-06:00,0.018799,-0.986893,-0.012414,2025-02-19T15:28:50.384-06:00,-0.145775,0.114668,0.000271,2025-02-19T15:28:50.384-06:00
54.000000,251.274586,0.674102,7.255595,44.937474,278.684586,177.630720,2.011525,3.000000,-93.177246,14.314905,2025-02-19T15:28:51.999-06:00,0.018300,-1.008505,-0.019311,2025-02-19T15:28:51.388-06:00,-0.129113,-0.091983,-0.059338,2025-02-19T15:28:51.388-06:00
55.000000,251.716909,0.666750,7.258743,44.937352,279.126909,180.112385,2.005492,3.000000,-93.177255,14.017912,2025-02-19T15:28:52.999-06:00,0.018875,-0.987553,-0.021538,2025-02-19T15:28:52.383-06:00,-0.147164,0.119985,-0.058001,2025-02-19T15:28:52.383-06:00
56.000000,251.769669,0.660424,7.258943,44.937230,279.179669,180.185259,2.002649,3.000000,-93.177255,13.717895,2025-02-19T15:28:53.999-06:00,0.019222,-0.999005,-0.020847,2025-02-19T15:28:53.388-06:00,-0.119453,0.006080,-0.008012,2025-02-19T15:28:53.388-06:00
57.000000,251.785548,0.675695,7.258973,44.937103,279.195548,180.271638,2.092108,3.000000,-93.177257,13.918048,2025-02-19T15:28:54.999-06:00,0.021805,-0.992585,-0.013862,2025-02-19T15:28:54.383-06:00,-0.100539,0.057907,0.019976,2025-02-19T15:28:54.383-06:00
58.000000,251.979301,0.677958,7.258868,44.936976,279.389300,180.463826,2.343168,3.000000,-93.177260,14.018417,2025-02-19T15:28:55.999-06:00,0.018263,-0.988668,-0.049436,2025-02-19T15:28:55.387-06:00,-0.096007,0.107762,-0.121965,2025-02-19T15:28:55.387-06:00
59.000000,251.862567,0.659761,7.258713,44.936853,279.272566,180.300758,2.165005,3.000000,-93.177260,13.838227,2025-02-19T15:28:56.999-06:00,0.018430,-1.012042,-0.032512,2025-02-19T15:28:56.382-06:00,-0.082312,-0.129536,-0.068348,2025-02-19T15:28:56.382-06:00
60.000000,251.933457,0.657097,7.258974,44.936725,279.343457,179.908577,2.246565,3.000000,-93.177260,14.005230,2025-02-19T15:28:57.999-06:00,0.015386,-0.993334,-0.016370,2025-02-19T15:28:57.387-06:00,-0.154469,0.057266,0.066085,2025-02-19T15:28:57.387-06:00
61.000000,252.525820,0.665407,7.256949,44.936614,279.935820,180.230709,2.239911,3.000000,-93.177264,13.049407,2025-02-19T15:28:58.999-06:00,0.020992,-0.998694,-0.040981,2025-02-19T15:28:58.382-06:00,-0.088272,0.001599,-0.105560,2025-02-19T15:28:58.382-06:00
62.000000,251.857658,0.702009,7.258088,44.936484,279.267658,180.741516,2.115714,3.000000,-93.177267,13.638341,2025-02-19T15:28:59.999-06:00,0.008828,-1.005106,-0.038044,2025-02-19T15:28:59.386-06:00,-0.246231,-0.055932,-0.059560,2025-02-19T15:28:59.386-06:00
63.000000,252.113393,1.742945,9.802652,44.936350,279.523393,180.661648,2.054656,3.000000,-93.177268,14.407122,2025-02-19T15:29:00.999-06:00,-0.006714,-0.997126,-0.037029,2025-02-19T15:29:00.381-06:00,-0.387418,0.016540,-0.070835,2025-02-19T15:29:00.381-06:00
64.000000,252.583081,1.747100,10.370008,44.936232,279.993081,180.015534,2.026195,3.000000,-93.177268,13.645398,2025-02-19T15:29:01.999-06:00,-0.008980,-0.994191,-0.052267,2025-02-19T15:29:01.386-06:00,-0.384512,0.049489,-0.145438,2025-02-19T15:29:01.386-06:00
65.000000,252.671419,1.754287,10.745445,44.936114,280.081419,179.396503,2.012754,3.000000,-93.177267,13.222985,2025-02-19T15:29:02.999-06:00,-0.007490,-0.979377,-0.058809,2025-02-19T15:29:02.381-06:00,-0.369168,0.191730,-0.191615,2025-02-19T15:29:02.381-06:00
66.000000,252.520087,1.761596,11.171753,44.936000,279.930087,179.875786,2.006332,3.000000,-93.177268,12.776738,2025-02-19T15:29:03.999-06:00,-0.020591,-1.006632,-0.021376,2025-02-19T15:29:03.385-06:00,-0.299754,-0.067464,-0.045568,2025-02-19T15:29:03.385-06:00
67.000000,252.588961,1.788792,11.884107,44.935892,279.998961,180.956070,2.536781,3.000000,-93.177276,12.195990,2025-02-19T15:29:04.999-06:00,-0.012096,-0.997053,-0.047842,2025-02-19T15:29:04.380-06:00,-0.334097,0.022676,-0.129930,2025-02-19T15:29:04.380-06:00
68.000000,252.673516,1.856646,14.035030,44.935802,280.083516,181.299293,2.286865,3.000000,-93.177278,10.718924,2025-02-19T15:29:05.999-06:00,-0.002957,-1.001010,-0.034621,2025-02-19T15:29:05.385-06:00,-0.295543,-0.024357,0.003439,2025-02-19T15:29:05.385-06:00
69.000000,252.141693,1.806831,12.646282,44.935677,279.551693,179.014054,2.143682,3.000000,-93.177268,11.571804,2025-02-19T15:29:06.999-06:00,0.026070,-0.993352,-0.037310,2025-02-19T15:29:06.380-06:00,0.023758,0.052637,0.033912,2025-02-19T15:29:06.380-06:00
70.000000,252.553582,1.801854,12.352188,44.935566,279.963582,180.318330,2.143960,3.000000,-93.177274,11.818998,2025-02-19T15:29:07.999-06:00,0.027207,-0.998604,-0.033856,2025-02-19T15:29:07.384-06:00,0.059795,0.005428,0.048651,2025-02-19T15:29:07.384-06:00
71.000000,252.885029,1.784994,12.213294,44.935458,280.295029,180.415533,2.075547,3.000000,-93.177274,11.842441,2025-02-19T15:29:08.999-06:00,0.020100,-1.000926,-0.037762,2025-02-19T15:29:08.389-06:00,-0.005747,-0.017282,0.017039,2025-02-19T15:29:08.389-06:00
72.000000,252.964789,1.786778,12.148624,44.935350,280.374789,180.092545,2.117101,3.000000,-93.177272,11.917373,2025-02-19T15:29:09.999-06:00,0.010729,-1.002748,-0.043891,2025-02-19T15:29:09.384-06:00,-0.096252,-0.032309,-0.059555,2025-02-19T15:29:09.384-06:00
73.000000,253.319296,1.789888,12.586073,44.935249,280.729296,182.419144,2.177294,3.000000,-93.177284,11.520763,2025-02-19T15:29:10.999-06:00,-0.005010,-0.990356,-0.030053,2025-02-19T15:29:10.389-06:00,-0.304034,0.082437,0.082251,2025-02-19T15:29:10.389-06:00
74.000000,253.647165,1.834515,13.277576,44.935148,281.057165,179.186725,2.405613,3.000000,-93.177271,11.194084,2025-02-19T15:29:11.999-06:00,-0.027276,-0.986792,0.007802,2025-02-19T15:29:11.383-06:00,-0.346924,0.117955,0.426980,2025-02-19T15:29:11.383-06:00
75.000000,253.586721,1.836624,13.426579,44.935046,280.996721,175.974867,2.248058,3.000000,-93.177260,11.083690,2025-02-19T15:29:12.999-06:00,-0.025129,-1.013238,-0.001748,2025-02-19T15:29:12.388-06:00,-0.337526,-0.135828,0.276176,2025-02-19T15:29:12.388-06:00
76.000000,253.868406,1.819471,13.468480,44.934947,281.278405,174.373342,2.134137,3.000000,-93.177247,10.939252,2025-02-19T15:29:13.999-06:00,-0.012387,-0.989868,-0.073988,2025-02-19T15:29:13.383-06:00,-0.277291,0.087069,-0.277694,2025-02-19T15:29:13.383-06:00
77.000000,253.813881,1.838522,14.296236,44.934855,281.223881,174.659435,2.074269,3.000000,-93.177235,10.412496,2025-02-19T15:29:14.999-06:00,-0.005805,-0.991882,-0.131522,2025-02-19T15:29:14.388-06:00,-0.219809,0.062743,-0.710491,2025-02-19T15:29:14.388-06:00
78.000000,253.602967,1.887386,15.711854,44.934770,281.012967,177.832125,2.042199,3.000000,-93.177236,9.733392,2025-02-19T15:29:15.999-06:00,-0.027772,-0.994764,-0.090211,2025-02-19T15:29:15.382-06:00,-0.397972,0.032244,-0.309489,2025-02-19T15:29:15.382-06:00
79.000000,253.705981,1.890361,16.511631,44.934685,281.115980,178.981729,2.187781,3.000000,-93.177234,9.276655,2025-02-19T15:29:16.999-06:00,-0.040207,-0.997237,-0.082849,2025-02-19T15:29:16.387-06:00,-0.523700,0.012767,-0.226327,2025-02-19T15:29:16.387-06:00
80.000000,253.929719,1.926183,18.361077,44.934608,281.339719,179.646249,2.110327,3.000000,-93.177234,8.498622,2025-02-19T15:29:17.999-06:00,-0.092785,-1.000605,-0.096924,2025-02-19T15:29:17.382-06:00,-0.977418,-0.026720,-0.323318,2025-02-19T15:29:17.382-06:00
81.000000,254.038159,2.000470,22.004587,44.934542,281.448159,180.047117,2.158026,3.000000,-93.177235,7.364137,2025-02-19T15:29:18.999-06:00,-0.126884,-0.996229,-0.103687,2025-02-19T15:29:18.387-06:00,-1.289293,0.011820,-0.351933,2025-02-19T15:29:18.387-06:00
82.000000,253.955633,2.110116,29.088483,44.934490,281.365633,180.507784,2.111434,3.000000,-93.177235,5.877908,2025-02-19T15:29:19.999-06:00,-0.151483,-0.998211,-0.111141,2025-02-19T15:29:19.381-06:00,-1.451477,-0.007492,-0.391660,2025-02-19T15:29:19.381-06:00
83.000000,253.875849,2.290849,44.737572,44.934457,281.285849,180.148765,2.083575,3.000000,-93.177235,4.140804,2025-02-19T15:29:20.999-06:00,-0.148320,-0.996074,-0.111814,2025-02-19T15:29:20.386-06:00,-1.277065,0.009302,-0.365363,2025-02-19T15:29:20.386-06:00
84.000000,253.973789,2.543589,82.194786,44.934438,281.383789,179.473689,2.095596,3.000000,-93.177232,2.426239,2025-02-19T15:29:21.999-06:00,-0.086569,-0.996547,-0.091152,2025-02-19T15:29:21.381-06:00,-0.649260,0.005224,-0.161316,2025-02-19T15:29:21.381-06:00
85.000000,254.161639,3.599482,180.000000,44.934433,281.571639,179.916321,2.079663,3.000000,-93.177233,0.951279,2025-02-19T15:29:22.999-06:00,-0.048383,-0.995222,-0.092124,2025-02-19T15:29:22.386-06:00,-0.216439,0.007123,-0.060882,2025-02-19T15:29:22.386-06:00
86.000000,254.347905,3.720016,180.000000,44.934434,281.757905,179.916322,2.068283,3.000000,-93.177232,0.047807,2025-02-19T15:29:23.999-06:00,0.045042,-0.994725,-0.049778,2025-02-19T15:29:23.380-06:00,0.647222,0.022401,0.214691,2025-02-19T15:29:23.380-06:00
87.000000,254.409698,3.750612,180.000000,44.934434,281.819698,179.916322,2.229216,3.000000,-93.177232,0.065648,2025-02-19T15:29:24.999-06:00,0.040519,-0.995302,-0.054931,2025-02-19T15:29:24.385-06:00,0.609133,0.015733,0.196665,2025-02-19T15:29:24.385-06:00
88.000000,,,,,,,,,,,,0.041195,-0.996551,-0.050586,2025-02-19T15:29:25.380-06:00,0.613191,0.007757,0.194518,2025-02-19T15:29:25.380-06:00
