seconds_elapsed,location_altitude,location_speedAccuracy,location_bearingAccuracy,location_latitude,location_altitudeAboveMeanSeaLevel,location_bearing,location_horizontalAccuracy,location_verticalAccuracy,location_longitude,location_speed,location_local_time,accelerometerUncalibrated_z,accelerometerUncalibrated_y,accelerometerUncalibrated_x,accelerometerUncalibrated_local_time,accelerometer_z,accelerometer_y,accelerometer_x,accelerometer_local_time
0.000000,261.987446,2.205025,35.293429,44.941362,289.397446,157.573191,2.702240,3.000000,-93.167073,5.057222,2025-02-19T15:47:44.000-06:00,-0.098400,-0.991154,-0.147998,2025-02-19T15:47:43.597-06:00,0.421092,-0.023938,-0.970739,2025-02-19T15:47:43.596-06:00
1.000000,262.018268,2.165999,31.060000,44.941306,289.428268,175.687511,2.667128,3.000000,-93.167078,5.648979,2025-02-19T15:47:45.000-06:00,-0.106468,-0.993618,-0.035028,2025-02-19T15:47:44.582-06:00,0.382025,-0.049486,0.060710,2025-02-19T15:47:44.581-06:00
2.000000,262.043191,2.083239,25.615887,44.941243,289.453191,181.557327,2.667223,3.000000,-93.167087,6.589655,2025-02-19T15:47:46.000-06:00,-0.160046,-1.001202,0.054304,2025-02-19T15:47:45.587-06:00,-0.095966,-0.124895,0.759835,2025-02-19T15:47:45.585-06:00
3.000000,262.046619,2.023268,22.901400,44.941177,289.456619,181.253540,2.617733,3.000000,-93.167087,7.138676,2025-02-19T15:47:47.000-06:00,-0.143534,-0.987571,-0.010515,2025-02-19T15:47:46.581-06:00,-0.152290,0.032153,0.282610,2025-02-19T15:47:46.580-06:00
4.000000,262.139627,2.029333,21.713491,44.941108,289.549627,181.253540,2.514888,3.000000,-93.167079,7.514000,2025-02-19T15:47:48.000-06:00,-0.141805,-0.983501,-0.045322,2025-02-19T15:47:47.586-06:00,-0.143973,0.072035,-0.071283,2025-02-19T15:47:47.585-06:00
5.000000,262.219801,1.983677,20.329672,44.941036,289.629801,181.253540,2.525354,3.000000,-93.167069,7.857388,2025-02-19T15:47:49.000-06:00,-0.140580,-0.988572,-0.046920,2025-02-19T15:47:48.581-06:00,-0.109819,0.022941,-0.082510,2025-02-19T15:47:48.580-06:00
6.000000,262.274354,1.932235,18.976780,44.940961,289.684354,180.861160,2.374710,3.000000,-93.167062,8.229759,2025-02-19T15:47:50.000-06:00,-0.165542,-0.981017,-0.049861,2025-02-19T15:47:49.586-06:00,-0.329495,0.092241,-0.135122,2025-02-19T15:47:49.584-06:00
7.000000,262.283867,1.937930,18.587352,44.940885,289.693867,180.861160,2.387285,3.000000,-93.167061,8.438970,2025-02-19T15:47:51.000-06:00,-0.215186,-0.976427,-0.038916,2025-02-19T15:47:50.580-06:00,-0.734206,0.129461,-0.108712,2025-02-19T15:47:50.579-06:00
8.000000,262.335273,1.949655,19.216314,44.940810,289.745273,180.112579,2.255650,3.000000,-93.167063,8.212526,2025-02-19T15:47:52.000-06:00,-0.220405,-0.974074,-0.051223,2025-02-19T15:47:51.585-06:00,-0.780370,0.151428,-0.124510,2025-02-19T15:47:51.584-06:00
9.000000,262.441565,1.969622,20.206435,44.940737,289.851565,180.112579,2.711455,3.000000,-93.167063,7.887237,2025-02-19T15:47:53.000-06:00,-0.219770,-0.973370,-0.033084,2025-02-19T15:47:52.580-06:00,-0.725088,0.148921,-0.001770,2025-02-19T15:47:52.579-06:00
10.000000,262.600627,2.000925,21.486777,44.940670,290.010627,180.112579,2.485831,3.000000,-93.167065,7.504904,2025-02-19T15:47:54.000-06:00,-0.220223,-0.975403,-0.029763,2025-02-19T15:47:53.585-06:00,-0.679402,0.126371,0.007310,2025-02-19T15:47:53.584-06:00
11.000000,262.755925,2.063224,22.930395,44.940604,290.165925,180.112579,2.637861,3.000000,-93.167065,7.172705,2025-02-19T15:47:55.000-06:00,-0.213967,-0.967047,-0.029183,2025-02-19T15:47:54.580-06:00,-0.566042,0.193296,0.029875,2025-02-19T15:47:54.578-06:00
12.000000,262.815770,2.049132,24.165893,44.940540,290.225770,180.112579,2.491094,3.000000,-93.167067,6.869776,2025-02-19T15:47:56.000-06:00,-0.218908,-0.983576,-0.036261,2025-02-19T15:47:55.584-06:00,-0.551515,0.031295,0.028307,2025-02-19T15:47:55.583-06:00
13.000000,263.019642,2.082077,25.572491,44.940480,290.429642,180.112579,2.382901,3.000000,-93.167066,6.576209,2025-02-19T15:47:57.000-06:00,-0.208459,-0.972809,-0.039531,2025-02-19T15:47:56.579-06:00,-0.464836,0.127315,0.007578,2025-02-19T15:47:56.578-06:00
14.000000,263.244008,2.105910,26.580299,44.940422,290.654008,180.112579,2.276989,3.000000,-93.167064,6.298313,2025-02-19T15:47:58.000-06:00,-0.164872,-0.987036,-0.033151,2025-02-19T15:47:57.584-06:00,-0.019328,-0.013884,0.100245,2025-02-19T15:47:57.583-06:00
15.000000,263.663827,2.211024,25.394935,44.940362,291.073827,180.112579,2.416066,3.000000,-93.167062,6.368568,2025-02-19T15:47:59.000-06:00,-0.137701,-0.989237,-0.037519,2025-02-19T15:47:58.579-06:00,0.253297,-0.038476,0.061336,2025-02-19T15:47:58.578-06:00
16.000000,263.173411,2.069664,25.276464,44.940303,290.583411,179.591110,2.326689,3.000000,-93.167059,6.629616,2025-02-19T15:48:00.000-06:00,-0.131189,-0.992036,-0.031909,2025-02-19T15:47:59.584-06:00,0.326849,-0.066716,0.099561,2025-02-19T15:47:59.582-06:00
17.000000,263.301944,2.033674,23.177104,44.940237,290.711944,179.591110,2.352446,3.000000,-93.167055,7.107990,2025-02-19T15:48:01.000-06:00,-0.122512,-0.990805,-0.042635,2025-02-19T15:48:00.578-06:00,0.363698,-0.047107,0.078629,2025-02-19T15:48:00.587-06:00
18.000000,263.548420,2.005956,21.116848,44.940166,290.958420,179.591110,2.270773,3.000000,-93.167055,7.626435,2025-02-19T15:48:02.000-06:00,-0.104124,-0.992790,-0.041415,2025-02-19T15:48:01.583-06:00,0.559771,-0.067450,0.128626,2025-02-19T15:48:01.582-06:00
19.000000,263.639773,1.949381,18.844574,44.940090,291.049773,179.591110,2.196457,3.000000,-93.167055,8.369428,2025-02-19T15:48:03.000-06:00,-0.101928,-0.989987,-0.036725,2025-02-19T15:48:02.578-06:00,0.587140,-0.049906,0.175450,2025-02-19T15:48:02.587-06:00
20.000000,263.714032,1.905006,16.831301,44.940006,291.124032,180.917862,2.345157,3.000000,-93.167056,9.167355,2025-02-19T15:48:04.000-06:00,-0.114941,-1.000338,-0.035928,2025-02-19T15:48:03.583-06:00,0.462793,-0.144374,0.133438,2025-02-19T15:48:03.581-06:00
21.000000,263.793594,1.902423,15.466544,44.939916,291.203593,180.917862,2.345504,3.000000,-93.167058,9.866333,2025-02-19T15:48:05.000-06:00,-0.117897,-0.997327,-0.020364,2025-02-19T15:48:04.587-06:00,0.347554,-0.096211,0.147834,2025-02-19T15:48:04.586-06:00
22.000000,263.950342,0.323115,7.239273,44.939820,291.360341,180.917862,2.695126,3.000000,-93.167058,10.600447,2025-02-19T15:48:06.000-06:00,-0.110558,-0.998146,-0.025870,2025-02-19T15:48:05.582-06:00,0.323226,-0.091140,0.089164,2025-02-19T15:48:05.581-06:00
23.000000,264.061111,0.307720,7.249795,44.939719,291.471110,180.917862,2.497368,3.000000,-93.167062,11.242600,2025-02-19T15:48:07.000-06:00,-0.119906,-0.994512,-0.022240,2025-02-19T15:48:06.587-06:00,0.199666,-0.046069,0.118272,2025-02-19T15:48:06.586-06:00
24.000000,264.107487,0.283319,7.249317,44.939611,291.517487,180.917862,2.320527,3.000000,-93.167064,11.896031,2025-02-19T15:48:08.000-06:00,-0.123969,-0.989903,-0.020853,2025-02-19T15:48:07.582-06:00,0.142665,0.002241,0.096633,2025-02-19T15:48:07.581-06:00
25.000000,264.251663,0.329548,7.255671,44.939499,291.661663,180.494460,2.168870,3.000000,-93.167065,12.447212,2025-02-19T15:48:09.000-06:00,-0.118633,-0.995305,-0.022947,2025-02-19T15:48:08.587-06:00,0.156961,-0.048236,0.070559,2025-02-19T15:48:08.585-06:00
26.000000,264.450436,0.333777,7.257454,44.939380,291.860436,180.805062,2.281732,3.000000,-93.167067,13.036153,2025-02-19T15:48:10.000-06:00,-0.142569,-0.991822,-0.024021,2025-02-19T15:48:09.581-06:00,-0.058200,-0.021927,0.060562,2025-02-19T15:48:09.580-06:00
27.000000,264.604443,0.332229,7.257758,44.939258,292.014443,180.933833,2.139835,3.000000,-93.167070,13.407517,2025-02-19T15:48:11.000-06:00,-0.146814,-0.988598,-0.035931,2025-02-19T15:48:10.586-06:00,-0.141875,0.021006,0.039568,2025-02-19T15:48:10.585-06:00
28.000000,264.746154,0.333683,7.257635,44.939133,292.156154,180.793693,2.068333,3.000000,-93.167070,13.746438,2025-02-19T15:48:12.000-06:00,-0.146070,-0.979457,-0.036157,2025-02-19T15:48:11.581-06:00,-0.089878,0.094740,0.017846,2025-02-19T15:48:11.580-06:00
29.000000,264.862843,0.323211,7.258568,44.939006,292.272843,179.571320,2.032756,3.000000,-93.167071,14.099971,2025-02-19T15:48:13.000-06:00,-0.155108,-0.983902,-0.045204,2025-02-19T15:48:12.586-06:00,-0.184752,0.064983,-0.020093,2025-02-19T15:48:12.584-06:00
30.000000,265.025325,0.320078,7.258758,44.938875,292.435325,180.472351,2.039625,3.000000,-93.167072,14.374142,2025-02-19T15:48:14.000-06:00,-0.158650,-0.987463,-0.039504,2025-02-19T15:48:13.581-06:00,-0.178655,0.010166,0.010130,2025-02-19T15:48:13.579-06:00
31.000000,265.118346,0.312105,7.258951,44.938744,292.528345,180.472351,2.018605,3.000000,-93.167072,14.598595,2025-02-19T15:48:15.000-06:00,-0.155352,-0.985805,-0.045158,2025-02-19T15:48:14.585-06:00,-0.153307,0.036396,-0.021246,2025-02-19T15:48:14.584-06:00
32.000000,265.315473,0.317427,7.258864,44.938611,292.725473,180.219025,2.008616,3.000000,-93.167071,14.817472,2025-02-19T15:48:16.000-06:00,-0.157592,-0.985565,-0.045596,2025-02-19T15:48:15.580-06:00,-0.150220,0.030626,-0.042353,2025-02-19T15:48:15.579-06:00
33.000000,265.408277,0.319113,7.258827,44.938477,292.818276,180.219025,2.213337,3.000000,-93.167071,14.978978,2025-02-19T15:48:17.000-06:00,-0.155327,-0.982584,-0.048447,2025-02-19T15:48:16.585-06:00,-0.128551,0.068573,-0.047821,2025-02-19T15:48:16.584-06:00
34.000000,265.530251,0.319476,7.258827,44.938340,292.940251,179.689209,2.096839,3.000000,-93.167071,15.189551,2025-02-19T15:48:18.000-06:00,-0.157526,-0.986423,-0.045052,2025-02-19T15:48:17.580-06:00,-0.122013,0.012720,-0.013048,2025-02-19T15:48:17.578-06:00
35.000000,265.709634,0.325707,7.258654,44.938201,293.119634,180.000000,2.043176,3.000000,-93.167072,15.410481,2025-02-19T15:48:19.000-06:00,-0.164274,-0.986526,-0.047178,2025-02-19T15:48:18.584-06:00,-0.184188,0.017792,-0.049521,2025-02-19T15:48:18.583-06:00
36.000000,265.802046,0.321109,7.258813,44.938061,293.212045,180.672775,2.297259,3.000000,-93.167073,15.598560,2025-02-19T15:48:20.000-06:00,-0.158607,-0.970472,-0.041367,2025-02-19T15:48:19.579-06:00,-0.090892,0.172024,0.038312,2025-02-19T15:48:19.578-06:00
37.000000,265.720102,0.303801,7.258960,44.937919,293.130102,180.672775,2.244917,3.000000,-93.167076,15.852453,2025-02-19T15:48:21.000-06:00,-0.170246,-0.967500,-0.032304,2025-02-19T15:48:20.584-06:00,-0.078479,0.181330,0.078510,2025-02-19T15:48:20.583-06:00
38.000000,265.590803,0.284985,7.258616,44.937775,293.000803,181.013855,2.106421,3.000000,-93.167077,16.051483,2025-02-19T15:48:22.000-06:00,-0.184019,-0.961968,-0.055767,2025-02-19T15:48:21.579-06:00,-0.140869,0.216568,-0.032106,2025-02-19T15:48:21.578-06:00
39.000000,265.290675,0.268101,7.257925,44.937629,292.700675,180.398468,2.327885,3.000000,-93.167077,16.223510,2025-02-19T15:48:23.000-06:00,-0.206908,-0.987159,-0.054281,2025-02-19T15:48:22.584-06:00,-0.321337,-0.029348,-0.091363,2025-02-19T15:48:22.582-06:00
40.000000,265.150399,0.275747,7.257934,44.937484,292.560399,180.398468,2.288104,3.000000,-93.167077,16.194415,2025-02-19T15:48:24.000-06:00,-0.203783,-0.971704,-0.042493,2025-02-19T15:48:23.578-06:00,-0.273459,0.114654,-0.016337,2025-02-19T15:48:23.587-06:00
41.000000,264.856305,0.281715,7.257829,44.937338,292.266305,180.398468,2.834485,3.000000,-93.167077,16.207098,2025-02-19T15:48:25.000-06:00,-0.206189,-0.977878,-0.041328,2025-02-19T15:48:24.583-06:00,-0.285439,0.054312,0.004098,2025-02-19T15:48:24.582-06:00
42.000000,264.619037,0.284841,7.257808,44.937192,292.029037,180.000000,2.738134,3.000000,-93.167076,16.192840,2025-02-19T15:48:26.000-06:00,-0.218208,-0.979289,-0.052124,2025-02-19T15:48:25.578-06:00,-0.415945,0.033746,-0.027321,2025-02-19T15:48:25.587-06:00
43.000000,264.482070,0.290437,7.258244,44.937047,291.892070,178.838974,2.313352,3.000000,-93.167076,16.083530,2025-02-19T15:48:27.000-06:00,-0.234714,-0.967190,-0.057214,2025-02-19T15:48:26.583-06:00,-0.535805,0.150346,-0.096058,2025-02-19T15:48:26.581-06:00
44.000000,264.238477,0.287824,7.257930,44.936905,291.648477,179.416718,2.133227,3.000000,-93.167076,15.742108,2025-02-19T15:48:28.000-06:00,-0.234910,-0.967257,-0.055190,2025-02-19T15:48:27.587-06:00,-0.521548,0.146340,-0.071471,2025-02-19T15:48:27.586-06:00
45.000000,264.183233,0.289501,7.258231,44.936767,291.593233,179.416718,2.101888,3.000000,-93.167075,15.487937,2025-02-19T15:48:29.000-06:00,-0.218729,-0.978805,-0.051670,2025-02-19T15:48:28.582-06:00,-0.348921,0.027916,-0.027794,2025-02-19T15:48:28.581-06:00
46.000000,264.048207,0.288316,7.258208,44.936630,291.458207,180.224655,2.141206,3.000000,-93.167073,15.294806,2025-02-19T15:48:30.000-06:00,-0.212014,-0.976520,-0.049027,2025-02-19T15:48:29.587-06:00,-0.259178,0.049824,-0.008988,2025-02-19T15:48:29.586-06:00
47.000000,263.944813,0.288585,7.258167,44.936489,291.354813,180.000000,2.611222,3.000000,-93.167073,15.350265,2025-02-19T15:48:31.000-06:00,-0.211594,-0.978067,-0.061337,2025-02-19T15:48:30.582-06:00,-0.240549,0.025883,-0.092191,2025-02-19T15:48:30.581-06:00
48.000000,263.958094,0.291333,7.258315,44.936352,291.368094,180.705368,2.408886,3.000000,-93.167073,15.098292,2025-02-19T15:48:32.000-06:00,-0.204370,-0.971147,-0.080060,2025-02-19T15:48:31.587-06:00,-0.143767,0.086355,-0.176046,2025-02-19T15:48:31.585-06:00
49.000000,263.703986,0.291741,7.258336,44.936218,291.113986,180.000000,2.197397,3.000000,-93.167074,15.011735,2025-02-19T15:48:33.000-06:00,-0.219792,-0.970314,-0.064599,2025-02-19T15:48:32.581-06:00,-0.265331,0.088955,-0.065483,2025-02-19T15:48:32.580-06:00
50.000000,263.329547,0.292905,7.258475,44.936085,290.739547,180.000000,2.089535,3.000000,-93.167078,14.744054,2025-02-19T15:48:34.000-06:00,-0.240311,-0.964917,-0.062453,2025-02-19T15:48:33.586-06:00,-0.464709,0.148008,-0.073948,2025-02-19T15:48:33.585-06:00
51.000000,263.245242,0.292718,7.258784,44.935956,290.655242,180.326828,2.590281,3.000000,-93.167079,14.371837,2025-02-19T15:48:35.000-06:00,-0.236896,-0.971165,-0.054016,2025-02-19T15:48:34.581-06:00,-0.379990,0.071863,0.017737,2025-02-19T15:48:34.580-06:00
52.000000,263.054595,0.282798,7.258663,44.935829,290.464594,180.326828,2.274431,3.000000,-93.167079,14.075674,2025-02-19T15:48:36.000-06:00,-0.214631,-0.979653,-0.057072,2025-02-19T15:48:35.586-06:00,-0.161837,-0.015283,0.042362,2025-02-19T15:48:35.584-06:00
53.000000,262.939591,0.284896,7.258529,44.935704,290.349590,180.110123,2.129845,3.000000,-93.167079,13.927175,2025-02-19T15:48:37.000-06:00,-0.205090,-0.970859,-0.051417,2025-02-19T15:48:36.580-06:00,-0.040048,0.068512,0.065586,2025-02-19T15:48:36.579-06:00
54.000000,262.832225,0.290389,7.258508,44.935577,290.242225,180.110123,2.652988,3.000000,-93.167077,13.933199,2025-02-19T15:48:38.000-06:00,-0.210891,-0.973794,-0.064319,2025-02-19T15:48:37.585-06:00,-0.090925,0.038396,-0.016923,2025-02-19T15:48:37.584-06:00
55.000000,262.814235,0.293596,7.258547,44.935452,290.224235,180.110123,2.687624,3.000000,-93.167075,13.895029,2025-02-19T15:48:39.000-06:00,-0.212995,-0.972946,-0.068328,2025-02-19T15:48:38.580-06:00,-0.094774,0.036007,-0.068565,2025-02-19T15:48:38.579-06:00
56.000000,262.812029,0.294932,7.258592,44.935329,290.222029,180.110123,4.094203,3.000000,-93.167074,13.707883,2025-02-19T15:48:40.000-06:00,-0.223542,-0.977888,-0.059549,2025-02-19T15:48:39.585-06:00,-0.171375,-0.005332,-0.012899,2025-02-19T15:48:39.583-06:00
57.000000,262.782774,0.296393,7.258728,44.935209,290.192774,180.000000,3.019935,3.000000,-93.167075,13.380730,2025-02-19T15:48:41.000-06:00,-0.217609,-0.971942,-0.059999,2025-02-19T15:48:40.580-06:00,-0.120354,0.050181,-0.027026,2025-02-19T15:48:40.578-06:00
58.000000,262.798032,0.299585,7.258895,44.935088,290.208032,180.000000,2.495892,3.000000,-93.167075,13.314552,2025-02-19T15:48:42.000-06:00,-0.294722,-0.956809,-0.076832,2025-02-19T15:48:41.584-06:00,-0.836994,0.183884,-0.131655,2025-02-19T15:48:41.583-06:00
59.000000,262.791482,0.284620,7.258828,44.934975,290.201482,180.000000,2.243075,3.000000,-93.167076,12.426945,2025-02-19T15:48:43.000-06:00,-0.321683,-0.951019,-0.073894,2025-02-19T15:48:42.579-06:00,-1.049221,0.230697,-0.121490,2025-02-19T15:48:42.578-06:00
60.000000,262.789339,0.269098,7.258809,44.934874,290.199338,180.000000,2.244248,3.000000,-93.167077,11.196087,2025-02-19T15:48:44.000-06:00,-0.328299,-0.943311,-0.063837,2025-02-19T15:48:43.584-06:00,-1.019090,0.284871,0.000526,2025-02-19T15:48:43.583-06:00
61.000000,262.614633,0.276627,7.258727,44.934783,290.024633,180.000000,2.296028,3.000000,-93.167076,10.166168,2025-02-19T15:48:45.000-06:00,-0.322934,-0.963285,-0.030683,2025-02-19T15:48:44.579-06:00,-0.918084,0.076544,0.377348,2025-02-19T15:48:44.587-06:00
62.000000,262.541070,0.289211,7.258850,44.934705,289.951070,180.000000,2.169222,3.000000,-93.167067,8.815564,2025-02-19T15:48:46.000-06:00,-0.292845,-0.962227,-0.035916,2025-02-19T15:48:45.583-06:00,-0.545098,0.071503,0.245680,2025-02-19T15:48:45.582-06:00
63.000000,262.651474,0.303166,7.258962,44.934635,290.061474,180.000000,2.193096,3.000000,-93.167052,7.877088,2025-02-19T15:48:47.000-06:00,-0.285718,-0.955979,-0.079778,2025-02-19T15:48:46.578-06:00,-0.433636,0.121565,-0.156440,2025-02-19T15:48:46.587-06:00
64.000000,262.604285,0.301145,7.258949,44.934572,290.014285,180.000000,2.908558,3.000000,-93.167065,7.042053,2025-02-19T15:48:48.000-06:00,-0.282048,-0.956951,-0.141114,2025-02-19T15:48:47.583-06:00,-0.414359,0.103115,-0.635097,2025-02-19T15:48:47.582-06:00
65.000000,262.608335,0.312873,7.258962,44.934518,290.018335,180.000000,2.768738,3.000000,-93.167065,6.090158,2025-02-19T15:48:49.000-06:00,-0.289745,-0.954987,-0.128004,2025-02-19T15:48:48.578-06:00,-0.499660,0.125425,-0.458731,2025-02-19T15:48:48.586-06:00
66.000000,262.618400,0.311319,7.258824,44.934474,290.028400,180.000000,2.768738,3.000000,-93.167065,5.070431,2025-02-19T15:48:50.000-06:00,-0.301162,-0.956361,-0.107493,2025-02-19T15:48:49.583-06:00,-0.578925,0.096939,-0.219371,2025-02-19T15:48:49.581-06:00
67.000000,262.643243,0.378901,7.441215,44.934439,290.053243,180.000000,2.602976,3.000000,-93.167065,3.965257,2025-02-19T15:48:51.000-06:00,-0.305862,-0.952107,-0.102147,2025-02-19T15:48:50.587-06:00,-0.608795,0.137039,-0.144405,2025-02-19T15:48:50.586-06:00
68.000000,262.525893,0.448277,10.535701,44.934415,289.935893,180.000000,2.644089,3.000000,-93.167042,2.789134,2025-02-19T15:48:52.000-06:00,-0.302897,-0.954819,-0.101083,2025-02-19T15:48:51.582-06:00,-0.503158,0.090141,-0.123630,2025-02-19T15:48:51.581-06:00
69.000000,262.553659,0.409897,15.334546,44.934405,289.963659,180.000000,2.728738,3.000000,-93.167052,1.564240,2025-02-19T15:48:53.000-06:00,-0.297071,-0.954449,-0.100418,2025-02-19T15:48:52.587-06:00,-0.401978,0.078797,-0.089237,2025-02-19T15:48:52.586-06:00
70.000000,262.689350,0.327592,57.582208,44.934401,290.099350,180.000000,2.582990,3.000000,-93.167052,0.431057,2025-02-19T15:48:54.000-06:00,-0.221682,-0.970320,-0.086670,2025-02-19T15:48:53.582-06:00,0.309049,-0.077072,0.064952,2025-02-19T15:48:53.580-06:00
71.000000,262.889601,0.299525,136.491354,44.934398,290.299601,180.000000,2.784172,3.000000,-93.167051,0.180703,2025-02-19T15:48:55.000-06:00,-0.183166,-0.978314,-0.079506,2025-02-19T15:48:54.586-06:00,0.633289,-0.133760,0.119477,2025-02-19T15:48:54.585-06:00
