seconds_elapsed,location_altitude,location_speedAccuracy,location_bearingAccuracy,location_latitude,location_altitudeAboveMeanSeaLevel,location_bearing,location_horizontalAccuracy,location_verticalAccuracy,location_longitude,location_speed,location_local_time,accelerometerUncalibrated_z,accelerometerUncalibrated_y,accelerometerUncalibrated_x,accelerometerUncalibrated_local_time,accelerometer_z,accelerometer_y,accelerometer_x,accelerometer_local_time
0,253.408047,1.014351,64.227826,44.934382,280.818047,305.12363,3.136386,3.5,-93.177142,2.335779,2025-02-28T01:38:09Z,-0.161789,-0.994756,-0.165647,2025-02-28T01:38:09Z,1.226445,-0.369809,-1.229299,2025-02-28T01:38:09Z
1,252.713135,1.48,28.184813,44.934469,280.123135,348.046875,4.113969,3,-93.17719,4.17,2025-02-28T01:38:10Z,-0.141529,-0.991983,-0.147658,2025-02-28T01:38:10Z,1.105468,-0.25046,-1.180219,2025-02-28T01:38:10Z
2,252.370911,0.98,10.562052,44.93453,279.78091,360,3.535534,3,-93.177202,4.17,2025-02-28T01:38:11Z,-0.161831,-0.993247,0.060492,2025-02-28T01:38:11Z,0.723468,-0.208088,0.720825,2025-02-28T01:38:11Z
3,251.93396,0.29,2.518869,44.934589,279.34396,2.109375,3.535534,3,-93.177197,6.05,2025-02-28T01:38:12Z,-0.16928,-0.992604,0.05847,2025-02-28T01:38:12Z,0.553052,-0.177265,0.758619,2025-02-28T01:38:12Z
4,251.840088,0.62,4.300615,44.934659,279.250088,358.945312,3.535534,3,-93.177207,9.39,2025-02-28T01:38:13Z,-0.2151,-0.973536,0.036697,2025-02-28T01:38:13Z,0.07651,0.008739,0.510879,2025-02-28T01:38:13Z
5,252.311218,0.42,2.837932,44.934745,279.721218,1.40625,3.535534,3,-93.177206,9.56,2025-02-28T01:38:14Z,-0.261337,-0.96706,0.023651,2025-02-28T01:38:14Z,-0.370516,0.070657,0.284263,2025-02-28T01:38:14Z
6,251.725708,0.14,0.9626,44.934822,279.135708,0,3.535534,3,-93.177202,9.56,2025-02-28T01:38:15Z,-0.287353,-0.957715,0.032341,2025-02-28T01:38:15Z,-0.63071,0.164919,0.287017,2025-02-28T01:38:15Z
7,251.97998,0.08,0.545753,44.934905,279.38998,0.247819,3.535534,3,-93.17721,9.7,2025-02-28T01:38:16Z,-0.294275,-0.95241,0.015276,2025-02-28T01:38:16Z,-0.606753,0.201481,0.134122,2025-02-28T01:38:16Z
8,252.143494,0.12,0.856375,44.934993,279.553493,0.247819,3.535534,3,-93.177209,9.7,2025-02-28T01:38:17Z,-0.257773,-0.957741,0.023198,2025-02-28T01:38:17Z,-0.233399,0.156528,0.17998,2025-02-28T01:38:17Z
9,251.87561,1.69,7.637747,44.935086,279.28561,0.247819,3.535534,3,-93.177211,9.89,2025-02-28T01:38:18Z,-0.256223,-0.9653,0.034988,2025-02-28T01:38:18Z,-0.18346,0.044795,0.203386,2025-02-28T01:38:18Z
10,252.318481,2.52,8.640729,44.935175,279.728481,0.247819,3.535534,3,-93.177177,9.89,2025-02-28T01:38:19Z,-0.245647,-0.984873,0.042872,2025-02-28T01:38:19Z,-0.088777,-0.134788,0.234936,2025-02-28T01:38:19Z
11,252.183472,1.65,5.743115,44.935264,279.593472,0.247819,3.535534,3,-93.177188,10.14,2025-02-28T01:38:20Z,-0.221771,-0.945949,0.010616,2025-02-28T01:38:20Z,0.075658,0.264136,0.22369,2025-02-28T01:38:20Z
12,251.920776,0.74,3.844578,44.935378,279.330776,0,3.535534,3,-93.177187,12.46,2025-02-28T01:38:21Z,-0.245053,-0.980029,0.032083,2025-02-28T01:38:21Z,-0.023719,-0.088316,0.34544,2025-02-28T01:38:21Z
13,251.920789,0.74,7.258975,44.93549,279.330788,0,4.748652,4.029364,-93.177183,12.46,2025-02-28T01:38:22Z,-0.240062,-0.969291,0.025136,2025-02-28T01:38:22Z,0.003402,0.003083,0.183538,2025-02-28T01:38:22Z
14,251.559583,0.46,7.258975,44.935591,278.969582,0,4.748652,4.029364,-93.177191,12.46,2025-02-28T01:38:23Z,-0.256487,-0.958453,0.049507,2025-02-28T01:38:23Z,-0.131516,0.133751,0.210204,2025-02-28T01:38:23Z
15,251.257703,0.308016,7.258975,44.935708,278.667703,0,4.748652,4.029364,-93.177192,12.46,2025-02-28T01:38:24Z,-0.26591,-0.960975,0.051038,2025-02-28T01:38:24Z,-0.134387,0.037026,0.201265,2025-02-28T01:38:24Z
16,251.234022,0.308016,7.258975,44.935827,278.644022,0,4.748652,4.029364,-93.177196,12.81,2025-02-28T01:38:25Z,-0.261202,-0.961247,0.039217,2025-02-28T01:38:25Z,-0.150104,0.077828,0.156577,2025-02-28T01:38:25Z
17,250.966749,1.78,11.052159,44.935948,278.376749,0,4.748652,4.029364,-93.177185,13.05,2025-02-28T01:38:26Z,-0.263685,-0.976858,0.018357,2025-02-28T01:38:26Z,-0.167217,-0.062859,0.019989,2025-02-28T01:38:26Z
18,251.553846,3.03,18.813506,44.936055,278.963846,0,4.748652,4.029364,-93.177172,13.05,2025-02-28T01:38:27Z,-0.256252,-0.953635,0.028401,2025-02-28T01:38:27Z,-0.18436,0.15226,0.077675,2025-02-28T01:38:27Z
19,250.49585,0.72,3.31236,44.936207,277.905849,0.115846,3.535534,3,-93.177192,14.03,2025-02-28T01:38:28Z,-0.264352,-0.953135,0.010641,2025-02-28T01:38:28Z,-0.077191,0.113638,0.02757,2025-02-28T01:38:28Z
20,250.495865,0.72,7.258975,44.936333,277.905865,0.115846,4.748652,4.029364,-93.177192,14.03,2025-02-28T01:38:29Z,-0.301856,-0.956242,0.014996,2025-02-28T01:38:29Z,-0.509157,0.137399,-0.026374,2025-02-28T01:38:29Z
21,250.262224,0.61,7.258975,44.936472,277.67222400000003,0.115846,4.748652,4.029364,-93.177184,14.77,2025-02-28T01:38:30Z,-0.314312,-0.946398,0.011799,2025-02-28T01:38:30Z,-0.543213,0.19461,-0.115147,2025-02-28T01:38:30Z
22,250.373369,0.34,7.258975,44.936598,277.783369,0.115846,4.748652,4.029364,-93.177198,14.77,2025-02-28T01:38:31Z,-0.323936,-0.945475,0.002278,2025-02-28T01:38:31Z,-0.66125,0.198764,-0.154584,2025-02-28T01:38:31Z
23,249.866471,0.67,7.258975,44.93672,277.276471,0,4.748652,4.029364,-93.1772,14.39,2025-02-28T01:38:32Z,-0.325038,-0.946391,0.008415,2025-02-28T01:38:32Z,-0.647336,0.191222,-0.071509,2025-02-28T01:38:32Z
24,249.357011,0.69,7.258975,44.936846,276.76701,0,4.748652,4.029364,-93.177204,14.22,2025-02-28T01:38:33Z,-0.336802,-0.938877,-0.001754,2025-02-28T01:38:33Z,-0.66273,0.233468,-0.21346,2025-02-28T01:38:33Z
25,250.105363,0.79,7.258975,44.936956,277.515362,0,4.748652,4.029364,-93.177191,14.22,2025-02-28T01:38:34Z,-0.326195,-0.952829,0.009254,2025-02-28T01:38:34Z,-0.584935,0.134625,-0.100503,2025-02-28T01:38:34Z
26,250.327893,0.308016,7.258975,44.937051,277.737893,0,4.748652,4.029364,-93.177187,12.39,2025-02-28T01:38:35Z,-0.318925,-0.942227,0.009571,2025-02-28T01:38:35Z,-0.433328,0.1576,-0.069858,2025-02-28T01:38:35Z
27,250.780652,0.308017,7.258975,44.937164,278.190652,0.12961,4.748652,4.029364,-93.177183,12.39,2025-02-28T01:38:36Z,-0.313613,-0.939317,0.002871,2025-02-28T01:38:36Z,-0.353087,0.205083,-0.012726,2025-02-28T01:38:36Z
28,251.149548,0.308016,7.258975,44.937266,278.559548,0.12961,4.748652,4.029364,-93.177184,12.16,2025-02-28T01:38:37Z,-0.319723,-0.948075,-0.004525,2025-02-28T01:38:37Z,-0.358668,0.1127,-0.120079,2025-02-28T01:38:37Z
29,251.318187,0.38,7.258975,44.937364,278.728187,0.12961,4.748652,4.029364,-93.177196,11.72,2025-02-28T01:38:38Z,-0.319775,-0.939156,0.017304,2025-02-28T01:38:38Z,-0.287795,0.167775,-0.004137,2025-02-28T01:38:38Z
30,251.159861,0.308016,7.258975,44.937468,278.569861,0.12961,4.748652,4.029364,-93.177185,11.47,2025-02-28T01:38:39Z,-0.320206,-0.947938,0.001233,2025-02-28T01:38:39Z,-0.262567,0.083465,-0.101886,2025-02-28T01:38:39Z
31,251.195993,0.308016,7.258975,44.937559,278.605993,0.258366,4.748652,4.029364,-93.177191,10.73,2025-02-28T01:38:40Z,-0.305185,-0.951056,0.003473,2025-02-28T01:38:40Z,-0.099953,0.038242,-0.049257,2025-02-28T01:38:40Z
32,251.096689,0.64,7.258975,44.937656,278.506689,0.258366,4.748652,4.029364,-93.177187,10.73,2025-02-28T01:38:41Z,-0.299873,-0.949707,0.008765,2025-02-28T01:38:41Z,-0.02722,0.051608,-0.073962,2025-02-28T01:38:41Z
33,252.846235,1.287801,9.842311,44.937767,280.256234,0.258366,2.548146,3,-93.177201,10.602002,2025-02-28T01:38:42Z,-0.317814,-0.959189,0.029771,2025-02-28T01:38:42Z,-0.220793,-0.041172,0.132931,2025-02-28T01:38:42Z
34,252.911635,1.285328,10.011322,44.937862,280.321635,0.258366,2.705934,3,-93.177203,10.402973,2025-02-28T01:38:43Z,-0.277416,-0.946008,-0.013814,2025-02-28T01:38:43Z,0.108601,0.120172,-0.067167,2025-02-28T01:38:43Z
35,252.863818,1.284122,10.221313,44.937948,280.273818,0.258366,3.98588,3,-93.177183,10.179707,2025-02-28T01:38:44Z,-0.26246,-0.956684,0.022445,2025-02-28T01:38:44Z,0.412461,-0.04531,0.159698,2025-02-28T01:38:44Z
36,252.846985,1.2722579999999999,10.023554,44.938043,280.256985,0,3.114473,3,-93.177199,10.284689,2025-02-28T01:38:45Z,-0.260455,-0.963085,0.023842,2025-02-28T01:38:45Z,0.441932,-0.108488,0.160985,2025-02-28T01:38:45Z
37,252.486046,0.678838,7.255172,44.938137,279.896046,0,2.63808,3,-93.177197,10.741567,2025-02-28T01:38:46Z,-0.296827,-0.957517,0.005535,2025-02-28T01:38:46Z,0.05142,-0.03991,-0.004964,2025-02-28T01:38:46Z
38,252.483582,0.701377,7.258429,44.938235,279.893582,0,2.355597,3,-93.177206,11.077339,2025-02-28T01:38:47Z,-0.320184,-0.948022,-0.0060350000000000004,2025-02-28T01:38:47Z,-0.184719,0.051051,-0.135571,2025-02-28T01:38:47Z
39,252.58879,0.693825,7.258939,44.938333,279.99879,0,2.411221,3,-93.177198,11.206121,2025-02-28T01:38:48Z,-0.284216,-0.950907,0.016433,2025-02-28T01:38:48Z,0.146694,0.03359,0.085639,2025-02-28T01:38:48Z
40,252.407691,0.684609,7.258971,44.938413,279.81769,0,2.233681,3,-93.177192,10.07089,2025-02-28T01:38:49Z,-0.265252,-0.962844,0.024299,2025-02-28T01:38:49Z,0.371162,-0.097818,0.164924,2025-02-28T01:38:49Z
41,251.789843,0.732225,7.250196,44.938516,279.199842,0,2.689612,3,-93.177183,10.603548,2025-02-28T01:38:50Z,-0.264575,-0.965061,0.013175,2025-02-28T01:38:50Z,0.291313,-0.091046,0.05582,2025-02-28T01:38:50Z
42,251.639253,0.832417,7.251445,44.938611,279.049253,0.290643,3.102281,3,-93.17719,10.483386,2025-02-28T01:38:51Z,-0.308659,-0.947206,0.001407,2025-02-28T01:38:51Z,-0.104663,0.077769,-0.052669,2025-02-28T01:38:51Z
43,251.364044,0.739948,7.254048,44.938723,278.774044,0.290618,2.834111,3,-93.17719,11.404163,2025-02-28T01:38:52Z,-0.306522,-0.948831,0.012544,2025-02-28T01:38:52Z,-0.077015,0.048172,0.045371,2025-02-28T01:38:52Z
44,252.218662,0.731172,7.256661,44.938814,279.628662,0.290618,2.645021,3,-93.177194,10.976499,2025-02-28T01:38:53Z,-0.248426,-0.971146,0.017025,2025-02-28T01:38:53Z,0.468942,-0.147559,0.101819,2025-02-28T01:38:53Z
45,252.119598,0.718781,7.257966,44.938909,279.529598,0.290618,2.451363,3,-93.177191,10.54661,2025-02-28T01:38:54Z,-0.285661,-0.961112,0.006642,2025-02-28T01:38:54Z,0.087059,-0.061919,-0.043511,2025-02-28T01:38:54Z
46,251.533586,0.712162,7.257818,44.939014,278.943585,0.290618,2.347622,3,-93.177191,11.107628,2025-02-28T01:38:55Z,-0.273389,-0.956701,0.010714,2025-02-28T01:38:55Z,0.127181,0.004443,0.023909,2025-02-28T01:38:55Z
47,252.654705,0.724997,7.252293,44.939113999999996,280.064705,0.307238,2.189511,3,-93.17719,11.197953,2025-02-28T01:38:56Z,-0.25047,-0.950296,0.005843,2025-02-28T01:38:56Z,0.40059,0.056056,0.072036,2025-02-28T01:38:56Z
48,250.914807,0.737164,7.250998,44.939217,278.324806,0.307238,2.997894,3,-93.177185,11.286254,2025-02-28T01:38:57Z,-0.270526,-0.969584,0.019487,2025-02-28T01:38:57Z,0.20837,-0.116144,0.139747,2025-02-28T01:38:57Z
49,251.76829,0.686381,7.258798,44.939325,279.17829,0.307238,2.824834,3,-93.177184,11.671214,2025-02-28T01:38:58Z,-0.267602,-0.960655,0.012671,2025-02-28T01:38:58Z,0.230565,-0.052372,0.085417,2025-02-28T01:38:58Z
50,251.228062,0.699651,7.258149,44.939431,278.638062,0.307238,2.448723,3,-93.177187,11.95991,2025-02-28T01:38:59Z,-0.284198,-0.955192,0.006951,2025-02-28T01:38:59Z,0.03794,0.036811,0.022582,2025-02-28T01:38:59Z
51,251.059111,0.71096,7.258456,44.939542,278.469111,0.307238,2.817129,3,-93.177187,12.241873,2025-02-28T01:39:00Z,-0.296421,-0.954784,-0.002217,2025-02-28T01:39:00Z,-0.068632,0.027273,-0.026572,2025-02-28T01:39:00Z
52,251.077628,0.713769,7.258966,44.93965,278.487628,0.060313,2.446016,3,-93.177185,12.147983,2025-02-28T01:39:01Z,-0.296592,-0.952882,-0.001693,2025-02-28T01:39:01Z,-0.087314,0.043596,6.18e-4,2025-02-28T01:39:01Z
53,250.803851,0.703489,7.258555,44.939754,278.213851,359.873418,2.233944,3,-93.177187,11.77437,2025-02-28T01:39:02Z,-0.286255,-0.956336,-0.008752,2025-02-28T01:39:02Z,-0.02752,0.028151,0.004589,2025-02-28T01:39:02Z
54,250.752956,0.703496,7.258673,44.939862,278.162956,0.043986,2.121636,3,-93.177186,11.639742,2025-02-28T01:39:03Z,-0.273649,-0.959048,-0.002155,2025-02-28T01:39:03Z,0.123503,-0.011582,0.02757,2025-02-28T01:39:03Z
55,250.607067,0.68674,7.258256,44.939969,278.017067,359.614825,2.078171,3,-93.177187,11.606865,2025-02-28T01:39:04Z,-0.270607,-0.959475,-0.003723,2025-02-28T01:39:04Z,0.179334,-0.036853,-0.017813,2025-02-28T01:39:04Z
56,250.794223,0.701764,7.258839,44.940074,278.204223,0.188149,2.159284,3,-93.177186,11.696558,2025-02-28T01:39:05Z,-0.280058,-0.984586,-0.024962,2025-02-28T01:39:05Z,-0.185107,-0.172263,-0.088933,2025-02-28T01:39:05Z
57,251.248131,0.678896,7.256721,44.940188,278.658131,359.867554,2.08286,3,-93.177192,12.170833,2025-02-28T01:39:06Z,-0.252162,-0.934749,-0.036129,2025-02-28T01:39:06Z,0.252192,0.223752,-0.080567,2025-02-28T01:39:06Z
58,250.635578,0.672188,7.25847,44.940293,278.045578,359.867554,2.253293,3,-93.177185,11.963952,2025-02-28T01:39:07Z,-0.280275,-0.958214,0.012209,2025-02-28T01:39:07Z,0.044288,0.031516,0.25334,2025-02-28T01:39:07Z
59,250.588666,0.676466,7.258929,44.940403,277.998666,359.867554,2.19246,3,-93.177182,12.170148,2025-02-28T01:39:08Z,-0.285541,-0.949245,-0.007765,2025-02-28T01:39:08Z,0.017912,0.08381,-0.018897,2025-02-28T01:39:08Z
60,250.449888,0.671661,7.258724,44.940513,277.859888,359.867554,2.100535,3,-93.177196,12.314592,2025-02-28T01:39:09Z,-0.305486,-0.957596,-0.019138,2025-02-28T01:39:09Z,-0.151326,-0.00146,-0.064484,2025-02-28T01:39:09Z
61,250.338256,0.673491,7.258789,44.940618,277.748256,0,2.360338,3,-93.177194,12.116619,2025-02-28T01:39:10Z,-0.328861,-0.949117,-0.035459,2025-02-28T01:39:10Z,-0.401117,0.079631,-0.257558,2025-02-28T01:39:10Z
62,250.665898,0.701094,7.258161,44.94073,278.075898,0.465065,2.187323,3,-93.177192,12.410154,2025-02-28T01:39:11Z,-0.327541,-0.939918,-0.018825,2025-02-28T01:39:11Z,-0.373393,0.167117,-0.21208,2025-02-28T01:39:11Z
63,250.100664,0.686166,7.258363,44.940821,277.510663,0.465065,2.100899,3,-93.177189,11.208433,2025-02-28T01:39:12Z,-0.313936,-0.953995,-0.007372,2025-02-28T01:39:12Z,-0.183135,0.013133,-0.154474,2025-02-28T01:39:12Z
64,250.092075,0.698299,7.258203,44.940912,277.502075,359.816467,2.055309,3,-93.177189,10.305434,2025-02-28T01:39:13Z,-0.300859,-0.943022,0.014307,2025-02-28T01:39:13Z,-0.047901,0.132043,-0.002786,2025-02-28T01:39:13Z
65,249.72863,0.698692,7.254977,44.94101,277.13863,359.816467,2.030508,3,-93.177189,10.408732,2025-02-28T01:39:14Z,-0.335651,-0.938352,-1.74e-4,2025-02-28T01:39:14Z,-0.295555,0.122339,-0.084632,2025-02-28T01:39:14Z
66,249.475303,0.712102,7.254388,44.941107,276.885303,0.800779,2.290565,3,-93.177191,10.580307,2025-02-28T01:39:15Z,-0.391347,-0.919309,-0.035852,2025-02-28T01:39:15Z,-0.85061,0.334751,-0.343742,2025-02-28T01:39:15Z
67,249.474374,0.738784,7.257373,44.941188,276.884373,0.800779,2.167839,3,-93.177191,9.947859,2025-02-28T01:39:16Z,-0.411136,-0.923946,-0.040715,2025-02-28T01:39:16Z,-0.993958,0.254471,-0.460305,2025-02-28T01:39:16Z
68,NA,NA,NA,NA,NA,NA,NA,NA,NA,NA,NA,-0.385483,-0.929447,0.0084,2025-02-28T01:39:17Z,-0.674961,0.185565,-0.09165,2025-02-28T01:39:17Z
