seconds_elapsed,location_altitude,location_speedAccuracy,location_bearingAccuracy,location_latitude,location_altitudeAboveMeanSeaLevel,location_bearing,location_horizontalAccuracy,location_verticalAccuracy,location_longitude,location_speed,location_local_time,accelerometerUncalibrated_z,accelerometerUncalibrated_y,accelerometerUncalibrated_x,accelerometerUncalibrated_local_time,accelerometer_z,accelerometer_y,accelerometer_x,accelerometer_local_time
0,250.802725,-0.53,0.801015,44.939259,278.212725,38.122396,59.202093,4,-93.177348,1.17,2025-02-28T01:24:59Z,-0.347833,-0.958251,0.136883,2025-02-28T01:24:59Z,-1.189181,0.135062,0.912523,2025-02-28T01:24:59Z
1,250.807312,1.3,13.530907,44.939068,278.217312,114.960938,3.535534,3,-93.176974,6.25,2025-02-28T01:25:00Z,-0.277513,-0.946117,0.099412,2025-02-28T01:25:00Z,-0.571551,0.277142,0.474573,2025-02-28T01:25:00Z
2,251.509338,1.01,11.548553,44.939006,278.919338,90.161171,6.718116,3,-93.176903,5.69,2025-02-28T01:25:01Z,-0.235179,-0.967931,0.074908,2025-02-28T01:25:01Z,-0.16398,0.056074,0.185746,2025-02-28T01:25:01Z
3,251.358826,0.24,2.224887,44.939005,278.768826,90.161171,6.938842,3,-93.176817,6.25,2025-02-28T01:25:02Z,-0.188176,-0.984093,0.056028,2025-02-28T01:25:02Z,0.215215,-0.076773,0.054,2025-02-28T01:25:02Z
4,251.401306,0.16,1.385426,44.939005,278.811306,90.161171,3.535534,3,-93.176724,7.79,2025-02-28T01:25:03Z,-0.194074,-0.981404,0.038188,2025-02-28T01:25:03Z,0.138363,-0.04567,-0.082385,2025-02-28T01:25:03Z
5,251.503235,0.2,1.523559,44.939005,278.913235,90.161171,6.216754,3,-93.176621,8.59,2025-02-28T01:25:04Z,-0.203433,-0.978616,3.9e-4,2025-02-28T01:25:04Z,0.024617,-0.016867,-0.380925,2025-02-28T01:25:04Z
6,251.258911,0.15,1.123711,44.939005,278.668911,90.161171,6.280497,3,-93.176515,8.59,2025-02-28T01:25:06Z,-0.230064,-0.970826,0.003279,2025-02-28T01:25:05Z,-0.225423,0.066237,-0.416065,2025-02-28T01:25:05Z
7,251.237671,0.15,1.161617,44.939005,278.647671,90.161171,6.643427,3,-93.176406,8.59,2025-02-28T01:25:07Z,-0.263786,-0.96774,0.003313,2025-02-28T01:25:06Z,-0.523863,0.099228,-0.343445,2025-02-28T01:25:06Z
8,251.090332,0.52,3.967905,44.939004,278.500332,90.161171,7.275791,3,-93.176294,8.62,2025-02-28T01:25:08Z,-0.236345,-0.961099,-0.055113,2025-02-28T01:25:07Z,-0.260116,0.15643,-0.722658,2025-02-28T01:25:07Z
9,250.942322,1.53,8.709446,44.939004,278.352322,90.161171,7.492618,3,-93.176182,8.83,2025-02-28T01:25:09Z,-0.216125,-0.967253,-0.055326,2025-02-28T01:25:08Z,-0.021604,0.083043,-0.656215,2025-02-28T01:25:08Z
10,251.344055,1,6.194858,44.939004,278.754055,90.075394,6.938835,3,-93.176069,8.83,2025-02-28T01:25:10Z,-0.225264,-0.973599,-0.037433,2025-02-28T01:25:09Z,-0.090873,0.0271,-0.484259,2025-02-28T01:25:09Z
11,251.844482,0.27,1.836923,44.939004,279.254482,90.075394,6.820142,3,-93.175946,8.9,2025-02-28T01:25:11Z,-0.226892,-0.975904,-0.019629,2025-02-28T01:25:10Z,-0.08507,0.010206,-0.272043,2025-02-28T01:25:10Z
12,252.136658,0.15,1.027983,44.939004,279.546658,90.075394,6.736029,3,-93.175821,9.8,2025-02-28T01:25:12Z,-0.225681,-0.970054,-0.006869,2025-02-28T01:25:11Z,-0.032147,0.034738,-0.169247,2025-02-28T01:25:11Z
13,252.136665,0.308016,7.258975,44.939004,279.546665,90.075394,4.748652,4.029364,-93.175697,9.8,2025-02-28T01:25:13Z,-0.251844,-0.967781,-0.011179,2025-02-28T01:25:12Z,-0.289066,0.072497,-0.200002,2025-02-28T01:25:12Z
14,252.55024,0.308016,7.258975,44.939004,279.96024,90.075394,4.748652,4.029364,-93.175563,10.18,2025-02-28T01:25:14Z,-0.250554,-0.965883,-0.016228,2025-02-28T01:25:13Z,-0.223675,0.082306,-0.269738,2025-02-28T01:25:13Z
15,252.476754,0.8,7.258975,44.939004,279.886754,90.075394,4.748652,4.029364,-93.175429,10.25,2025-02-28T01:25:15Z,-0.23763,-0.970005,-0.008035,2025-02-28T01:25:14Z,-0.089537,0.041704,-0.206703,2025-02-28T01:25:14Z
16,252.096322,1.84,14.645617,44.939003,279.506321,90.075394,4.748652,4.029364,-93.17531,10.18,2025-02-28T01:25:16Z,-0.235342,-0.971624,0.001157,2025-02-28T01:25:15Z,-0.077883,-0.00638,-0.073985,2025-02-28T01:25:15Z
17,252.402291,0.83,7.258975,44.939003,279.812291,90,4.748652,4.029364,-93.175171,10.25,2025-02-28T01:25:17Z,-0.228232,-0.959122,-0.018747,2025-02-28T01:25:16Z,-0.039253,0.171857,-0.219061,2025-02-28T01:25:16Z
18,252.551523,1.17,8.649937,44.939003,279.961523,90,4.748652,4.029364,-93.17503,10.96,2025-02-28T01:25:18Z,-0.254299,-0.982611,-0.002923,2025-02-28T01:25:17Z,-0.155831,-0.114192,-0.125759,2025-02-28T01:25:17Z
19,253.556652,1.39,9.292869,44.939003,280.966652,90,4.748652,4.029364,-93.174871,12.12,2025-02-28T01:25:19Z,-0.243946,-0.95885,-0.023086,2025-02-28T01:25:18Z,-0.134743,0.151371,-0.245009,2025-02-28T01:25:18Z
20,252.567761,1.41,9.426579,44.939003,279.97776,90,4.748652,4.029364,-93.174739,12.12,2025-02-28T01:25:20Z,-0.320673,-0.925978,-0.038383,2025-02-28T01:25:19Z,-0.776474,0.432231,-0.443921,2025-02-28T01:25:19Z
21,253.873546,0.56,7.258975,44.939003,281.283545,90,4.748652,4.029364,-93.174598,11.48,2025-02-28T01:25:21Z,-0.619259,-0.864212,-0.13263,2025-02-28T01:25:20Z,-3.585132,1.019363,-1.339272,2025-02-28T01:25:20Z
22,253.819771,0.55,7.258975,44.939003,281.229771,90,4.748652,4.029364,-93.174511,10.02,2025-02-28T01:25:21Z,-0.454727,-0.904919,-0.072973,2025-02-28T01:25:21Z,-1.934699,0.598888,-0.718901,2025-02-28T01:25:21Z
23,253.925664,0.308016,7.258975,44.939003,281.335664,90,4.748652,4.029364,-93.17447,7.89,2025-02-28T01:25:22Z,-0.398663,-0.922053,-0.05016,2025-02-28T01:25:22Z,-1.268732,0.401533,-0.495898,2025-02-28T01:25:22Z
24,253.920777,0.308016,7.726948,44.939003,281.330777,90,4.748652,4.029364,-93.174472,3.23,2025-02-28T01:25:23Z,-0.373319,-0.926789,-0.032888,2025-02-28T01:25:23Z,-0.928782,0.32854,-0.302433,2025-02-28T01:25:23Z
25,254.039063,0.308016,7.726948,44.939003,281.449063,90,4.748652,4.029364,-93.174433,3.23,2025-02-28T01:25:24Z,-0.386597,-0.927849,-0.051946,2025-02-28T01:25:24Z,-0.931918,0.280685,-0.391105,2025-02-28T01:25:24Z
26,254.753418,0.71,25.122363,44.939003,282.163418,90,4.748652,4.029364,-93.174416,2.29,2025-02-28T01:25:25Z,-0.344955,-0.938291,-0.037391,2025-02-28T01:25:25Z,-0.420969,0.147204,-0.216464,2025-02-28T01:25:25Z
27,254.557434,1.03,48.242381,44.939003,281.967434,90,4.748652,4.029364,-93.174412,1.73,2025-02-28T01:25:26Z,-0.223904,-0.97399,-9.34e-4,2025-02-28T01:25:26Z,0.683599,-0.181461,0.150456,2025-02-28T01:25:26Z
28,254.146423,0.91,85.739427,44.939003,281.556423,90,4.748652,4.029364,-93.174419,0.86,2025-02-28T01:25:27Z,-0.125641,-1.000155,0.030782,2025-02-28T01:25:27Z,1.535255,-0.400213,0.430384,2025-02-28T01:25:27Z
29,254.025391,0.308016,17.955426,44.939003,281.435391,90,4.748652,4.029364,-93.174397,1.39,2025-02-28T01:25:28Z,-0.108318,-1.007171,0.039618,2025-02-28T01:25:28Z,1.64896,-0.452791,0.476815,2025-02-28T01:25:28Z
30,254.058412,0.71,17.539699,44.939003,281.468411,90,4.748652,4.029364,-93.174337,3.28,2025-02-28T01:25:29Z,-0.126933,-0.999044,0.034307,2025-02-28T01:25:29Z,1.472997,-0.372874,0.40558,2025-02-28T01:25:29Z
31,254.1261,0.64,15.810433,44.939003,281.536099,90,4.748652,4.029364,-93.174279,3.28,2025-02-28T01:25:30Z,-0.150677,-0.990657,0.033142,2025-02-28T01:25:30Z,1.241727,-0.29696,0.381353,2025-02-28T01:25:30Z
32,254.560671,0.32,7.258975,44.939003,281.970671,90,4.748652,4.029364,-93.174184,5.31,2025-02-28T01:25:31Z,-0.172645,-0.983325,0.007329,2025-02-28T01:25:31Z,1.071869,-0.230988,0.175449,2025-02-28T01:25:31Z
33,255.480578,1.277888,15.951629,44.939017,282.890577,89.699287,2.387877,3,-93.174091,6.491192,2025-02-28T01:25:32Z,-0.178345,-0.983752,0.013177,2025-02-28T01:25:32Z,1.063578,-0.255688,0.181722,2025-02-28T01:25:32Z
34,255.322011,1.277289,13.719214,44.939019,282.732011,89.699287,2.116489,3,-93.173991,7.543721,2025-02-28T01:25:33Z,-0.183797,-0.985657,0.016853,2025-02-28T01:25:33Z,0.984346,-0.267149,0.158325,2025-02-28T01:25:33Z
35,255.328305,1.272876,12.00638,44.93902,282.738305,89.699287,2.439431,3,-93.173872,8.590275,2025-02-28T01:25:34Z,-0.239184,-0.972051,0.007138,2025-02-28T01:25:34Z,0.34463,-0.111189,0.091155,2025-02-28T01:25:34Z
36,255.151125,1.276623,11.002593,44.939005,282.561125,89.699287,2.736466,3,-93.173744,9.399854,2025-02-28T01:25:35Z,-0.274657,-0.952831,-0.014363,2025-02-28T01:25:35Z,-0.071573,0.119839,1.61e-4,2025-02-28T01:25:35Z
37,254.701231,0.691068,7.258489,44.939013,282.111231,89.73362,2.413518,3,-93.173605,9.880285,2025-02-28T01:25:36Z,-0.249425,-0.967604,-0.021127,2025-02-28T01:25:36Z,0.109263,-0.035954,-0.015728,2025-02-28T01:25:36Z
38,254.696807,0.71033,7.258972,44.939017,282.106807,89.73362,2.226103,3,-93.17348,9.773135,2025-02-28T01:25:37Z,-0.227634,-0.976342,-0.006733,2025-02-28T01:25:37Z,0.185692,-0.074761,0.100346,2025-02-28T01:25:37Z
39,254.817414,0.682664,7.258952,44.939016,282.227414,89.73362,2.134112,3,-93.173352,9.824735,2025-02-28T01:25:38Z,-0.251613,-0.968635,-0.02934,2025-02-28T01:25:38Z,-0.070224,0.015581,-0.004154,2025-02-28T01:25:38Z
40,254.776982,0.671845,7.258776,44.939016,282.186982,89.73362,2.075525,3,-93.17321,10.63863,2025-02-28T01:25:39Z,-0.25813,-0.971355,-0.028508,2025-02-28T01:25:39Z,-0.069009,-0.042687,-0.054483,2025-02-28T01:25:39Z
41,254.883395,0.698538,7.258589,44.939019,282.293395,90.109161,2.0424,3,-93.173077,10.683864,2025-02-28T01:25:40Z,-0.235795,-0.9559,-0.026883,2025-02-28T01:25:40Z,-0.070578,0.161277,9.99e-4,2025-02-28T01:25:40Z
42,254.86339,0.697866,7.257745,44.93902,282.27339,90.109161,2.023567,3,-93.172939,10.818063,2025-02-28T01:25:41Z,-0.275469,-0.978951,-0.044569,2025-02-28T01:25:41Z,-0.347904,-0.074657,-0.069944,2025-02-28T01:25:41Z
43,255.442798,0.68991,7.257058,44.939014,282.852798,90.109161,2.012407,3,-93.172802,10.934541,2025-02-28T01:25:42Z,-0.300409,-0.946335,-0.068661,2025-02-28T01:25:42Z,-0.651833,0.226579,-0.306104,2025-02-28T01:25:42Z
44,255.35226,0.701236,7.258736,44.939015,282.76226,90.109161,2.007277,3,-93.172676,10.501202,2025-02-28T01:25:43Z,-0.305689,-0.95098,-0.072939,2025-02-28T01:25:43Z,-0.690621,0.193196,-0.305628,2025-02-28T01:25:43Z
45,256.193754,0.708722,7.248975,44.939011,283.603753,90.109161,2.004165,3,-93.172564,9.485917,2025-02-28T01:25:44Z,-0.280154,-0.953603,-0.0522,2025-02-28T01:25:44Z,-0.419071,0.170417,-0.053922,2025-02-28T01:25:44Z
46,255.900029,0.683391,7.258577,44.93901,283.310029,90.109161,2.002425,3,-93.172453,8.782488,2025-02-28T01:25:45Z,-0.267728,-0.952955,-0.079484,2025-02-28T01:25:45Z,-0.247412,0.154552,-0.236668,2025-02-28T01:25:45Z
47,255.646863,0.718928,7.252099,44.939008,283.056863,90.109161,2.001397,3,-93.172343,8.493661,2025-02-28T01:25:46Z,-0.284825,-0.95161,-0.058999,2025-02-28T01:25:46Z,-0.361075,0.160536,-0.089009,2025-02-28T01:25:46Z
48,254.851255,0.750477,7.200107,44.939005,282.261255,89.69117,2.00087,3,-93.172236,8.226732,2025-02-28T01:25:47Z,-0.279711,-0.954328,-0.084342,2025-02-28T01:25:47Z,-0.366393,0.136687,-0.304518,2025-02-28T01:25:47Z
49,255.392949,0.696852,7.25187,44.939012,282.802949,89.69117,2.000577,3,-93.172128,8.223293,2025-02-28T01:25:48Z,-0.30501,-0.946154,-0.079643,2025-02-28T01:25:48Z,-0.531057,0.188538,-0.129769,2025-02-28T01:25:48Z
50,255.696453,0.796437,8.001464,44.939013,283.106453,89.69117,2.007916,3,-93.172028,8.063459,2025-02-28T01:25:49Z,-0.337969,-0.937088,-0.085896,2025-02-28T01:25:49Z,-0.826581,0.284623,-0.285161,2025-02-28T01:25:49Z
51,255.663107,0.743432,8.668835,44.939013,283.073107,89.69117,2.005663,3,-93.171956,6.936854,2025-02-28T01:25:50Z,-0.322652,-0.956378,-0.072313,2025-02-28T01:25:50Z,-0.60363,0.072246,-0.162449,2025-02-28T01:25:50Z
52,255.667614,0.713699,10.338776,44.939015,283.077614,88.184258,2.157492,3,-93.171894,5.575686,2025-02-28T01:25:51Z,-0.274823,-0.934816,-0.051905,2025-02-28T01:25:51Z,-0.097082,0.281823,0.044438,2025-02-28T01:25:51Z
53,255.484774,0.711276,11.363159,44.939013,282.894774,88.184258,2.131243,3,-93.171828,4.932753,2025-02-28T01:25:52Z,-0.278196,-0.966398,-0.06824,2025-02-28T01:25:52Z,-0.075922,-0.064395,-0.042129,2025-02-28T01:25:52Z
54,255.892379,0.691014,10.170543,44.939019,283.302379,87.4505,2.199978,3,-93.171747,5.486916,2025-02-28T01:25:53Z,-0.297718,-0.9471,-0.092635,2025-02-28T01:25:53Z,-0.313475,0.143246,-0.293066,2025-02-28T01:25:53Z
55,256.307853,0.716057,10.862949,44.939015,283.717853,87.4505,2.17498,3,-93.171681,5.34288,2025-02-28T01:25:54Z,-0.370364,-0.932189,-0.085476,2025-02-28T01:25:54Z,-0.931054,0.268101,-0.244517,2025-02-28T01:25:54Z
56,256.481634,0.73439,13.439602,44.939017,283.891634,87.4505,2.155538,3,-93.171638,4.414628,2025-02-28T01:25:55Z,-0.403048,-0.91755,-0.089421,2025-02-28T01:25:55Z,-1.141876,0.37869,-0.36537,2025-02-28T01:25:55Z
57,256.690586,0.756004,22.645771,44.939019,284.100586,87.4505,2.201673,3,-93.171621,2.566269,2025-02-28T01:25:56Z,-0.371823,-0.927514,-0.069763,2025-02-28T01:25:56Z,-0.777307,0.27471,-0.245742,2025-02-28T01:25:56Z
58,257.072796,0.977913,52.766786,44.93902,284.482796,87.4505,2.295123,3,-93.171616,0.94559,2025-02-28T01:25:57Z,-0.306291,-0.950587,-0.046227,2025-02-28T01:25:57Z,-0.064314,0.025063,-0.014061,2025-02-28T01:25:57Z
59,257.238001,1.033469,171.000799,44.93902,284.648001,87.4505,2.372195,3,-93.171622,0.45241,2025-02-28T01:25:58Z,-0.208572,-0.977612,-0.013212,2025-02-28T01:25:58Z,0.860274,-0.230181,0.285227,2025-02-28T01:25:58Z
60,257.444555,0.89992,180,44.939016,284.854555,87.4505,2.679174,3,-93.17164,2.234264,2025-02-28T01:25:59Z,-0.124834,-1.002467,0.024388,2025-02-28T01:25:59Z,1.644516,-0.460712,0.632799,2025-02-28T01:25:59Z
61,257.69328,0.69233,35.406468,44.939025,285.10328,87.4505,2.727575,3,-93.171545,1.545392,2025-02-28T01:26:00Z,-0.131477,-1.003132,0.027329,2025-02-28T01:26:00Z,1.522041,-0.451088,0.665081,2025-02-28T01:26:00Z
62,257.355946,0.718095,13.541836,44.939026,284.765946,87.4505,2.730651,3,-93.171475,4.004324,2025-02-28T01:26:01Z,-0.163668,-0.979971,0.01467,2025-02-28T01:26:01Z,1.232053,-0.233766,0.551924,2025-02-28T01:26:01Z
63,257.221758,0.690754,9.461501,44.939033,284.631757,88.985832,2.684985,3,-93.1714,5.804708,2025-02-28T01:26:02Z,-0.181322,-0.978039,-0.010799,2025-02-28T01:26:02Z,1.149944,-0.23978,0.336536,2025-02-28T01:26:02Z
64,257.412423,0.672012,8.670461,44.939023,284.822423,88.985832,2.644692,3,-93.17133,6.273827,2025-02-28T01:26:03Z,-0.152278,-0.998794,-0.03543,2025-02-28T01:26:03Z,1.34379,-0.422941,0.116436,2025-02-28T01:26:03Z
65,257.332381,0.679938,7.936711,44.939024,284.742381,88.985832,4.216031,3,-93.171246,6.940998,2025-02-28T01:26:04Z,-0.159874,-0.994961,-0.082266,2025-02-28T01:26:04Z,1.094816,-0.312979,-0.398312,2025-02-28T01:26:04Z
66,256.933675,0.681077,7.253942,44.939023,284.343675,90.50576,4.529385,3,-93.171147,7.763485,2025-02-28T01:26:05Z,-0.173643,-0.991159,-0.061196,2025-02-28T01:26:05Z,0.768128,-0.24288,-0.217897,2025-02-28T01:26:05Z
67,257.60765,0.672091,7.257382,44.939022,285.01765,90.50576,2.513621,3,-93.171036,8.529679,2025-02-28T01:26:06Z,-0.173547,-0.967797,-0.028991,2025-02-28T01:26:06Z,0.66485,0.010282,0.01142,2025-02-28T01:26:06Z
68,257.444773,0.716742,7.258944,44.939021,284.854773,90.50576,2.587079,3,-93.170933,8.445414,2025-02-28T01:26:07Z,-0.224586,-0.986559,-0.0171,2025-02-28T01:26:07Z,0.119909,-0.154739,0.093661,2025-02-28T01:26:07Z
69,257.518977,0.710713,7.257279,44.939027,284.928977,90,2.389909,3,-93.170805,9.284427,2025-02-28T01:26:08Z,-0.220221,-0.972135,-0.023654,2025-02-28T01:26:08Z,0.106461,0.005109,0.044626,2025-02-28T01:26:08Z
70,257.009677,0.710235,7.245683,44.939026,284.419677,90,2.245763,3,-93.170692,9.16283,2025-02-28T01:26:09Z,-0.22152,-0.965871,-0.019387,2025-02-28T01:26:09Z,0.080609,0.076486,0.054431,2025-02-28T01:26:09Z
71,258.295779,0.68257,7.258067,44.939023,285.705779,90,2.454633,3,-93.170545,10.34261,2025-02-28T01:26:10Z,-0.297932,-0.969245,-0.051945,2025-02-28T01:26:10Z,-0.665349,0.046054,-0.181888,2025-02-28T01:26:10Z
72,258.204736,0.668658,7.258963,44.939022,285.614736,90,2.298319,3,-93.170427,9.915804,2025-02-28T01:26:11Z,-0.288144,-0.945609,-0.033519,2025-02-28T01:26:11Z,-0.499793,0.254224,-0.163386,2025-02-28T01:26:11Z
73,258.796149,0.679673,7.253701,44.939026,286.206149,90,2.315303,3,-93.170314,9.335004,2025-02-28T01:26:12Z,-0.312493,-0.939083,-0.038103,2025-02-28T01:26:12Z,-0.686672,0.282198,-0.220463,2025-02-28T01:26:12Z
74,258.699981,0.679069,7.258006,44.939024,286.109981,90,2.18701,3,-93.170209,8.552894,2025-02-28T01:26:13Z,-0.285963,-0.944455,-0.023364,2025-02-28T01:26:13Z,-0.468969,0.255106,-0.048279,2025-02-28T01:26:13Z
75,258.758031,0.706357,7.310646,44.939025,286.168031,90,2.644472,3,-93.170112,7.828056,2025-02-28T01:26:14Z,-0.356394,-0.935084,-0.053389,2025-02-28T01:26:14Z,-1.018719,0.308038,-0.285323,2025-02-28T01:26:14Z
76,258.533862,0.703896,7.439535,44.939028,285.943862,90,2.854732,3,-93.170012,7.644303,2025-02-28T01:26:15Z,-0.312263,-0.948396,-0.037298,2025-02-28T01:26:15Z,-0.587772,0.203138,-0.168823,2025-02-28T01:26:15Z
77,257.73246,0.700129,8.48722,44.939021,285.142459,90,2.691417,3,-93.169938,6.514518,2025-02-28T01:26:16Z,-0.310936,-0.954882,-0.034655,2025-02-28T01:26:16Z,-0.525011,0.108052,-0.177399,2025-02-28T01:26:16Z
78,258.26411,0.69051,9.204579,44.939028,285.67411,90,2.586602,3,-93.169859,6.023417,2025-02-28T01:26:17Z,-0.348654,-0.937059,-0.049792,2025-02-28T01:26:17Z,-0.804259,0.258731,-0.313389,2025-02-28T01:26:17Z
79,258.629648,0.72216,10.478906,44.939026,286.039648,90,2.707509,3,-93.169789,5.578934,2025-02-28T01:26:18Z,-0.397217,-0.928473,-0.069062,2025-02-28T01:26:18Z,-1.259363,0.338467,-0.462324,2025-02-28T01:26:18Z
80,NA,NA,NA,NA,NA,NA,NA,NA,NA,NA,NA,-0.404087,-0.90548,-0.079351,2025-02-28T01:26:19Z,-1.173241,0.512088,-0.471634,2025-02-28T01:26:19Z
