seconds_elapsed,location_altitude,location_speedAccuracy,location_bearingAccuracy,location_latitude,location_altitudeAboveMeanSeaLevel,location_bearing,location_horizontalAccuracy,location_verticalAccuracy,location_longitude,location_speed,location_local_time,accelerometerUncalibrated_z,accelerometerUncalibrated_y,accelerometerUncalibrated_x,accelerometerUncalibrated_local_time,accelerometer_z,accelerometer_y,accelerometer_x,accelerometer_local_time
0,260.035489,-0.446667,9.263943,44.935288,287.445489,33.200521,267.937104,7.333333,-93.171038,-0.203333,2025-02-28T01:29:01Z,-0.219677,-0.973377,-0.044047,2025-02-28T01:29:01Z,0.341455,-0.073411,0.100248,2025-02-28T01:29:01Z
1,260.759766,1.71,44.149554,44.934464,288.169765,188.085938,5.422101,4,-93.170282,2.22,2025-02-28T01:29:02Z,-0.058576,-1.018989,-0.005235,2025-02-28T01:29:02Z,1.807148,-0.494855,0.46517,2025-02-28T01:29:02Z
2,260.661133,0.99,17.110613,44.934525,288.071133,356.484375,3.723915,3,-93.170286,2.22,2025-02-28T01:29:03Z,-0.090007,-1.010341,-0.016334,2025-02-28T01:29:03Z,1.387187,-0.375237,0.311604,2025-02-28T01:29:03Z
3,260.444946,0.99,14.368638,44.93457,287.854946,359.753693,3.535534,3,-93.170289,3.12,2025-02-28T01:29:04Z,-0.140787,-0.994909,-0.020666,2025-02-28T01:29:04Z,0.797525,-0.206876,0.197896,2025-02-28T01:29:04Z
4,259.712219,0.15,1.645668,44.934617,287.122219,359.753693,3.535534,3,-93.170294,6.2,2025-02-28T01:29:05Z,-0.166358,-0.990482,-0.042211,2025-02-28T01:29:05Z,0.511579,-0.145854,-0.094169,2025-02-28T01:29:05Z
5,260.678406,0.12,1.168018,44.934686,288.088406,359.753693,3.535534,3,-93.170274,6.86,2025-02-28T01:29:06Z,-0.206211,-0.975686,-0.025422,2025-02-28T01:29:06Z,0.014798,0.0273,0.0237,2025-02-28T01:29:06Z
6,261.454041,0.08,0.790025,44.934753,288.86404,359.753693,3.535534,3,-93.170275,6.66,2025-02-28T01:29:08Z,-0.286296,-0.953692,-0.053581,2025-02-28T01:29:07Z,-0.739778,0.222599,-0.217104,2025-02-28T01:29:07Z
7,261.503296,0.09,1.00549,44.934805,288.913296,359.753693,3.535534,3,-93.170275,6.66,2025-02-28T01:29:09Z,-0.304758,-0.950777,-0.059187,2025-02-28T01:29:08Z,-0.935762,0.263708,-0.2537,2025-02-28T01:29:08Z
8,261.473633,0.12,1.737895,44.934854,288.883633,359.753693,3.535534,3,-93.170275,4.77,2025-02-28T01:29:10Z,-0.335801,-0.939583,-0.07258,2025-02-28T01:29:09Z,-1.172615,0.347871,-0.340392,2025-02-28T01:29:09Z
9,260.828369,0.7,11.057193,44.934892,288.238369,359.753693,3.535534,3,-93.170276,4.77,2025-02-28T01:29:11Z,-0.364726,-0.930368,-0.089342,2025-02-28T01:29:10Z,-1.436676,0.433112,-0.41954,2025-02-28T01:29:10Z
10,260.256836,1.91,29.030664,44.93493,287.666836,359.753693,3.535534,3,-93.170276,4.12,2025-02-28T01:29:12Z,-0.389119,-0.921497,-0.103173,2025-02-28T01:29:11Z,-1.609207,0.510992,-0.517778,2025-02-28T01:29:11Z
11,260.724976,0.77,12.010738,44.934939,288.134975,0.631466,3.535534,3,-93.170276,4.1,2025-02-28T01:29:13Z,-0.265801,-0.950922,-0.076417,2025-02-28T01:29:12Z,-0.401068,0.212407,-0.227142,2025-02-28T01:29:12Z
12,260.552979,0.1,3.34726,44.934964,287.962978,0.631466,3.535534,3,-93.170275,1.94,2025-02-28T01:29:14Z,-0.232904,-0.979712,-0.031611,2025-02-28T01:29:13Z,0.084678,-0.095587,0.15943,2025-02-28T01:29:13Z
13,260.552979,0.308016,12.864969,44.934981,287.962979,0.631466,4.748652,4.029364,-93.170275,1.94,2025-02-28T01:29:15Z,-0.178102,-0.975873,-0.043467,2025-02-28T01:29:14Z,0.80091,-0.118579,0.086884,2025-02-28T01:29:14Z
14,261.08899,0.308016,8.665986,44.935013,288.49899,0.631466,4.748652,4.029364,-93.170275,2.88,2025-02-28T01:29:16Z,-0.14276,-0.998062,-0.014185,2025-02-28T01:29:15Z,1.160707,-0.332237,0.292641,2025-02-28T01:29:15Z
15,261.325075,0.308016,7.258975,44.935057,288.735075,0.631466,4.748652,4.029364,-93.170274,4.23,2025-02-28T01:29:17Z,-0.184095,-0.98122,-0.025689,2025-02-28T01:29:16Z,0.740966,-0.15952,0.164989,2025-02-28T01:29:16Z
16,261.270204,0.308016,7.258975,44.935102,288.680204,0.631466,4.748652,4.029364,-93.170273,4.23,2025-02-28T01:29:18Z,-0.208968,-0.973145,-0.023855,2025-02-28T01:29:17Z,0.505217,-0.089921,0.202226,2025-02-28T01:29:17Z
17,261.318118,0.308016,7.258975,44.935164,288.728117,0.631466,4.748652,4.029364,-93.170293,5.49,2025-02-28T01:29:19Z,-0.213932,-0.983484,-0.033546,2025-02-28T01:29:18Z,0.390551,-0.163374,0.133416,2025-02-28T01:29:18Z
18,261.49805,0.308016,7.258975,44.935223,288.90805,0.631466,4.748652,4.029364,-93.170291,6.1,2025-02-28T01:29:20Z,-0.229215,-0.970209,-0.033531,2025-02-28T01:29:19Z,0.212262,-0.040694,0.193494,2025-02-28T01:29:19Z
19,262.025821,1.22,15.816757,44.935278,289.435821,0.631466,4.748652,4.029364,-93.170271,6.25,2025-02-28T01:29:21Z,-0.217296,-0.973978,-0.041687,2025-02-28T01:29:20Z,0.175736,-0.03444,0.107615,2025-02-28T01:29:20Z
20,262.322513,2.47,32.022451,44.935325,289.732513,0.631466,4.748652,4.029364,-93.17027,6.25,2025-02-28T01:29:22Z,-0.223322,-0.973318,-0.040594,2025-02-28T01:29:21Z,0.147398,-0.026613,0.041724,2025-02-28T01:29:21Z
21,261.52338,1.41,18.280022,44.935414,288.933379,0.631466,4.748652,4.029364,-93.170268,6.25,2025-02-28T01:29:23Z,-0.233111,-0.97302,-0.049995,2025-02-28T01:29:22Z,0.072811,-0.035082,-0.060534,2025-02-28T01:29:22Z
22,261.827032,0.31,7.258975,44.935501,289.237031,0.631466,4.748652,4.029364,-93.170267,8.07,2025-02-28T01:29:24Z,-0.257305,-0.956817,-0.047636,2025-02-28T01:29:23Z,-0.169626,0.125727,-0.053783,2025-02-28T01:29:23Z
23,261.748846,0.308016,7.258975,44.93558,289.158846,0.075205,4.748652,4.029364,-93.170266,8.46,2025-02-28T01:29:25Z,-0.278324,-0.949395,-0.054846,2025-02-28T01:29:24Z,-0.349422,0.198661,-0.066226,2025-02-28T01:29:24Z
24,260.85376,2.03,15.979374,44.93565,288.26376,0.075205,3.535534,3,-93.170266,8.19,2025-02-28T01:29:26Z,-0.289419,-0.955824,-0.075868,2025-02-28T01:29:25Z,-0.418897,0.108979,-0.203851,2025-02-28T01:29:25Z
25,260.853765,2.03,20.08398,44.935723,288.263765,0.075205,4.748652,4.029364,-93.170266,8.19,2025-02-28T01:29:27Z,-0.283046,-0.954634,-0.074176,2025-02-28T01:29:26Z,-0.343238,0.1245,-0.187421,2025-02-28T01:29:26Z
26,260.827154,2.14,21.172276,44.935804,288.237154,0.075205,4.748652,4.029364,-93.170266,8.19,2025-02-28T01:29:28Z,-0.274116,-0.960679,-0.055347,2025-02-28T01:29:27Z,-0.217475,0.056824,-0.005342,2025-02-28T01:29:27Z
27,261.186285,1.91,18.89675,44.935867,288.596284,0.075205,4.748652,4.029364,-93.170266,8.19,2025-02-28T01:29:29Z,-0.248061,-0.966027,-0.057283,2025-02-28T01:29:28Z,-0.032322,0.026287,-0.058486,2025-02-28T01:29:28Z
28,261.753178,2.57,27.877264,44.93592,289.163178,0.075205,4.748652,4.029364,-93.170266,7.47,2025-02-28T01:29:30Z,-0.243049,-0.967247,-0.046258,2025-02-28T01:29:29Z,0.0379,0.005301,-0.052153,2025-02-28T01:29:29Z
29,261.44544,0.96,9.48626,44.936002,288.85544,0.075205,4.748652,4.029364,-93.170266,8.2,2025-02-28T01:29:31Z,-0.249223,-0.956499,-0.040521,2025-02-28T01:29:30Z,0.079986,0.079329,0.037617,2025-02-28T01:29:30Z
30,261.403692,0.308016,7.258975,44.936074,288.813692,0.075205,4.748652,4.029364,-93.170266,8.2,2025-02-28T01:29:32Z,-0.253197,-0.968447,-0.045452,2025-02-28T01:29:31Z,0.030326,-0.027273,0.052588,2025-02-28T01:29:31Z
31,261.581976,0.308016,7.258975,44.936149,288.991975,0.075205,4.748652,4.029364,-93.170265,8.2,2025-02-28T01:29:33Z,-0.276844,-0.95706,-0.0606,2025-02-28T01:29:32Z,-0.241663,0.092822,-0.060418,2025-02-28T01:29:32Z
32,261.526006,0.308016,7.258975,44.936224,288.936006,0.075205,4.748652,4.029364,-93.170265,8.3,2025-02-28T01:29:34Z,-0.357518,-0.937227,-0.088895,2025-02-28T01:29:33Z,-0.98237,0.265591,-0.3712,2025-02-28T01:29:33Z
33,261.164105,1.27633,13.005112,44.936289,288.574105,358.775482,2.273264,3,-93.170277,7.952237,2025-02-28T01:29:35Z,-0.408712,-0.907069,-0.102026,2025-02-28T01:29:34Z,-1.410542,0.550905,-0.508054,2025-02-28T01:29:34Z
34,260.543285,1.270948,15.10058,44.936343,287.953285,358.325409,2.828682,3,-93.170281,6.811325,2025-02-28T01:29:36Z,-0.416752,-0.91863,-0.095997,2025-02-28T01:29:35Z,-1.370425,0.39874,-0.449266,2025-02-28T01:29:35Z
35,260.463328,1.274791,19.849437000000002,44.936379,287.873328,1.631251,2.842322,3,-93.170271,5.196124,2025-02-28T01:29:37Z,-0.38732,-0.924705,-0.08063,2025-02-28T01:29:36Z,-1.021498,0.330202,-0.303595,2025-02-28T01:29:36Z
36,260.484309,1.277851,26.778984,44.936404,287.894309,0.118567,2.561548,3,-93.170274,3.86264,2025-02-28T01:29:38Z,-0.352064,-0.93415,-0.069798,2025-02-28T01:29:37Z,-0.603254,0.208235,-0.180116,2025-02-28T01:29:37Z
37,260.328126,1.280711,38.118404,44.936423,287.738126,0.351403,2.421161,3,-93.170276,2.715326,2025-02-28T01:29:39Z,-0.296051,-0.96105,-0.043469,2025-02-28T01:29:38Z,0.015874,-0.085895,0.016033,2025-02-28T01:29:38Z
38,260.370922,1.275421,46.08506,44.936444,287.780922,0.27829,2.336929,3,-93.170279,2.236021,2025-02-28T01:29:40Z,-0.255588,-0.955046,0.007146,2025-02-28T01:29:39Z,0.479173,-0.027301,0.440943,2025-02-28T01:29:39Z
39,260.666852,0.688567,28.458927,44.936441,288.076852,355.169738,2.297267,3,-93.170286,1.952741,2025-02-28T01:29:41Z,-0.219914,-0.98234,-2.8e-5,2025-02-28T01:29:40Z,0.973871,-0.34835,0.480394,2025-02-28T01:29:40Z
40,260.381487,0.684418,18.951887,44.936474,287.791487,350.245498,2.254801,3,-93.170297,2.897666,2025-02-28T01:29:42Z,-0.207232,-0.97735,0.023886,2025-02-28T01:29:41Z,0.908652,-0.243636,0.574877,2025-02-28T01:29:41Z
41,260.479667,0.664433,12.255372,44.936521,287.889667,348.692261,2.291124,3,-93.170298,4.391779,2025-02-28T01:29:43Z,-0.233578,-0.965497,0.088438,2025-02-28T01:29:42Z,0.633561,-0.104733,0.917798,2025-02-28T01:29:42Z
42,260.281228,0.656258,10.189641,44.936557,287.691228,330.115295,2.258777,3,-93.170361,5.21774,2025-02-28T01:29:44Z,-0.235139,-0.984383,0.060937,2025-02-28T01:29:43Z,0.527715,-0.262972,0.557288,2025-02-28T01:29:43Z
43,260.452295,0.783816,10.877806,44.936597,287.862295,317.099487,2.232899,3,-93.170413,5.838935,2025-02-28T01:29:44Z,-0.205865,-0.97325,-0.014484,2025-02-28T01:29:44Z,0.692983,-0.127712,-0.120359,2025-02-28T01:29:44Z
44,260.34194,0.672102,10.355818,44.936629,287.75194,317.099487,2.29155,3,-93.170448,5.258887,2025-02-28T01:29:45Z,-0.19984,-0.971265,-0.09596,2025-02-28T01:29:45Z,0.623781,-0.065663,-0.62695,2025-02-28T01:29:45Z
45,260.666155,0.690913,9.773614,44.93668,288.076154,333.371124,2.267254,3,-93.170487,5.718424,2025-02-28T01:29:46Z,-0.247509,-0.962261,-0.119281,2025-02-28T01:29:46Z,0.218807,0.001897,-0.810604,2025-02-28T01:29:46Z
46,260.643056,0.705281,9.33348,44.936731,288.053056,340.416656,2.324523,3,-93.170526,6.114583,2025-02-28T01:29:47Z,-0.284725,-0.952828,-0.12398,2025-02-28T01:29:47Z,-0.161302,0.086199,-0.87798,2025-02-28T01:29:47Z
47,260.467246,0.756024,10.717631,44.936778,287.877246,340.416656,2.342688,3,-93.170547,5.715248,2025-02-28T01:29:48Z,-0.339023,-0.934009,-0.147858,2025-02-28T01:29:48Z,-0.739299,0.295168,-1.053532,2025-02-28T01:29:48Z
48,260.522477,0.71408,12.45344,44.936814,287.932477,346.814728,2.342979,3,-93.170555,4.646412,2025-02-28T01:29:49Z,-0.406993,-0.917068,-0.128247,2025-02-28T01:29:49Z,-1.323799,0.436234,-0.889934,2025-02-28T01:29:49Z
49,260.594121,0.702572,16.557731,44.936841,288.004121,353.429352,2.320113,3,-93.170553,3.438192,2025-02-28T01:29:50Z,-0.368409,-0.933679,-0.07334,2025-02-28T01:29:50Z,-0.899958,0.271013,-0.395494,2025-02-28T01:29:50Z
50,260.495315,0.722238,25.788078,44.936851,287.905315,358.076843,2.331588,3,-93.170554,2.198637,2025-02-28T01:29:51Z,-0.251371,-0.936705,0.011711,2025-02-28T01:29:51Z,0.220827,0.235294,0.289511,2025-02-28T01:29:51Z
51,260.580792,0.746377,31.058671,44.936864,287.990792,358.076843,2.353196,3,-93.170557,1.863489,2025-02-28T01:29:52Z,-0.183461,-1.008265,-0.04505,2025-02-28T01:29:52Z,0.944532,-0.486931,-0.024323,2025-02-28T01:29:52Z
52,260.604868,0.729734,22.575887,44.936889,288.014868,1.198576,2.376417,3,-93.170559,2.482997,2025-02-28T01:29:53Z,-0.134676,-0.99568,-0.006742,2025-02-28T01:29:53Z,1.322915,-0.33163,0.416518,2025-02-28T01:29:53Z
53,261.220092,0.721512,14.953191,44.936932,288.630091,1.198576,2.368227,3,-93.170535,3.845535,2025-02-28T01:29:54Z,-0.140368,-0.995668,-0.016392,2025-02-28T01:29:54Z,1.247092,-0.321342,0.345966,2025-02-28T01:29:54Z
54,261.098172,0.71404,11.764586,44.936985,288.508172,1.198576,2.432898,3,-93.170534,4.917547,2025-02-28T01:29:55Z,-0.209665,-0.975975,-0.042275,2025-02-28T01:29:55Z,0.490808,-0.115466,0.0919,2025-02-28T01:29:55Z
55,261.431493,0.728749,11.182617,44.937036,288.841493,0.311397,2.425292,3,-93.170556,5.274999,2025-02-28T01:29:56Z,-0.25504,-0.966837,-0.033965,2025-02-28T01:29:56Z,0.01993,-0.018438,0.181289,2025-02-28T01:29:56Z
56,261.740066,0.683094,10.010497,44.937086,289.150065,0.311397,2.404028,3,-93.170533,5.503375,2025-02-28T01:29:57Z,-0.244838,-0.960389,-0.049585,2025-02-28T01:29:57Z,0.107328,0.041972,0.056303,2025-02-28T01:29:57Z
57,261.77859,0.691211,9.700098,44.937138,289.18859,0.311397,2.383826,3,-93.170532,5.764308,2025-02-28T01:29:58Z,-0.255144,-0.966492,-0.05239,2025-02-28T01:29:58Z,0.002491,-0.014904,0.020917,2025-02-28T01:29:58Z
58,262.259142,0.675871,9.585138,44.937187,289.669142,358.623291,2.390934,3,-93.170549,5.675225,2025-02-28T01:29:59Z,-0.295027,-0.94805,-0.064875,2025-02-28T01:29:59Z,-0.377144,0.176053,-0.08359,2025-02-28T01:29:59Z
59,262.507127,0.679301,10.528155,44.937231,289.917127,358.623291,2.371387,3,-93.170547,5.223239,2025-02-28T01:30:00Z,-0.346396,-0.932495,-0.078389,2025-02-28T01:30:00Z,-0.842008,0.303625,-0.233107,2025-02-28T01:30:00Z
60,262.357739,0.676787,12.721439,44.937265,289.767739,358.623291,2.352818,3,-93.170543,4.29258,2025-02-28T01:30:01Z,-0.416675,-0.917321,-0.086386,2025-02-28T01:30:01Z,-1.474552,0.439256,-0.33308,2025-02-28T01:30:01Z
61,262.470257,0.691611,23.145719,44.937277,289.880257,355.608887,2.441184,3,-93.170546,2.379275,2025-02-28T01:30:02Z,-0.371139,-0.928771,-0.079176,2025-02-28T01:30:02Z,-0.990396,0.320468,-0.245908,2025-02-28T01:30:02Z
62,262.642098,0.692459,31.325546,44.937293,290.052098,355.608887,2.475832,3,-93.170542,1.737724,2025-02-28T01:30:03Z,-0.247905,-0.965961,-0.044844,2025-02-28T01:30:03Z,0.243959,-0.055836,0.112239,2025-02-28T01:30:03Z
63,262.921176,0.680836,37.273149,44.937308,290.331175,355.608887,2.736358,3,-93.170539,1.475454,2025-02-28T01:30:04Z,-0.239704,-0.953872,-0.013391,2025-02-28T01:30:04Z,0.314981,0.089567,0.224342,2025-02-28T01:30:04Z
64,263.311396,0.725145,40.014101,44.937323,290.721395,355.608887,2.999118,3,-93.170534,1.35814,2025-02-28T01:30:05Z,-0.2372,-0.984307,-0.033852,2025-02-28T01:30:05Z,0.39388,-0.256224,0.153424,2025-02-28T01:30:05Z
65,263.485013,0.685702,26.34963,44.93735,290.895012,351.451813,3.104128,3,-93.170529,2.078185,2025-02-28T01:30:06Z,-0.182771,-0.986714,-0.017223,2025-02-28T01:30:06Z,0.861064,-0.244394,0.29673,2025-02-28T01:30:06Z
66,263.698032,0.680301,16.86557,44.937386,291.108031,351.451813,3.165654,3,-93.170529,3.208936,2025-02-28T01:30:07Z,-0.183505,-0.972124,-0.008311,2025-02-28T01:30:07Z,1.080878,-0.175745,0.319456,2025-02-28T01:30:07Z
67,263.279252,0.672616,13.622522,44.937426,290.689252,358.194989,3.156161,3,-93.17053,3.947023,2025-02-28T01:30:08Z,-0.226229,-0.960155,0.003387,2025-02-28T01:30:08Z,0.954821,-0.147401,0.378307,2025-02-28T01:30:08Z
68,263.134717,0.672788,11.132294,44.937477,290.544717,358.382704,3.133299,3,-93.17053,4.849874,2025-02-28T01:30:09Z,-0.22646,-0.975374,-0.011766,2025-02-28T01:30:09Z,0.932874,-0.281722,0.162351,2025-02-28T01:30:09Z
69,262.77168,0.683212,9.867668,44.937532,290.18168,0.035059,3.138001,3,-93.170528,5.552238,2025-02-28T01:30:10Z,-0.221497,-0.972212,-0.053605,2025-02-28T01:30:10Z,0.844606,-0.207842,-0.040542,2025-02-28T01:30:10Z
70,262.643226,0.670088,8.653491,44.937592,290.053226,359.783626,3.156689,3,-93.17053,6.250018,2025-02-28T01:30:11Z,-0.224149,-0.951369,-0.072528,2025-02-28T01:30:11Z,0.852973,-0.044473,0.034067,2025-02-28T01:30:11Z
71,262.226432,0.667332,7.285802,44.937663,289.636432,355.313126,3.106453,3,-93.170544,7.338434,2025-02-28T01:30:12Z,-0.2914,-0.950956,-0.062019,2025-02-28T01:30:12Z,0.324685,-0.070396,0.03743,2025-02-28T01:30:12Z
72,261.953722,0.662827,7.309698,44.937727,289.363721,359.739105,3.077947,3,-93.170538,7.27386,2025-02-28T01:30:13Z,-0.304708,-0.969208,-0.051517,2025-02-28T01:30:13Z,0.192265,-0.229071,-0.091747,2025-02-28T01:30:13Z
73,261.578387,0.665624,7.309022,44.937794,288.988387,359.739105,3.055851,3,-93.17054,7.34557,2025-02-28T01:30:14Z,-0.39309500000000003,-0.947553,-0.040465,2025-02-28T01:30:14Z,-1.041243,0.089541,-0.248072,2025-02-28T01:30:14Z
74,261.610169,0.66752,8.115428,44.937853,289.020169,0.359243,3.081835,3,-93.170539,6.661957,2025-02-28T01:30:15Z,-0.394358,-0.935281,-0.027816,2025-02-28T01:30:15Z,-1.108162,0.239649,-0.24981,2025-02-28T01:30:15Z
75,261.701845,0.677924,10.130179,44.937898,289.111845,0.359243,3.072449,3,-93.170541,5.409143,2025-02-28T01:30:16Z,-0.44098,-0.903698,-0.055902,2025-02-28T01:30:16Z,-1.647197,0.572676,-0.486823,2025-02-28T01:30:16Z
76,261.599401,0.688838,15.081586,44.937926,289.0094,0.359243,2.993736,3,-93.17054,3.699745,2025-02-28T01:30:17Z,-0.458423,-0.903347,-0.073514,2025-02-28T01:30:17Z,-1.733866,0.54415500000000006,-0.493248,2025-02-28T01:30:17Z
77,261.67696,0.696384,24.882537,44.937938,289.086959,0.359243,2.872379,3,-93.170541,2.230374,2025-02-28T01:30:18Z,-0.2838,-0.975835,-0.035825,2025-02-28T01:30:18Z,-0.015906,-0.168819,-0.070916,2025-02-28T01:30:18Z
78,261.502054,0.862066,32.303095,44.937955,288.912054,0.359243,2.863465,3,-93.170544,2.146692,2025-02-28T01:30:19Z,-0.226898,-0.954633,-0.004603,2025-02-28T01:30:19Z,0.549049,0.038128,0.181466,2025-02-28T01:30:19Z
79,261.540296,0.739863,29.618076,44.937969,288.950296,0.359243,2.980556,3,-93.170545,1.969485,2025-02-28T01:30:20Z,-0.188003,-0.981429,0.006857,2025-02-28T01:30:20Z,1.135974,-0.279672,0.408304,2025-02-28T01:30:20Z
80,261.366361,0.685498,19.05279,44.937998,288.776361,0.359243,2.948675,3,-93.170549,2.915019,2025-02-28T01:30:21Z,-0.177316,-0.978853,0.004964,2025-02-28T01:30:21Z,1.220852,-0.260186,0.351871,2025-02-28T01:30:21Z
81,261.223225,0.68285,13.919085,44.938038,288.633225,1.092985,2.988252,3,-93.170553,3.974765,2025-02-28T01:30:22Z,-0.205624,-0.979611,0.00205,2025-02-28T01:30:22Z,0.983222,-0.27205,0.290308,2025-02-28T01:30:22Z
82,260.899185,0.682886,11.196845,44.938087,288.309185,1.092985,2.936206,3,-93.170558,4.930264,2025-02-28T01:30:23Z,-0.230102,-0.963443,-0.019729,2025-02-28T01:30:23Z,0.703622,-0.107395,0.086819,2025-02-28T01:30:23Z
83,260.668965,0.677864,10.051932,44.938139,288.078965,1.092985,2.864191,3,-93.17056,5.459021,2025-02-28T01:30:24Z,-0.292767,-0.966645,-0.058249,2025-02-28T01:30:24Z,0.03809,-0.120091,-0.215495,2025-02-28T01:30:24Z
84,260.485069,0.676063,10.234804,44.938187,287.895068,5.572406,2.848451,3,-93.17056,5.350347,2025-02-28T01:30:25Z,-0.305781,-0.953459,-0.06254,2025-02-28T01:30:25Z,-0.152563,0.025043,-0.312781,2025-02-28T01:30:25Z
85,260.1255,0.679143,10.713385,44.938232,287.5355,5.572406,2.854368,3,-93.170555,5.112169,2025-02-28T01:30:26Z,-0.330854,-0.942407,-0.084655,2025-02-28T01:30:26Z,-0.494693,0.173239,-0.576496,2025-02-28T01:30:26Z
86,260.362952,0.708627,12.986113,44.938267,287.772952,5.572406,2.806803,3,-93.170546,4.41992,2025-02-28T01:30:27Z,-0.279441,-0.951022,-0.126929,2025-02-28T01:30:27Z,-0.150555,0.121382,-0.867578,2025-02-28T01:30:27Z
87,260.231712,0.689106,14.586889,44.938295,287.641712,5.572406,2.759344,3,-93.170528,3.827736,2025-02-28T01:30:28Z,-0.327379,-0.933388,-0.18534,2025-02-28T01:30:28Z,-0.514328,0.257703,-1.202752,2025-02-28T01:30:28Z
88,260.43575,0.686285,15.68088,44.938316,287.845749,40.997288,2.728944,3,-93.170493,3.542314,2025-02-28T01:30:29Z,-0.269144,-0.95391,-0.152833,2025-02-28T01:30:29Z,-0.037811,0.069308,-0.726435,2025-02-28T01:30:29Z
89,260.786539,0.67623200000000006,17.632505,44.938329,288.196539,55.110655,2.690579,3,-93.170504,3.038251,2025-02-28T01:30:30Z,-0.237048,-0.959879,-0.150513,2025-02-28T01:30:30Z,0.175839,0.022433,-0.561493,2025-02-28T01:30:30Z
90,260.099178,0.65421,16.825296,44.938283,287.509177,89.740326,5.247365,3,-93.170425,3.132163,2025-02-28T01:30:31Z,-0.200448,-0.970102,-0.135487,2025-02-28T01:30:31Z,0.459373,-0.067351,-0.295451,2025-02-28T01:30:31Z
91,259.711998,0.663803,15.033542,44.938283,287.121998,89.740326,5.548779,3,-93.170379,3.547227,2025-02-28T01:30:32Z,-0.186258,-0.981318,-0.090691,2025-02-28T01:30:32Z,0.50506,-0.155683,0.129295,2025-02-28T01:30:32Z
92,259.790954,0.657769,12.407151,44.938284,287.200953,89.740326,5.637304,3,-93.17032,4.295621,2025-02-28T01:30:33Z,-0.189048,-0.982287,-0.065104,2025-02-28T01:30:33Z,0.332868,-0.113875,0.300839,2025-02-28T01:30:33Z
93,259.55849,0.654851,10.073062,44.938284,286.968489,89.740326,5.457827,3,-93.170247,5.261465,2025-02-28T01:30:34Z,-0.222119,-0.968587,-0.044816,2025-02-28T01:30:34Z,0.024868,0.021089,0.402826,2025-02-28T01:30:34Z
94,259.251164,0.6626,9.687811,44.938284,286.661164,89.740326,5.401399,3,-93.170177,5.501013,2025-02-28T01:30:35Z,-0.261276,-0.959686,-0.075134,2025-02-28T01:30:35Z,-0.335449,0.096169,0.114443,2025-02-28T01:30:35Z
95,259.273588,0.661257,9.766652,44.938284,286.683588,89.740326,5.438962,3,-93.170107,5.47145,2025-02-28T01:30:36Z,-0.277728,-0.955595,-0.083747,2025-02-28T01:30:36Z,-0.498559,0.135929,0.060503,2025-02-28T01:30:36Z
96,258.735204,0.793506,15.405174,44.938284,286.145204,89.740326,6.325859,3,-93.170071,3.982551,2025-02-28T01:30:37Z,-0.292491,-0.95296,-0.055363,2025-02-28T01:30:37Z,-0.635957,0.168909,0.336779,2025-02-28T01:30:37Z
97,259.328421,0.676552,10.698044,44.938285,286.738421,89.740326,5.229369,3,-93.16998,5.113928,2025-02-28T01:30:38Z,-0.284983,-0.952837,-0.073733,2025-02-28T01:30:38Z,-0.487338,0.138921,0.175548,2025-02-28T01:30:38Z
98,258.824866,0.682394,11.304862,44.938285,286.234866,89.100128,5.227323,3,-93.169921,4.744677,2025-02-28T01:30:39Z,-0.276874,-0.953205,-0.085163,2025-02-28T01:30:39Z,-0.377903,0.144319,0.003858,2025-02-28T01:30:39Z
99,259.183084,0.690556,11.793138,44.938286,286.593084,89.100128,5.167439,3,-93.169859,4.7119,2025-02-28T01:30:40Z,-0.275857,-0.972489,-0.061635,2025-02-28T01:30:40Z,-0.421399,-0.026337,0.108861,2025-02-28T01:30:40Z
100,259.393961,0.677561,11.961781,44.938287,286.80396,89.100128,5.037585,3,-93.1698,4.584764,2025-02-28T01:30:41Z,-0.26839,-0.958388,-0.056972,2025-02-28T01:30:41Z,-0.47263,0.135185,0.191739,2025-02-28T01:30:41Z
101,259.362624,0.677875,12.647108,44.938288,286.772624,87.568756,4.807952,3,-93.169744,4.309995,2025-02-28T01:30:42Z,-0.259041,-0.956201,-0.074123,2025-02-28T01:30:42Z,-0.410057,0.144829,0.208135,2025-02-28T01:30:42Z
102,259.729943,0.66252200000000006,13.526943,44.938291,287.139943,86.066338,4.689964,3,-93.169694,3.965904,2025-02-28T01:30:43Z,-0.252882,-0.956711,-0.135751,2025-02-28T01:30:43Z,-0.303713,0.120707,-0.227536,2025-02-28T01:30:43Z
103,259.715605,0.673295,14.654146,44.938293,287.125604,86.066338,4.294898,3,-93.169647,3.722919,2025-02-28T01:30:44Z,-0.222306,-0.956736,-0.238156,2025-02-28T01:30:44Z,-0.128628,0.119326,-1.032418,2025-02-28T01:30:44Z
104,259.827883,0.661566,15.140174,44.938295,287.237883,86.066338,2.341874,3,-93.169608,3.534755,2025-02-28T01:30:45Z,-0.18865,-0.953163,-0.315352,2025-02-28T01:30:45Z,0.05002,0.174707,-1.727588,2025-02-28T01:30:45Z
105,260.058961,0.649311,15.80146,44.938287,287.468961,136.646326,2.32478,3,-93.169587,3.305124,2025-02-28T01:30:46Z,-0.203556,-0.960673,-0.260183,2025-02-28T01:30:46Z,-0.186706,0.153023,-1.4346969999999999,2025-02-28T01:30:46Z
106,260.033968,0.660362,15.872548,44.938252,287.443968,180.474442,2.308541,3,-93.169582,3.361421,2025-02-28T01:30:47Z,-0.18341,-0.971972,-0.13232,2025-02-28T01:30:47Z,-0.145532,0.106861,-0.599907,2025-02-28T01:30:47Z
107,259.891339,0.675848,15.558668,44.938218,287.301339,180.474442,2.293114,3,-93.16959,3.519664,2025-02-28T01:30:48Z,-0.189847,-0.98664,0.032535,2025-02-28T01:30:48Z,-0.219037,-0.013251,0.667987,2025-02-28T01:30:48Z
108,260.521201,0.671584,12.951771,44.938176,287.931201,180.474442,2.278458,3,-93.169592,4.124095,2025-02-28T01:30:49Z,-0.227629,-0.969704,0.156829,2025-02-28T01:30:49Z,-0.579512,0.149318,1.869836,2025-02-28T01:30:49Z
109,260.452853,0.699707,13.485562,44.938143,287.862853,180.474442,3.742331,3,-93.169603,4.206818,2025-02-28T01:30:50Z,-0.300684,-0.940957,0.194545,2025-02-28T01:30:50Z,-0.940809,0.352007,2.504016,2025-02-28T01:30:50Z
110,260.239392,0.691694,11.977144,44.938073,287.649392,90.871025,5.376122,3,-93.169498,4.678758,2025-02-28T01:30:51Z,-0.355071,-0.937606,0.137359,2025-02-28T01:30:51Z,-1.018021,0.265122,2.126712,2025-02-28T01:30:51Z
111,259.762264,0.686873,12.526969,44.938072,287.172264,90.914368,5.075507,3,-93.16944,4.395602,2025-02-28T01:30:52Z,-0.410494,-0.912462,0.183518,2025-02-28T01:30:52Z,-1.212626,0.424637,2.430231,2025-02-28T01:30:52Z
112,260.098228,0.670989,12.248018,44.938072,287.508228,90.914368,6.99133,3,-93.16938,4.43587,2025-02-28T01:30:53Z,-0.426332,-0.912452,0.196597,2025-02-28T01:30:53Z,-1.023324,0.31945,2.425444,2025-02-28T01:30:53Z
113,259.876553,0.686816,12.949954,44.938166,287.286553,3.743128,4.651543,3,-93.16929,4.281831,2025-02-28T01:30:54Z,-0.370008,-0.937752,0.131852,2025-02-28T01:30:54Z,-0.422109,0.062253,1.711462,2025-02-28T01:30:54Z
114,259.707844,0.703891,11.760012,44.938219,287.117844,20.315176,2.211634,3,-93.169332,4.837911,2025-02-28T01:30:55Z,-0.331349,-0.945074,0.071901,2025-02-28T01:30:55Z,-0.232089,0.062869,0.94538,2025-02-28T01:30:55Z
115,259.594279,0.705239,11.006207,44.938269,287.004279,5.76909,2.201053,3,-93.169332,5.182262,2025-02-28T01:30:56Z,-0.346609,-0.93568,0.083726,2025-02-28T01:30:56Z,-0.423637,0.168158,0.975591,2025-02-28T01:30:56Z
116,259.558673,0.712471,10.746879,44.938318,286.968673,348.514165,2.191,3,-93.169353,5.365784,2025-02-28T01:30:57Z,-0.40663,-0.917387,0.197265,2025-02-28T01:30:57Z,-1.047296,0.356166,1.906108,2025-02-28T01:30:57Z
117,258.71626,0.700087,10.35698,44.938356,286.12626,325.636045,2.209021,3,-93.169401,5.390242,2025-02-28T01:30:58Z,-0.452105,-0.915285,0.211741,2025-02-28T01:30:58Z,-1.508525,0.382559,1.947241,2025-02-28T01:30:58Z
118,258.702264,0.665361,10.215556,44.938357,286.112264,303.926634,2.19857,3,-93.169466,5.246325,2025-02-28T01:30:59Z,-0.384259,-0.922083,0.004688,2025-02-28T01:30:59Z,-1.015945,0.378735,0.03994,2025-02-28T01:30:59Z
119,258.613108,0.749485,13.003148,44.938395,286.023108,301.382659,2.227142,3,-93.169516,4.648988,2025-02-28T01:31:00Z,-0.294869,-0.941987,-0.171389,2025-02-28T01:31:00Z,-0.320734,0.219594,-1.686053,2025-02-28T01:31:00Z
120,258.596002,0.717932,12.790127,44.938423,286.006001,314.441482,2.225807,3,-93.169558,4.540638,2025-02-28T01:31:01Z,-0.271289,-0.952397,-0.223423,2025-02-28T01:31:01Z,0.113873,0.067109,-2.094488,2025-02-28T01:31:01Z
121,258.164925,0.67719,12.917083,44.938456,285.574924,331.794643,2.224212,3,-93.169578,4.230502,2025-02-28T01:31:02Z,-0.226339,-0.968671,-0.243803,2025-02-28T01:31:02Z,0.467921,-0.067324,-2.273286,2025-02-28T01:31:02Z
122,258.342998,0.721612,11.824911,44.938507,285.752998,355.534982,2.213002,3,-93.169571,4.945052,2025-02-28T01:31:03Z,-0.190968,-0.998216,-0.003695,2025-02-28T01:31:03Z,0.750753,-0.348655,-0.079785,2025-02-28T01:31:03Z
123,258.047166,0.73984,10.284802000000001,44.938563,285.457166,0.236664,2.202352,3,-93.169566,5.792249,2025-02-28T01:31:04Z,-0.216526,-0.967007,-0.008253,2025-02-28T01:31:04Z,0.40997,-0.010673,-0.036525,2025-02-28T01:31:04Z
124,258.53698,0.699566,8.564316,44.938627,285.94698,0.236664,2.342355,3,-93.169569,6.618982,2025-02-28T01:31:05Z,-0.20965,-0.979422,-0.006862,2025-02-28T01:31:05Z,0.424357,-0.1163,0.018703,2025-02-28T01:31:05Z
125,258.61731,0.683136,7.418934,44.938697,286.027309,0.236664,2.328185,3,-93.16957,7.460931,2025-02-28T01:31:06Z,-0.246673,-0.972842,-0.02004,2025-02-28T01:31:06Z,0.027354,-0.04538,-0.053222,2025-02-28T01:31:06Z
126,257.938797,0.727555,7.338759,44.938771,285.348796,0.236664,2.413139,3,-93.169568,7.964942,2025-02-28T01:31:07Z,-0.248338,-0.96186,-0.018485,2025-02-28T01:31:07Z,0.001909,0.060057,-0.016746,2025-02-28T01:31:07Z
127,258.9587,0.704306,7.25559,44.938845,286.3687,0.236643,2.335237,3,-93.169551,8.188113,2025-02-28T01:31:08Z,-0.228282,-0.966078,-0.012173,2025-02-28T01:31:08Z,0.149541,0.047871,0.023664,2025-02-28T01:31:08Z
128,258.960098,0.684222,7.258852,44.938927,286.370098,0.236643,2.350316,3,-93.169551,8.640671,2025-02-28T01:31:09Z,-0.24165,-0.980954,-0.019529,2025-02-28T01:31:09Z,0.076906,-0.120528,0.008957,2025-02-28T01:31:09Z
129,259.430798,0.716932,7.253538,44.939012,286.840797,0,2.803885,3,-93.169565,9.007419,2025-02-28T01:31:10Z,-0.244719,-0.959107,-0.016727,2025-02-28T01:31:10Z,-0.065519,0.10174,-0.071345,2025-02-28T01:31:10Z
130,259.037744,0.717274,7.256554,44.939094,286.447744,359.512604,2.664577,3,-93.169571,8.930159,2025-02-28T01:31:11Z,-0.266663,-0.950208,-0.003939,2025-02-28T01:31:11Z,-0.145478,0.159695,-0.028597,2025-02-28T01:31:11Z
131,259.214866,0.724215,7.258711,44.939188,286.624866,359.512604,2.41236,3,-93.169574,9.625673,2025-02-28T01:31:12Z,-0.291628,-0.954396,0.01336,2025-02-28T01:31:12Z,-0.379768,0.141248,0.128535,2025-02-28T01:31:12Z
132,258.871784,0.722355,7.256056,44.939273,286.281783,359.512604,2.571605,3,-93.169553,9.729298,2025-02-28T01:31:14Z,-0.282665,-0.950109,-0.04711,2025-02-28T01:31:13Z,-0.207501,0.139752,-0.436062,2025-02-28T01:31:13Z
133,258.693868,0.729443,7.254843,44.939358,286.103868,359.512604,2.754416,3,-93.169554,9.674511,2025-02-28T01:31:15Z,-0.289099,-0.955334,-0.037901,2025-02-28T01:31:14Z,-0.286886,0.109578,-0.264591,2025-02-28T01:31:14Z
134,258.260758,0.93803,8.006977,44.939442,285.670758,359.512604,2.74196,3,-93.169555,9.439516,2025-02-28T01:31:16Z,-0.299845,-0.955595,-0.024605,2025-02-28T01:31:15Z,-0.316954,0.061208,-0.17593,2025-02-28T01:31:15Z
135,259.323012,0.743784,7.255361,44.939539,286.733012,359.512604,2.782313,3,-93.169556,9.912031,2025-02-28T01:31:17Z,-0.294786,-0.944626,-0.02105,2025-02-28T01:31:16Z,-0.275924,0.198652,-0.126704,2025-02-28T01:31:16Z
136,258.918208,0.702885,7.258065,44.93962,286.328208,0,2.896187,3,-93.169556,9.362314,2025-02-28T01:31:18Z,-0.327094,-0.946871,-0.032063,2025-02-28T01:31:17Z,-0.637841,0.192086,-0.255487,2025-02-28T01:31:17Z
137,258.290143,0.712896,7.247544,44.939702,285.700142,0,2.628336,3,-93.169577,8.952572,2025-02-28T01:31:19Z,-0.385412,-0.920577,-0.049421,2025-02-28T01:31:18Z,-1.051387,0.369955,-0.39249,2025-02-28T01:31:18Z
138,258.070441,0.703951,7.24833,44.939773,285.480441,0,2.640409,3,-93.169578,8.260874,2025-02-28T01:31:20Z,-0.389189,-0.930445,-0.038494,2025-02-28T01:31:19Z,-1.050618,0.285284,-0.27959,2025-02-28T01:31:19Z
139,258.175156,0.716105,8.284782,44.93983,285.585155,0,2.507963,3,-93.169577,6.989241,2025-02-28T01:31:21Z,-0.390848,-0.926995,-0.039311,2025-02-28T01:31:20Z,-1.052949,0.322912,-0.230339,2025-02-28T01:31:20Z
140,258.052849,0.707205,9.259128,44.939885,285.462848,0.742213,2.496793,3,-93.169576,6.172998,2025-02-28T01:31:22Z,-0.378002,-0.926644,-0.044086,2025-02-28T01:31:21Z,-0.878918,0.297042,-0.211765,2025-02-28T01:31:21Z
141,258.065084,0.677274,10.229064,44.939928,285.475084,0.742213,2.527605,3,-93.169555,5.350924,2025-02-28T01:31:23Z,-0.401939,-0.916606,-0.054005,2025-02-28T01:31:22Z,-0.953784,0.354573,-0.3,2025-02-28T01:31:22Z
142,257.714318,0.695357,13.261191,44.93996,285.124318,0.742213,2.439671,3,-93.169554,4.16977,2025-02-28T01:31:24Z,-0.450301,-0.901837,-0.066621,2025-02-28T01:31:23Z,-1.351293,0.46563,-0.421832,2025-02-28T01:31:23Z
143,257.571043,0.721666,24.321469,44.939974,284.981043,0.742213,2.376861,3,-93.169554,2.285341,2025-02-28T01:31:25Z,-0.421381,-0.918055,-0.063494,2025-02-28T01:31:24Z,-0.886677,0.246223,-0.304051,2025-02-28T01:31:24Z
144,257.783356,0.724887,47.899482,44.939982,285.193356,0.742213,2.452912,3,-93.169554,1.193012,2025-02-28T01:31:26Z,-0.35531,-0.934306,-0.04137,2025-02-28T01:31:25Z,-0.135462,0.04679,-0.051399,2025-02-28T01:31:25Z
145,257.659684,0.865543,94.509248,44.939986,285.069684,0.742213,2.673033,3,-93.169553,0.510335,2025-02-28T01:31:27Z,-0.346294,-0.938744,-0.045346,2025-02-28T01:31:26Z,-0.042689,0.001046,-0.052875,2025-02-28T01:31:26Z
146,257.859882,0.963873,180,44.93999,285.269882,0.742213,2.807394,3,-93.169553,0.151587,2025-02-28T01:31:28Z,-0.292952,-0.952876,-0.028063,2025-02-28T01:31:27Z,0.420608,-0.116154,0.107222,2025-02-28T01:31:27Z
147,258.09398,0.978433,180,44.939992,285.50398,0.742213,3.083234,3,-93.169553,0.11011,2025-02-28T01:31:29Z,-0.27619,-0.958789,-0.022743,2025-02-28T01:31:28Z,0.491224,-0.140393,0.133463,2025-02-28T01:31:28Z
148,258.181094,0.980002,180,44.939995,285.591094,0.742213,3.384971,3,-93.169553,0.282845,2025-02-28T01:31:30Z,-0.251923,-0.965807,-0.018507,2025-02-28T01:31:29Z,0.557886,-0.150613,0.156628,2025-02-28T01:31:29Z
149,258.335174,0.769344,100.267252,44.940002,285.745174,0.742213,3.311924,3,-93.169553,0.609062,2025-02-28T01:31:31Z,-0.229913,-0.971437,-0.01698,2025-02-28T01:31:30Z,0.629887,-0.158539,0.190901,2025-02-28T01:31:30Z
150,258.245735,0.736811,42.716465,44.940021,285.655735,0.742213,3.265544,3,-93.169553,1.31776,2025-02-28T01:31:32Z,-0.129202,-0.999666,0.005439,2025-02-28T01:31:31Z,1.514251,-0.409736,0.426508,2025-02-28T01:31:31Z
151,258.248882,0.718059,22.896908,44.940049,285.658881,0.742213,3.320134,3,-93.169552,2.481026,2025-02-28T01:31:33Z,-0.125825,-1.004997,0.005763,2025-02-28T01:31:32Z,1.340178,-0.417168,0.424792,2025-02-28T01:31:32Z
152,258.242511,0.725728,14.710254,44.940094,285.652511,0.742213,3.237626,3,-93.169552,3.978731,2025-02-28T01:31:34Z,-0.125649,-1.003323,-0.006691,2025-02-28T01:31:33Z,1.184882,-0.330793,0.326435,2025-02-28T01:31:33Z
153,258.45479,0.676927,10.354915,44.940149,285.86479,0.742213,3.237962,3,-93.169551,5.296653,2025-02-28T01:31:35Z,-0.168116,-0.966606,-0.017795,2025-02-28T01:31:34Z,0.915242,-0.025185,0.307317,2025-02-28T01:31:34Z
154,258.168412,0.684467,8.844385,44.94021,285.578412,0.485298,3.169186,3,-93.16955,6.242906,2025-02-28T01:31:35Z,-0.196441,-0.961412,-0.021665,2025-02-28T01:31:35Z,0.889356,-0.041674,0.299764,2025-02-28T01:31:35Z
155,258.026311,0.694189,7.840242,44.940277,285.436311,0.485298,3.087483,3,-93.169549,7.159996,2025-02-28T01:31:36Z,-0.235785,-0.987889,-0.050508,2025-02-28T01:31:36Z,0.461982,-0.288094,-0.029392,2025-02-28T01:31:36Z
156,258.042211,0.695085,7.318677,44.940346,285.452211,0.485298,5.189031,3,-93.169549,7.694089,2025-02-28T01:31:37Z,-0.27002,-0.964907,-0.062966,2025-02-28T01:31:37Z,-0.032836,-0.012083,-0.126212,2025-02-28T01:31:37Z
157,257.749419,0.694502,7.257798,44.940417,285.159418,0.485298,5.318237,3,-93.169548,7.891708,2025-02-28T01:31:38Z,-0.221459,-0.967271,-0.044734,2025-02-28T01:31:38Z,0.430506,-0.049383,-0.020518,2025-02-28T01:31:38Z
158,257.239194,0.677,7.248514,44.940496,284.649194,0.485298,6.03273,3,-93.169547,8.583498,2025-02-28T01:31:39Z,-0.208867,-0.973807,-0.036598,2025-02-28T01:31:39Z,0.529993,-0.09496,0.057387,2025-02-28T01:31:39Z
159,257.146101,0.700592,7.255162,44.940577,284.556101,0.485298,5.996865,3,-93.169546,9.042977,2025-02-28T01:31:40Z,-0.281665,-0.956743,-0.061548,2025-02-28T01:31:40Z,-0.233924,0.101247,-0.101992,2025-02-28T01:31:40Z
160,257.262734,0.694642,7.25868,44.940658,284.672734,0.187596,5.901004,3,-93.169546,9.051841,2025-02-28T01:31:41Z,-0.288967,-0.95602,-0.074433,2025-02-28T01:31:41Z,-0.287543,0.068065,-0.155045,2025-02-28T01:31:41Z
161,257.133135,0.686681,7.258824,44.940739,284.543135,0.187596,5.964927,3,-93.169545,8.975442,2025-02-28T01:31:42Z,-0.282408,-0.954297,-0.077432,2025-02-28T01:31:42Z,-0.303483,0.113599,-0.218732,2025-02-28T01:31:42Z
162,257.306655,0.716606,7.257802,44.940816,284.716655,0.187596,5.686514,3,-93.169545,8.807556,2025-02-28T01:31:43Z,-0.272937,-0.940052,-0.034406,2025-02-28T01:31:43Z,-0.081075,0.259608,0.0908,2025-02-28T01:31:43Z
163,257.350045,0.684972,7.257082,44.940893,284.760045,359.642792,5.44351,3,-93.169546,8.719609,2025-02-28T01:31:44Z,-0.310445,-0.957245,-0.069465,2025-02-28T01:31:44Z,-0.491897,0.036092,-0.240856,2025-02-28T01:31:44Z
164,257.303651,0.696059,7.258544,44.940967,284.713651,359.642792,5.59627,3,-93.169546,8.548875,2025-02-28T01:31:45Z,-0.3636,-0.930486,-0.073024,2025-02-28T01:31:45Z,-1.004025,0.345404,-0.257605,2025-02-28T01:31:45Z
165,257.136649,0.687207,7.25882,44.941037,284.546649,359.642792,5.264349,3,-93.169547,7.933147,2025-02-28T01:31:46Z,-0.411985,-0.913609,-0.085422,2025-02-28T01:31:46Z,-1.329993,0.454804,-0.411039,2025-02-28T01:31:46Z
166,256.895883,0.678527,8.314742,44.94109,284.305883,359.642792,5.06754,3,-93.169547,6.606679,2025-02-28T01:31:47Z,-0.319357,-0.947424,-0.070805,2025-02-28T01:31:47Z,-0.435427,0.116949,-0.205284,2025-02-28T01:31:47Z
167,256.990647,0.696686,9.343908,44.941138,284.400647,2.630802,4.884019,3,-93.169547,6.041389,2025-02-28T01:31:48Z,-0.276073,-0.954904,-0.071489,2025-02-28T01:31:48Z,0.04787,0.037201,-0.200268,2025-02-28T01:31:48Z
168,256.532042,0.686484,9.025371,44.941195,283.942042,2.630802,5.145839,3,-93.169543,6.145839,2025-02-28T01:31:49Z,-0.269044,-0.950688,-0.072319,2025-02-28T01:31:49Z,0.094393,0.085264,-0.223529,2025-02-28T01:31:49Z
169,256.699434,2.1515590000000002,29.113827,44.941248,284.109434,2.630802,4.730582,3,-93.16954,5.987985,2025-02-28T01:31:50Z,-0.311567,-0.962946,-0.059657,2025-02-28T01:31:50Z,-0.234097,-0.087955,-0.059479,2025-02-28T01:31:50Z
170,255.670911,2.490261,29.293794,44.941302,283.080911,2.630802,2.391774,3,-93.169536,5.549334,2025-02-28T01:31:51Z,-0.327641,-0.928579,-0.065857,2025-02-28T01:31:51Z,-0.527188,0.326654,-0.122891,2025-02-28T01:31:51Z
171,256.188815,2.296004,36.757893,44.941347,283.598815,2.630802,2.335806,3,-93.169534,4.925434,2025-02-28T01:31:52Z,-0.374176,-0.935846,-0.070484,2025-02-28T01:31:52Z,-0.716737,0.150734,-0.136235,2025-02-28T01:31:52Z
172,256.173346,2.356101,46.596014,44.941383,283.583346,2.630802,2.380089,3,-93.169531,4.045296,2025-02-28T01:31:53Z,-0.408808,-0.918272,-0.076835,2025-02-28T01:31:53Z,-1.194005,0.377415,-0.281678,2025-02-28T01:31:53Z
173,256.147379,2.610215,72.782833,44.941406,283.557379,2.630802,2.337857,3,-93.16953,2.676446,2025-02-28T01:31:54Z,-0.412113,-0.920777,-0.087087,2025-02-28T01:31:54Z,-1.108496,0.315384,-0.331316,2025-02-28T01:31:54Z
174,255.981121,3.339069,180,44.941412,283.391121,356.735352,2.398864,3,-93.169563,1.145552,2025-02-28T01:31:55Z,-0.358939,-0.930796,-0.076936,2025-02-28T01:31:55Z,-0.464707,0.172341,-0.174684,2025-02-28T01:31:55Z
175,NA,NA,NA,NA,NA,NA,NA,NA,NA,NA,NA,-0.329836,-0.941154,-0.072902,2025-02-28T01:31:56Z,-0.13351,0.059272,-0.109125,2025-02-28T01:31:56Z
