seconds_elapsed,location_altitude,location_speedAccuracy,location_bearingAccuracy,location_latitude,location_altitudeAboveMeanSeaLevel,location_bearing,location_horizontalAccuracy,location_verticalAccuracy,location_longitude,location_speed,location_local_time,accelerometerUncalibrated_z,accelerometerUncalibrated_y,accelerometerUncalibrated_x,accelerometerUncalibrated_local_time,accelerometer_z,accelerometer_y,accelerometer_x,accelerometer_local_time
0,259.851913,-1,-1,44.942579,287.261913,-1,71.971495,3.030459,-93.166851,-1,2025-02-28T01:35:22Z,-0.259698,-0.961989,0.024308,2025-02-28T01:35:22Z,-0.385701,0.118702,0.001352,2025-02-28T01:35:22Z
1,261.108521,1.49,9.44292,44.94174,288.51852,188.085938,23.65553,4,-93.167116,10.27,2025-02-28T01:35:23Z,-0.238926,-0.964356,0.017375,2025-02-28T01:35:23Z,-0.159764,0.10077,-0.021471,2025-02-28T01:35:23Z
2,260.796875,1.56,7.837222,44.94165,288.206875,187.03125,3.670949,4,-93.167131,9.94,2025-02-28T01:35:24Z,-0.239557,-0.961353,0.014772,2025-02-28T01:35:24Z,-0.042587,0.101526,-0.029207,2025-02-28T01:35:24Z
3,260.401733,1.46,6.743227,44.941547,287.811733,182.460938,3.535534,3,-93.167133,10.27,2025-02-28T01:35:25Z,-0.27207,-0.954975,0.015914,2025-02-28T01:35:25Z,-0.383885,0.1698,-0.03194,2025-02-28T01:35:25Z
4,261.483032,2.14,5.549499,44.941413,288.893032,181.757812,3.535534,3,-93.167135,11.37,2025-02-28T01:35:26Z,-0.286667,-0.965839,0.026109,2025-02-28T01:35:26Z,-0.477324,0.050205,0.022029,2025-02-28T01:35:26Z
5,261.287415,1.83,5.189729,44.941296,288.697414,181.217926,3.535534,3,-93.16713,12.96,2025-02-28T01:35:27Z,-0.302194,-0.930038,0.009581,2025-02-28T01:35:27Z,-0.449188,0.39344,-0.120086,2025-02-28T01:35:27Z
6,260.827393,0.99,4.265652,44.941177,288.237392,181.253586,3.535534,3,-93.167124,12.96,2025-02-28T01:35:28Z,-0.300272,-0.983598,0.039932,2025-02-28T01:35:28Z,-0.591781,-0.17556,-0.187483,2025-02-28T01:35:28Z
7,261.907104,0.79,4.048448,44.94106,289.317104,181.253586,3.535534,3,-93.167123,12.83,2025-02-28T01:35:29Z,-0.304038,-0.936015,0.024364,2025-02-28T01:35:29Z,-0.537328,0.328868,-0.17745,2025-02-28T01:35:29Z
8,261.998657,1.69,5.767734,44.940945,289.408657,180.861191,3.535534,3,-93.167121,12.72,2025-02-28T01:35:30Z,-0.295464,-0.94711,0.021657,2025-02-28T01:35:30Z,-0.429008,0.177318,-0.133691,2025-02-28T01:35:30Z
9,261.93103,1.04,4.565968,44.940837,289.34103,180.861191,3.535534,3,-93.167126,11.52,2025-02-28T01:35:31Z,-0.322452,-0.950194,0.008228,2025-02-28T01:35:31Z,-0.667434,0.160744,-0.221601,2025-02-28T01:35:31Z
10,262.297852,1.27,5.780847,44.940738,289.707851,180.112579,3.535534,3,-93.167128,11.52,2025-02-28T01:35:32Z,-0.337806,-0.92709,0.003395,2025-02-28T01:35:32Z,-0.754351,0.371859,-0.21781,2025-02-28T01:35:32Z
11,262.795288,0.9,5.031767,44.940641,290.205288,180.112579,3.535534,3,-93.167131,11.01,2025-02-28T01:35:33Z,-0.367761,-0.939414,-0.009392,2025-02-28T01:35:33Z,-1.028906,0.247365,-0.272162,2025-02-28T01:35:33Z
12,262.580933,0.68,4.65232,44.940551,289.990932,180.112579,3.535534,3,-93.167132,10.46,2025-02-28T01:35:34Z,-0.360093,-0.922458,-0.00447,2025-02-28T01:35:34Z,-0.828779,0.378454,-0.241276,2025-02-28T01:35:34Z
13,262.580941,0.68,7.258975,44.940456,289.990941,180.112579,4.748652,4.029364,-93.167133,10.46,2025-02-28T01:35:35Z,-0.40262,-0.938957,-9.32e-4,2025-02-28T01:35:35Z,-1.198644,0.201124,-0.255022,2025-02-28T01:35:35Z
14,262.796759,0.68,7.258975,44.94039,290.206759,180.112579,4.748652,4.029364,-93.167131,8.52,2025-02-28T01:35:36Z,-0.44224,-0.904672,-0.021261,2025-02-28T01:35:36Z,-1.500383,0.512599,-0.445572,2025-02-28T01:35:36Z
15,262.924933,1.5,13.196819,44.940301,290.334933,179.591095,4.748652,4.029364,-93.167125,9.21,2025-02-28T01:35:37Z,-0.441955,-0.913411,-0.0247,2025-02-28T01:35:37Z,-1.391649,0.395368,-0.428288,2025-02-28T01:35:37Z
16,262.354071,1.31,12.458601,44.940252,289.764071,179.591095,4.748652,4.029364,-93.16712,8.52,2025-02-28T01:35:38Z,-0.412519,-0.914393,-0.019077,2025-02-28T01:35:38Z,-0.97198,0.344688,-0.289595,2025-02-28T01:35:38Z
17,262.677615,0.36,8.213579,44.940243,290.087615,179.591095,4.748652,4.029364,-93.167121,6.15,2025-02-28T01:35:39Z,-0.389425,-0.928634,-0.018347,2025-02-28T01:35:39Z,-0.603326,0.157519,-0.178723,2025-02-28T01:35:39Z
18,262.455078,0.308016,12.234334,44.940257,289.865078,179.591095,4.748652,4.029364,-93.167123,2.04,2025-02-28T01:35:40Z,-0.357505,-0.935075,-0.013967,2025-02-28T01:35:40Z,-0.205549,0.066321,-0.076879,2025-02-28T01:35:40Z
19,262.444947,0.308016,12.234334,44.940245,289.854947,179.591095,4.748652,4.029364,-93.167126,2.04,2025-02-28T01:35:41Z,-0.32762,-0.943705,-0.002572,2025-02-28T01:35:41Z,0.065598,-0.014459,0.039126,2025-02-28T01:35:41Z
20,262.685791,0.93,83.72942,44.940252,290.095791,179.591095,4.748652,4.029364,-93.167125,0.9,2025-02-28T01:35:42Z,-0.265739,-0.961678,0.014865,2025-02-28T01:35:42Z,0.642964,-0.176007,0.197916,2025-02-28T01:35:42Z
21,262.78894,1.106854,180,44.940262,290.19894,179.591095,4.748652,4.029364,-93.167124,0,2025-02-28T01:35:43Z,-0.268897,-0.960846,0.014318000000000001,2025-02-28T01:35:43Z,0.603238,-0.169028,0.186561,2025-02-28T01:35:43Z
22,263.060181,1.106854,180,44.940264,290.470181,179.591095,4.748652,4.029364,-93.167125,0,2025-02-28T01:35:44Z,-0.268262,-0.961126,0.014181,2025-02-28T01:35:44Z,0.591344,-0.163311,0.179294,2025-02-28T01:35:44Z
23,263.618958,1.106854,180,44.940265,291.028957,179.591095,4.748652,4.029364,-93.167125,0,2025-02-28T01:35:45Z,-0.268925,-0.961031,0.014653,2025-02-28T01:35:45Z,0.561748,-0.154349,0.175285,2025-02-28T01:35:45Z
24,263.80188,1.106854,180,44.940269,291.21188,179.591095,4.748652,4.029364,-93.167127,0,2025-02-28T01:35:46Z,-0.268693,-0.961203,0.014368,2025-02-28T01:35:46Z,0.53298,-0.145354,0.162027,2025-02-28T01:35:46Z
25,263.976807,1.106854,180,44.940269,291.386807,179.591095,4.748652,4.029364,-93.167128,0,2025-02-28T01:35:47Z,-0.26887,-0.960919,0.014115,2025-02-28T01:35:47Z,0.495663,-0.130476,0.148241,2025-02-28T01:35:47Z
26,263.799316,1.106854,180,44.940268,291.209316,179.591095,4.748652,4.029364,-93.16713,0,2025-02-28T01:35:48Z,-0.268741,-0.960881,0.014416,2025-02-28T01:35:48Z,0.46593,-0.119703,0.141189,2025-02-28T01:35:48Z
27,263.873657,1.106854,180,44.940268,291.283657,179.591095,4.748652,4.029364,-93.167131,0,2025-02-28T01:35:49Z,-0.268653,-0.961188,0.014364,2025-02-28T01:35:49Z,0.437746,-0.113083,0.131678,2025-02-28T01:35:49Z
28,263.970825,1.106854,180,44.940267,291.380825,179.591095,4.748652,4.029364,-93.167132,0,2025-02-28T01:35:50Z,-0.268975,-0.960993,0.014261,2025-02-28T01:35:50Z,0.40622,-0.101875,0.121444,2025-02-28T01:35:50Z
29,263.795898,1.118034,180,44.940267,291.205898,179.591095,4.748652,4.029364,-93.167133,0,2025-02-28T01:35:51Z,-0.268743,-0.96115,0.014443,2025-02-28T01:35:51Z,0.381023,-0.094511,0.114587,2025-02-28T01:35:51Z
30,263.795898,1.106854,180,44.940267,291.205898,179.591095,4.748652,4.029364,-93.167133,0,2025-02-28T01:35:52Z,-0.268468,-0.961117,0.014317,2025-02-28T01:35:52Z,0.35726,-0.085706,0.104933,2025-02-28T01:35:52Z
31,263.795898,1.106854,180,44.940267,291.205898,179.591095,4.748652,4.029364,-93.167133,0,2025-02-28T01:35:53Z,-0.268802,-0.961015,0.014232,2025-02-28T01:35:53Z,0.329921,-0.07707,0.0951,2025-02-28T01:35:53Z
32,263.795898,1.106854,180,44.940267,291.205898,179.591095,4.748652,4.029364,-93.167133,0,2025-02-28T01:35:54Z,-0.268454,-0.961079,0.01431,2025-02-28T01:35:54Z,0.308824,-0.069997,0.088197,2025-02-28T01:35:54Z
33,263.795898,0.308016,180,44.940267,291.205898,179.591095,3.391002,3,-93.167133,0,2025-02-28T01:35:55Z,-0.268659,-0.961062,0.014217,2025-02-28T01:35:55Z,0.281775,-0.062749,0.082536,2025-02-28T01:35:55Z
34,263.795898,0.308016,180,44.940267,291.205898,179.591095,3.796481,3,-93.167133,0,2025-02-28T01:35:56Z,-0.268644,-0.961021,0.014471,2025-02-28T01:35:56Z,0.266705,-0.056256,0.073335,2025-02-28T01:35:56Z
35,263.795898,0.308016,180,44.940267,291.205898,179.591095,4.029905,3,-93.167133,0,2025-02-28T01:35:57Z,-0.268602,-0.961067,0.01419,2025-02-28T01:35:57Z,0.2446,-0.05098,0.070199,2025-02-28T01:35:57Z
36,263.795898,0.308016,180,44.940267,291.205898,179.591095,3.891204,3,-93.167133,0,2025-02-28T01:35:58Z,-0.26861,-0.961045,0.014585,2025-02-28T01:35:58Z,0.229611,-0.045296,0.062058,2025-02-28T01:35:58Z
37,263.795898,0.308016,180,44.940267,291.205898,179.591095,3.696929,3,-93.167133,0,2025-02-28T01:35:59Z,-0.253698,-0.965668,0.018835,2025-02-28T01:35:59Z,0.342837,-0.081184,0.097387,2025-02-28T01:35:59Z
38,263.732007,0.669525,180,44.940254,291.142007,179.591095,3.546319,3,-93.16713,0.009195,2025-02-28T01:36:00Z,-0.242433,-0.96801,0.022539,2025-02-28T01:36:00Z,0.416161,-0.093179,0.118125,2025-02-28T01:36:00Z
39,263.335105,0.882906,180,44.940247,290.745105,179.591095,3.32147,3,-93.16712,0,2025-02-28T01:36:01Z,-0.245032,-0.968048,0.02352,2025-02-28T01:36:01Z,0.358052,-0.084082,0.113826,2025-02-28T01:36:01Z
40,263.335105,0.895521,180,44.940247,290.745105,179.591095,3.132689,3,-93.16712,0,2025-02-28T01:36:02Z,-0.27071,-0.959792,0.012034,2025-02-28T01:36:02Z,0.074063,0.006367,0.009566,2025-02-28T01:36:02Z
41,263.103601,0.67702,55.191972,44.94023,290.513601,179.591095,2.991103,3,-93.167122,0.984724,2025-02-28T01:36:03Z,-0.242256,-0.968317,0.020128,2025-02-28T01:36:03Z,0.316662,-0.066766,0.08892,2025-02-28T01:36:03Z
42,263.186137,0.762656,72.424708,44.940227,290.596137,179.591095,2.88098,3,-93.167124,0.658106,2025-02-28T01:36:04Z,-0.209529,-0.978238,0.029567,2025-02-28T01:36:04Z,0.607236,-0.155461,0.178883,2025-02-28T01:36:04Z
43,263.987761,0.787545,180,44.94023,291.397761,112.887583,2.792882,3,-93.167114,0.523409,2025-02-28T01:36:05Z,-0.101873,-1.009171,0.064348,2025-02-28T01:36:05Z,1.606139,-0.443312,0.493616,2025-02-28T01:36:05Z
44,263.369426,0.638004,49.52845,44.940211,290.779426,179.591095,2.763138,3,-93.167124,1.037202,2025-02-28T01:36:06Z,-0.098814,-1.004895,0.063934,2025-02-28T01:36:06Z,1.558666,-0.380923,0.457341,2025-02-28T01:36:06Z
45,263.295117,0.675922,13.933028,44.940159,290.705117,179.591095,2.719191,3,-93.16712,3.708141,2025-02-28T01:36:07Z,-0.123706,-0.999036,0.048274,2025-02-28T01:36:07Z,1.224042,-0.299013,0.362183,2025-02-28T01:36:07Z
46,263.503993,0.662513,8.819682,44.940096,290.913993,179.591095,2.663868,3,-93.167116,6.049377,2025-02-28T01:36:08Z,-0.143464,-0.990466,0.030863,2025-02-28T01:36:08Z,0.959054,-0.189084,0.270388,2025-02-28T01:36:08Z
47,263.767232,0.65026,7.398793,44.940033,291.177232,179.591095,2.616449,3,-93.167115,7.121662,2025-02-28T01:36:09Z,-0.134186,-0.993731,0.056699,2025-02-28T01:36:09Z,1.091579,-0.247008,0.41027,2025-02-28T01:36:09Z
48,263.759969,0.647848,7.258891,44.939962,291.169968,180.917892,2.53445,3,-93.167121,7.939322,2025-02-28T01:36:10Z,-0.162653,-1.005584,0.05496,2025-02-28T01:36:10Z,0.705568,-0.320074,0.159869,2025-02-28T01:36:10Z
49,263.399227,0.651692,7.255142,44.93987,290.809227,180.917892,2.401887,3,-93.167119,9.510803,2025-02-28T01:36:11Z,-0.168417,-0.986973,0.0645,2025-02-28T01:36:11Z,0.445067,-0.128368,0.180198,2025-02-28T01:36:11Z
50,263.915003,0.653961,7.255892,44.93977,291.325003,180.917892,2.25688,3,-93.167118,10.739843,2025-02-28T01:36:12Z,-0.190832,-0.983136,0.042648,2025-02-28T01:36:12Z,0.21081,-0.064855,0.064226,2025-02-28T01:36:12Z
51,263.790385,0.647933,7.258521,44.939665,291.200385,180.917892,2.147801,3,-93.167119,11.620748,2025-02-28T01:36:13Z,-0.190338,-0.981898,0.027456,2025-02-28T01:36:13Z,0.10894,-0.026161,0.054238,2025-02-28T01:36:13Z
52,263.873526,0.654042,7.258368,44.939556,291.283526,180.434224,2.078643,3,-93.167122,12.02712,2025-02-28T01:36:14Z,-0.195778,-0.982577,0.023373,2025-02-28T01:36:14Z,0.059699,-0.033015,0.041089,2025-02-28T01:36:14Z
53,264.013206,0.648616,7.258638,44.939436,291.423206,180.438817,2.040374,3,-93.167122,12.786675,2025-02-28T01:36:15Z,-0.207235,-0.97818,0.015611,2025-02-28T01:36:15Z,-0.073468,0.014891,-0.012517,2025-02-28T01:36:15Z
54,264.533369,0.651617,7.257361,44.939311,291.943369,180.071553,2.019942,3,-93.167121,13.540014,2025-02-28T01:36:16Z,-0.22926,-0.968486,0.014353,2025-02-28T01:36:16Z,-0.293075,0.10979,-0.06314,2025-02-28T01:36:16Z
55,264.625576,0.649922,7.258355,44.93918,292.035576,179.52285,2.00962,3,-93.16712,14.190494,2025-02-28T01:36:17Z,-0.267368,-0.959032,-0.003876,2025-02-28T01:36:17Z,-0.613644,0.192662,-0.191663,2025-02-28T01:36:17Z
56,264.808791,0.650639,7.257986,44.939054,292.218791,178.942095,2.004572,3,-93.167118,14.214972,2025-02-28T01:36:18Z,-0.260938,-0.963966,-0.014222,2025-02-28T01:36:18Z,-0.497239,0.133288,-0.266923,2025-02-28T01:36:18Z
57,264.849116,0.650715,7.258118,44.938932,292.259115,179.868651,2.002178,3,-93.167121,13.858814,2025-02-28T01:36:19Z,-0.258757,-0.96542,-0.002686,2025-02-28T01:36:19Z,-0.414801,0.10524,-0.180388,2025-02-28T01:36:19Z
58,265.50959,0.691354,7.254748,44.938813,292.91959,180.472366,2.001048,3,-93.167111,13.299827,2025-02-28T01:36:20Z,-0.243372,-0.960722,0.005704,2025-02-28T01:36:20Z,-0.255836,0.150562,-0.016511,2025-02-28T01:36:20Z
59,265.314248,0.655253,7.25813,44.938675,292.724247,180.21904,2.219789,3,-93.167124,14.302756,2025-02-28T01:36:21Z,-0.250628,-0.966075,-0.005394,2025-02-28T01:36:21Z,-0.305791,0.093537,-0.09402,2025-02-28T01:36:21Z
60,265.177215,0.650451,7.258957,44.938548,292.587215,180.21904,2.307871,3,-93.167123,14.286246,2025-02-28T01:36:22Z,-0.242956,-0.967929,-0.00374,2025-02-28T01:36:22Z,-0.208868,0.070483,-0.068694,2025-02-28T01:36:22Z
61,265.139737,0.651077,7.258967,44.938418,292.549737,179.689194,2.144511,3,-93.167122,14.413874,2025-02-28T01:36:23Z,-0.243002,-0.969946,-5.94e-4,2025-02-28T01:36:23Z,-0.161818,0.029515,-0.060264,2025-02-28T01:36:23Z
62,265.33092,0.647106,7.25876,44.938284,292.74092,179.689194,2.06693,3,-93.16712,14.714905,2025-02-28T01:36:24Z,-0.248809,-0.965888,5.29e-4,2025-02-28T01:36:24Z,-0.218007,0.089103,-0.043759,2025-02-28T01:36:24Z
63,265.3339,0.644252,7.258877,44.938149,292.7439,179.070343,2.030486,3,-93.167119,14.962987,2025-02-28T01:36:25Z,-0.264399,-0.95798,0.003279,2025-02-28T01:36:25Z,-0.305013,0.132636,-0.054161,2025-02-28T01:36:25Z
64,265.326445,0.636457,7.258934,44.938014,292.736445,180.672806,2.013844,3,-93.167121,15.036614,2025-02-28T01:36:26Z,-0.264369,-0.944753,-0.008645,2025-02-28T01:36:26Z,-0.273562,0.270271,-0.131974,2025-02-28T01:36:26Z
65,265.44505,0.636003,7.258897,44.937879,292.85505,181.013901,2.006273,3,-93.167123,15.012304,2025-02-28T01:36:27Z,-0.26704,-0.929409,-0.007457,2025-02-28T01:36:27Z,-0.134074,0.372022,-0.098796,2025-02-28T01:36:27Z
66,265.3959,0.639506,7.258969,44.937745,292.8059,181.013901,2.163001,3,-93.167126,14.900978,2025-02-28T01:36:28Z,-0.27799,-0.954162,-0.005267,2025-02-28T01:36:28Z,-0.159989,0.107455,-0.09732,2025-02-28T01:36:28Z
67,265.184956,0.633412,7.258513,44.937608,292.594956,180.398483,2.075774,3,-93.16713,15.090578,2025-02-28T01:36:29Z,-0.279069,-0.972177,-9.24e-4,2025-02-28T01:36:29Z,-0.137567,-0.078287,-0.085598,2025-02-28T01:36:29Z
68,265.059995,0.630776,7.258653,44.93747,292.469995,180.398483,2.228664,3,-93.167132,15.264061,2025-02-28T01:36:30Z,-0.285004,-0.953857,0.007923,2025-02-28T01:36:30Z,-0.149206,0.087442,-0.083954,2025-02-28T01:36:30Z
69,264.777901,0.62713,7.257683,44.93733,292.187901,180.398483,3.129415,3,-93.167133,15.35514,2025-02-28T01:36:31Z,-0.288938,-0.967094,0.020259,2025-02-28T01:36:31Z,-0.188228,-0.042801,0.007722,2025-02-28T01:36:31Z
70,264.581875,0.628083,7.258274,44.937189,291.991875,180,2.500985,3,-93.167136,15.537999,2025-02-28T01:36:32Z,-0.277431,-0.952938,0.0039,2025-02-28T01:36:32Z,-0.156024,0.119772,0.059359,2025-02-28T01:36:32Z
71,264.625599,0.63499,7.25883,44.937049,292.035599,178.838928,2.328546,3,-93.167135,15.590976,2025-02-28T01:36:33Z,-0.286094,-0.953621,-0.008442,2025-02-28T01:36:33Z,-0.183103,0.097138,0.003036,2025-02-28T01:36:33Z
72,264.323718,0.628957,7.257786,44.936909,291.733718,179.416748,2.281454,3,-93.167137,15.514048,2025-02-28T01:36:34Z,-0.271607,-0.951717,-0.014173,2025-02-28T01:36:34Z,-0.043964,0.116802,-0.073978,2025-02-28T01:36:34Z
73,264.22985,0.630753,7.258269,44.936767,291.63985,179.416748,2.277893,3,-93.167136,15.573779,2025-02-28T01:36:35Z,-0.287662,-0.970785,-0.008586,2025-02-28T01:36:35Z,-0.175521,-0.077182,-0.056064,2025-02-28T01:36:35Z
74,263.944739,0.62929,7.25807,44.936626,291.354738,180.22464,2.266589,3,-93.167138,15.693596,2025-02-28T01:36:36Z,-0.287428,-0.954005,-0.006864,2025-02-28T01:36:36Z,-0.159057,0.07693,-0.035015,2025-02-28T01:36:36Z
75,264.164145,0.628886,7.25897,44.936481,291.574145,180,2.115237,3,-93.167134,15.90282,2025-02-28T01:36:37Z,-0.312203,-0.947945,-0.024964,2025-02-28T01:36:37Z,-0.390691,0.146124,-0.225574,2025-02-28T01:36:37Z
76,263.517246,0.768617,7.257575,44.936342,290.927246,180.705322,2.174989,3,-93.167135,15.564583,2025-02-28T01:36:38Z,-0.323831,-0.943938,-0.023523,2025-02-28T01:36:38Z,-0.448065,0.17135,-0.182083,2025-02-28T01:36:38Z
77,263.293029,0.646436,7.257545,44.936208,290.703029,180,2.153417,3,-93.167137,15.134189,2025-02-28T01:36:39Z,-0.309391,-0.947508,-0.023551,2025-02-28T01:36:39Z,-0.336919,0.127152,-0.136883,2025-02-28T01:36:39Z
78,263.370089,0.636436,7.258911,44.936074,290.780089,180.214713,2.069192,3,-93.167138,14.954259,2025-02-28T01:36:40Z,-0.300586,-0.935948,-0.027959,2025-02-28T01:36:40Z,-0.245357,0.246274,-0.080798,2025-02-28T01:36:40Z
79,263.005138,0.64076,7.258244,44.935946,290.415138,180.2006,2.188899,3,-93.167138,14.539862,2025-02-28T01:36:41Z,-0.283425,-0.963654,-0.028281,2025-02-28T01:36:41Z,-0.030208,-0.03844,-0.109897,2025-02-28T01:36:41Z
80,262.891706,0.644607,7.258623,44.935816,290.301706,180.850742,2.08796,3,-93.16714,14.411316,2025-02-28T01:36:42Z,-0.284379,-0.965482,-0.001484,2025-02-28T01:36:42Z,-0.003656,-0.065732,0.060025,2025-02-28T01:36:42Z
81,262.463017,0.641945,7.257124,44.935685,289.873017,180.533876,2.069823,3,-93.16714,14.521492,2025-02-28T01:36:43Z,-0.287922,-0.954336,-0.00871,2025-02-28T01:36:43Z,-0.021768,0.038453,0.017325,2025-02-28T01:36:43Z
82,263.784645,0.656615,7.248141,44.935593,291.194645,183.394523,2.034975,3,-93.167154,11.985574,2025-02-28T01:36:44Z,-0.303558,-0.950907,-0.015603,2025-02-28T01:36:44Z,-0.159148,0.067592,-0.078331,2025-02-28T01:36:44Z
83,263.584377,0.809018,7.256779,44.935508,290.994377,180.110107,3.352937,3,-93.167135,10.189834,2025-02-28T01:36:45Z,-0.301935,-0.948047,-0.023183,2025-02-28T01:36:45Z,-0.128959,0.091164,-0.13746,2025-02-28T01:36:45Z
84,263.053673,0.668655,7.258786,44.935313,290.46367299999997,180.110107,2.439074,3,-93.167135,14.920792,2025-02-28T01:36:46Z,-0.337936,-0.942946,-0.02018,2025-02-28T01:36:46Z,-0.459948,0.134033,-0.06854,2025-02-28T01:36:46Z
85,262.831606,0.655359,7.25765,44.935186,290.241606,180,2.205926,3,-93.167155,14.712427,2025-02-28T01:36:47Z,-0.318616,-0.945762,-0.018445,2025-02-28T01:36:47Z,-0.285499,0.110782,-0.038983,2025-02-28T01:36:47Z
86,262.881755,0.651174,7.25881,44.935073,290.291755,180,2.177313,3,-93.167148,13.305516,2025-02-28T01:36:48Z,-0.303979,-0.946983,-0.019003,2025-02-28T01:36:48Z,-0.107093,0.088292,-0.056113,2025-02-28T01:36:48Z
87,262.594428,0.658672,7.258129,44.93496,290.004428,180,2.087479,3,-93.167155,12.698655,2025-02-28T01:36:49Z,-0.339645,-0.94414,-0.017813,2025-02-28T01:36:49Z,-0.407578,0.097303,-0.055541,2025-02-28T01:36:49Z
88,262.900886,0.658521,7.258928,44.934843,290.310886,180,2.481723,3,-93.167151,12.542943,2025-02-28T01:36:50Z,-0.388804,-0.920037,-0.030742,2025-02-28T01:36:50Z,-0.871481,0.334923,-0.199009,2025-02-28T01:36:50Z
89,262.520556,0.671574,7.258673,44.934737,289.930556,179.267487,2.246112,3,-93.167144,11.80344,2025-02-28T01:36:51Z,-0.392641,-0.929485,-0.055872,2025-02-28T01:36:51Z,-0.821951,0.203638,-0.391497,2025-02-28T01:36:51Z
90,262.270507,0.665382,7.256644,44.934644,289.680506,179.267487,2.226772,3,-93.167145,10.745562,2025-02-28T01:36:52Z,-0.384368,-0.92456,-0.023631,2025-02-28T01:36:52Z,-0.654381,0.237446,-0.178134,2025-02-28T01:36:52Z
91,262.456649,0.656984,7.258812,44.93456,289.866648,180,2.127207,3,-93.167145,9.726054,2025-02-28T01:36:53Z,-0.39014,-0.928865,-0.018484,2025-02-28T01:36:53Z,-0.644986,0.16693,-0.15305,2025-02-28T01:36:53Z
92,NA,NA,NA,NA,NA,NA,NA,NA,NA,NA,NA,-0.427477,-0.911362,-0.02648,2025-02-28T01:36:54Z,-0.863223,0.286808,-0.256331,2025-02-28T01:36:54Z
