seconds_elapsed,location_altitude,location_speedAccuracy,location_bearingAccuracy,location_latitude,location_altitudeAboveMeanSeaLevel,location_bearing,location_horizontalAccuracy,location_verticalAccuracy,location_longitude,location_speed,location_local_time,accelerometerUncalibrated_z,accelerometerUncalibrated_y,accelerometerUncalibrated_x,accelerometerUncalibrated_local_time,accelerometer_z,accelerometer_y,accelerometer_x,accelerometer_local_time
0,265.477633,-1,-1,44.941308,292.887633,-1,618.298806,3,-93.166786,-1,2025-02-28T01:05:48Z,-0.200272,-0.987745,0.026831,2025-02-28T01:05:48Z,0.670675,-0.249768,0.18609,2025-02-28T01:05:48Z
1,256.41333,2.5,46.301644,44.941552,283.82333,356.484375,6.530797,8,-93.166924,7.01,2025-02-28T01:05:49Z,-0.21255,-0.99075,0.016656,2025-02-28T01:05:49Z,0.380732,-0.202976,0.115008,2025-02-28T01:05:49Z
2,260.660461,0.97,5.724543,44.941511,288.070461,270,3.716155,3,-93.167138,7.01,2025-02-28T01:05:50Z,-0.250291,-0.950077,-0.004023,2025-02-28T01:05:50Z,-0.036508,0.181035,-0.010084,2025-02-28T01:05:50Z
3,259.244873,0.97,5.435395,44.941514,286.654873,270,3.535534,3,-93.167239,9.05,2025-02-28T01:05:51Z,-0.256609,-0.9436,0.003543,2025-02-28T01:05:51Z,-0.04043,0.23684,0.02715,2025-02-28T01:05:51Z
4,259.319763,0.08,0.525546,44.941515,286.729763,269.296875,3.535534,3,-93.167369,10.1,2025-02-28T01:05:52Z,-0.287054,-0.963697,-8.9e-5,2025-02-28T01:05:52Z,-0.172298,-0.017848,-0.05303,2025-02-28T01:05:52Z
5,259.007446,0.08,0.509184,44.941521,286.417446,268.945312,3.535534,3,-93.167492,10.39,2025-02-28T01:05:53Z,-0.279823,-0.952171,0.026103,2025-02-28T01:05:53Z,-0.164708,0.128951,0.106403,2025-02-28T01:05:53Z
6,258.997498,0.1,0.611269,44.941519,286.407497,268.59375,3.535534,3,-93.167624,10.39,2025-02-28T01:05:54Z,-0.26527,-0.960883,0.018554,2025-02-28T01:05:54Z,0.007518,0.023316,0.055402,2025-02-28T01:05:54Z
7,258.124756,0.18,1.078606,44.94152,285.534756,268.945312,3.535534,3,-93.167763,10.91,2025-02-28T01:05:55Z,-0.24996,-0.969503,2.61e-4,2025-02-28T01:05:55Z,0.101242,-0.039365,-0.087613,2025-02-28T01:05:55Z
8,257.861267,0.57,3.148812,44.941516,285.271267,268.59375,3.535534,3,-93.167913,11.82,2025-02-28T01:05:56Z,-0.254676,-0.959843,8.3e-4,2025-02-28T01:05:56Z,0.089873,0.044898,-0.093643,2025-02-28T01:05:56Z
9,257.795288,0.54,2.752316,44.941514,285.205288,269.296875,3.535534,3,-93.168063,12.78,2025-02-28T01:05:57Z,-0.260375,-0.969795,0.003601,2025-02-28T01:05:57Z,0.010905,-0.040949,-0.032861,2025-02-28T01:05:57Z
10,257.271729,0.19,0.986296,44.941517,284.681728,270.351562,3.535534,3,-93.168225,12.78,2025-02-28T01:05:58Z,-0.273528,-0.953449,5.22e-4,2025-02-28T01:05:58Z,-0.123713,0.111121,-0.045034,2025-02-28T01:05:58Z
11,256.704346,0.09,0.444535,44.941519,284.114346,270,3.535534,3,-93.168387,12.99,2025-02-28T01:05:59Z,-0.295685,-0.952219,0.003004,2025-02-28T01:05:59Z,-0.283952,0.125182,1.27e-4,2025-02-28T01:05:59Z
12,256.704359,0.308016,7.258975,44.941519,284.114359,270.081268,4.748652,4.029364,-93.168551,12.99,2025-02-28T01:06:00Z,-0.281419,-0.957176,-0.022916,2025-02-28T01:06:00Z,-0.193354,0.066411,-0.207157,2025-02-28T01:06:00Z
13,256.348036,0.308016,7.258975,44.94151,283.758036,270.081268,4.748652,4.029364,-93.16872,13.28,2025-02-28T01:06:01Z,-0.276145,-0.960457,-0.016153,2025-02-28T01:06:01Z,-0.152315,0.066484,-0.117947,2025-02-28T01:06:01Z
14,255.272719,1.03,7.258975,44.941525,282.682719,270.081268,4.748652,4.029364,-93.168882,13.31,2025-02-28T01:06:02Z,-0.281331,-0.961304,-0.015051,2025-02-28T01:06:02Z,-0.154805,0.017457,-0.123177,2025-02-28T01:06:02Z
15,254.840285,0.42,7.258975,44.941517,282.250285,270.081268,4.748652,4.029364,-93.169061,13.31,2025-02-28T01:06:03Z,-0.291781,-0.97526,-0.002274,2025-02-28T01:06:03Z,-0.326619,-0.096468,-0.091934,2025-02-28T01:06:03Z
16,254.405594,0.308017,7.258975,44.941519,281.815594,270.155579,4.748652,4.029364,-93.169248,14.12,2025-02-28T01:06:04Z,-0.280748,-0.957661,-0.013733,2025-02-28T01:06:04Z,-0.214323,0.073723,-0.128572,2025-02-28T01:06:04Z
17,254.31569,0.44,7.258975,44.941519,281.725689,270.155579,4.748652,4.029364,-93.169431,14.18,2025-02-28T01:06:05Z,-0.284353,-0.956581,0.00287,2025-02-28T01:06:05Z,-0.298126,0.107881,-0.074105,2025-02-28T01:06:05Z
18,254.287919,1.46,8.136284,44.941523,281.697919,270.155579,4.748652,4.029364,-93.16962,14.54,2025-02-28T01:06:06Z,-0.279653,-0.960644,0.010947,2025-02-28T01:06:06Z,-0.22112,0.055057,-0.066219,2025-02-28T01:06:06Z
19,254.217973,1.11,7.258975,44.941525,281.627972,270.101074,4.748652,4.029364,-93.169798,14.26,2025-02-28T01:06:07Z,-0.296168,-0.951334,0.003677,2025-02-28T01:06:07Z,-0.26882,0.114994,-0.083861,2025-02-28T01:06:07Z
20,254.275285,2.14,12.117465,44.941519,281.685284,270.101074,4.748652,4.029364,-93.169979,14.31,2025-02-28T01:06:08Z,-0.287059,-0.959862,0.020352,2025-02-28T01:06:08Z,-0.206144,0.035776,-0.00202,2025-02-28T01:06:08Z
21,253.828202,1.14,7.258975,44.941527,281.238202,270.101074,4.748652,4.029364,-93.170163,14.46,2025-02-28T01:06:09Z,-0.288395,-0.95355,0.013162,2025-02-28T01:06:09Z,-0.25505,0.112376,-0.014988,2025-02-28T01:06:09Z
22,254.464067,0.37,7.258975,44.941523,281.874067,270.101074,4.748652,4.029364,-93.170352,14.64,2025-02-28T01:06:10Z,-0.292258,-0.954452,0.006443,2025-02-28T01:06:10Z,-0.234094,0.08308,-0.050816,2025-02-28T01:06:10Z
23,253.89058,0.308016,7.258975,44.941524,281.30058,270.101074,4.748652,4.029364,-93.17053,14.46,2025-02-28T01:06:11Z,-0.284822,-0.951613,0.009744,2025-02-28T01:06:11Z,-0.172117,0.11855,-0.087188,2025-02-28T01:06:11Z
24,253.846513,0.308016,7.258975,44.941521,281.256513,270,4.748652,4.029364,-93.170716,14.51,2025-02-28T01:06:12Z,-0.284051,-0.960979,0.004838,2025-02-28T01:06:12Z,-0.155563,0.031944,-0.04836,2025-02-28T01:06:12Z
25,253.354508,0.308016,7.258975,44.941517,280.764508,269.999872,4.748652,4.029364,-93.170897,14.26,2025-02-28T01:06:13Z,-0.253431,-0.95674,-0.004274,2025-02-28T01:06:13Z,0.10053,0.066734,0.008078,2025-02-28T01:06:13Z
26,253.263628,0.5,7.258975,44.941515,280.673628,269.999868,4.748652,4.029364,-93.171091,14.78,2025-02-28T01:06:14Z,-0.247214,-0.965642,0.003525,2025-02-28T01:06:14Z,0.26508,-0.035112,0.035988,2025-02-28T01:06:14Z
27,253.203386,0.78,7.258975,44.941514,280.613386,269.999868,4.748652,4.029364,-93.171286,14.78,2025-02-28T01:06:15Z,-0.258713,-0.970654,0.004359,2025-02-28T01:06:15Z,0.123631,-0.082511,-0.038123,2025-02-28T01:06:15Z
28,253.192767,0.308017,7.258975,44.941506,280.602767,268.945177,4.748652,4.029364,-93.17149,15.11,2025-02-28T01:06:16Z,-0.286278,-0.955506,-0.00584,2025-02-28T01:06:16Z,-0.152105,0.092429,-0.071394,2025-02-28T01:06:16Z
29,253.022053,0.308017,7.258975,44.941511,280.432052,270.052643,4.748652,4.029364,-93.171697,15.54,2025-02-28T01:06:17Z,-0.285453,-0.954745,-0.003888,2025-02-28T01:06:17Z,-0.141054,0.06383,-0.05857,2025-02-28T01:06:17Z
30,252.944477,0.308017,7.258975,44.94151,280.354477,270.052643,4.748652,4.029364,-93.171892,15.61,2025-02-28T01:06:18Z,-0.280012,-0.957719,-0.002267,2025-02-28T01:06:18Z,-0.051062,0.008356,-0.030717,2025-02-28T01:06:18Z
31,252.851765,0.308017,7.258975,44.941512,280.261765,270.052643,4.748652,4.029364,-93.172093,15.61,2025-02-28T01:06:19Z,-0.275716,-0.948386,-0.00112,2025-02-28T01:06:19Z,-0.034167,0.147793,-0.037066,2025-02-28T01:06:19Z
32,254.274879,1.271609,7.258968,44.941505,281.684879,270.068512,2,3,-93.172286,15.683364,2025-02-28T01:06:20Z,-0.29032,-0.969397,0.00218,2025-02-28T01:06:20Z,-0.157393,-0.06982,-0.018009,2025-02-28T01:06:20Z
33,254.15203,1.274322,7.258966,44.941504,281.56203,270.068512,2.016306,3,-93.172489,15.761461,2025-02-28T01:06:21Z,-0.277174,-0.955775,-0.001377,2025-02-28T01:06:21Z,-0.050428,0.067094,-0.012366,2025-02-28T01:06:21Z
34,254.209266,1.275754,7.258972,44.941504,281.619265,270.068512,2.559324,3,-93.17269,15.822047,2025-02-28T01:06:22Z,-0.282878,-0.948552,-0.002438,2025-02-28T01:06:22Z,-0.055802,0.116438,-0.020616,2025-02-28T01:06:22Z
35,254.0459,1.276862,7.258966,44.941506,281.4559,270.068512,2.251019,3,-93.172893,15.86374,2025-02-28T01:06:23Z,-0.298701,-0.960322,-0.008932,2025-02-28T01:06:23Z,-0.189087,-0.010321,-0.112853,2025-02-28T01:06:23Z
36,253.875489,0.658896,7.258655,44.941515,281.285489,270.068512,2.221674,3,-93.173094,15.731827,2025-02-28T01:06:24Z,-0.323123,-0.951031,-0.011672,2025-02-28T01:06:24Z,-0.438106,0.100215,-0.168151,2025-02-28T01:06:24Z
37,253.662497,0.666995,7.258627,44.941518,281.072496,270.068512,2.178743,3,-93.173286,15.319384,2025-02-28T01:06:25Z,-0.320099,-0.937421,-0.014031,2025-02-28T01:06:25Z,-0.398227,0.201126,-0.15749,2025-02-28T01:06:25Z
38,253.583393,0.664383,7.258916,44.941519,280.993393,270.324332,2.080165,3,-93.173475,15.056638,2025-02-28T01:06:26Z,-0.298756,-0.933657,-0.011594,2025-02-28T01:06:26Z,-0.156243,0.269523,-0.053774,2025-02-28T01:06:26Z
39,253.470898,0.671781,7.258748,44.941518,280.880898,270.302819,2.187987,3,-93.173664,14.931201,2025-02-28T01:06:27Z,-0.299643,-0.962004,-0.011836,2025-02-28T01:06:27Z,-0.058349,-0.063653,-0.110315,2025-02-28T01:06:27Z
40,253.099737,0.665312,7.258542,44.941523,280.509737,270.915008,2.485251,3,-93.17385,14.760346,2025-02-28T01:06:28Z,-0.273901,-0.959834,-0.063398,2025-02-28T01:06:28Z,0.141867,-0.02787,-0.609286,2025-02-28T01:06:28Z
41,252.646894,0.709408,7.257136,44.941531,280.056894,273.107789,2.223488,3,-93.174034,14.636377,2025-02-28T01:06:29Z,-0.25726,-0.964395,-0.143955,2025-02-28T01:06:29Z,0.361531,-0.08502,-1.353667,2025-02-28T01:06:29Z
42,252.429377,0.7235,7.257546,44.941558,279.839377,288.079773,2.368848,3,-93.174218,14.660621,2025-02-28T01:06:30Z,-0.281556,-0.95611,-0.111678,2025-02-28T01:06:30Z,0.056027,0.017449,-1.098166,2025-02-28T01:06:30Z
43,252.601564,0.692236,7.258965,44.94159,280.011563,282.64679,2.211574,3,-93.174398,14.549443,2025-02-28T01:06:31Z,-0.323511,-0.930163,-0.035768,2025-02-28T01:06:31Z,-0.35275,0.259443,0.034,2025-02-28T01:06:31Z
44,252.321885,0.69692,7.258784,44.941621,279.731885,280.326508,2.098741,3,-93.17457,14.228972,2025-02-28T01:06:32Z,-0.330121,-0.958144,0.016567,2025-02-28T01:06:32Z,-0.499301,0.013568,0.797052,2025-02-28T01:06:32Z
45,252.045667,0.677907,7.258436,44.941638,279.455667,274.2146,2.046697,3,-93.174745,13.983613,2025-02-28T01:06:33Z,-0.317888,-0.9533,0.040991,2025-02-28T01:06:33Z,-0.341004,0.033674,0.973996,2025-02-28T01:06:33Z
46,251.687354,0.679952,7.257617,44.941651,279.097354,271.209076,2.022512,3,-93.174915,13.667421,2025-02-28T01:06:34Z,-0.298617,-0.945739,0.037408,2025-02-28T01:06:34Z,-0.092506,0.105572,0.837367,2025-02-28T01:06:34Z
47,251.526317,0.667865,7.257826,44.94165,278.936317,270,2.620896,3,-93.175096,13.893226,2025-02-28T01:06:35Z,-0.296354,-0.960526,0.008075,2025-02-28T01:06:35Z,-0.070292,-0.048372,0.579731,2025-02-28T01:06:35Z
48,251.134995,0.686525,7.256956,44.941652,278.544995,270,2.793944,3,-93.175268,13.724836,2025-02-28T01:06:36Z,-0.276372,-0.949698,-0.034258,2025-02-28T01:06:36Z,0.100682,0.040337,0.167449,2025-02-28T01:06:36Z
49,251.190423,0.691658,7.258438,44.941649,278.600423,270,2.527292,3,-93.175448,13.933915,2025-02-28T01:06:37Z,-0.274319,-0.953133,-0.036713,2025-02-28T01:06:37Z,0.126076,0.062187,0.111622,2025-02-28T01:06:37Z
50,250.941567,0.672295,7.257901,44.941646,278.351566,270,2.466412,3,-93.175628,14.065065,2025-02-28T01:06:38Z,-0.278059,-0.95903,-0.040212,2025-02-28T01:06:38Z,0.164327,-0.034429,-5e-6,2025-02-28T01:06:38Z
51,250.710503,0.671736,7.257409,44.941645,278.120502,270,2.851918,3,-93.175807,14.103075,2025-02-28T01:06:39Z,-0.291598,-0.960879,-0.051394,2025-02-28T01:06:39Z,-0.012523,-0.056696,-0.058918,2025-02-28T01:06:39Z
52,250.606367,0.67471,7.258393,44.941646,278.016367,270,3.132385,3,-93.175984,13.98216,2025-02-28T01:06:40Z,-0.297659,-0.944124,-0.04638,2025-02-28T01:06:40Z,-0.066165,0.116502,-0.039297,2025-02-28T01:06:40Z
53,250.119942,0.673808,7.257308,44.941647,277.529942,270,2.542655,3,-93.176158,13.784507,2025-02-28T01:06:41Z,-0.292579,-0.950244,-0.055237,2025-02-28T01:06:41Z,0.03569,0.036223,-0.107736,2025-02-28T01:06:41Z
54,249.79206,0.666626,7.256539,44.941651,277.202059,270,2.263162,3,-93.176327,13.476931,2025-02-28T01:06:42Z,-0.290344,-0.966453,-0.06682,2025-02-28T01:06:42Z,-0.022905,-0.099698,-0.044803,2025-02-28T01:06:42Z
55,249.886359,0.665495,7.258932,44.941654,277.296359,269.798828,2.126589,3,-93.176502,13.586182,2025-02-28T01:06:43Z,-0.281885,-0.944573,-0.069816,2025-02-28T01:06:43Z,-0.061474,0.12652,0.016513,2025-02-28T01:06:43Z
56,249.956014,0.679079,7.258974,44.941652,277.366014,269.798828,2.519186,3,-93.17667,13.289294,2025-02-28T01:06:44Z,-0.344932,-0.936508,-0.102284,2025-02-28T01:06:44Z,-0.570986,0.170289,-0.198455,2025-02-28T01:06:44Z
57,249.11184,0.698145,7.255514,44.941653,276.52184,269.798828,2.25699,3,-93.176825,12.418429,2025-02-28T01:06:45Z,-0.403514,-0.919145,-0.130554,2025-02-28T01:06:45Z,-1.143488,0.358621,-0.469,2025-02-28T01:06:45Z
58,NA,NA,NA,NA,NA,NA,NA,NA,NA,NA,NA,-0.411906,-0.916797,-0.128994,2025-02-28T01:06:46Z,-1.117296,0.327105,-0.484343,2025-02-28T01:06:46Z
