seconds_elapsed,location_altitude,location_speedAccuracy,location_bearingAccuracy,location_latitude,location_altitudeAboveMeanSeaLevel,location_bearing,location_horizontalAccuracy,location_verticalAccuracy,location_longitude,location_speed,location_local_time,accelerometerUncalibrated_z,accelerometerUncalibrated_y,accelerometerUncalibrated_x,accelerometerUncalibrated_local_time,accelerometer_z,accelerometer_y,accelerometer_x,accelerometer_local_time
0,259.128458,-1,-1,44.94204,286.538458,-1,280.715331,3,-93.167117,-1,2025-02-28T01:17:59Z,-0.253479,-0.959529,-0.22995,2025-02-28T01:17:59Z,0.241608,0.005911,-2.164225,2025-02-28T01:17:59Z
1,258.327637,2.7,23.043532,44.941716,285.737637,285.820312,3.535534,3,-93.16721,7.44,2025-02-28T01:18:00Z,-0.214226,-0.954496,-0.23023,2025-02-28T01:18:00Z,0.650429,0.046856,-2.02334,2025-02-28T01:18:00Z
2,259.284058,0.98,12.656072,44.941697,286.694057,264.726562,3.535534,3,-93.167262,5.05,2025-02-28T01:18:01Z,-0.151909,-0.987288,-0.069345,2025-02-28T01:18:01Z,1.390241,-0.324772,-0.209818,2025-02-28T01:18:01Z
3,259.371216,0.97,8.12277,44.941694,286.781216,268.242188,3.535534,3,-93.167341,6.45,2025-02-28T01:18:02Z,-0.180304,-0.979456,0.0173,2025-02-28T01:18:02Z,1.051728,-0.218082,0.648837,2025-02-28T01:18:02Z
4,258.619629,0.96,6.628011,44.941697,286.029629,270.292633,3.535534,3,-93.167443,7.78,2025-02-28T01:18:03Z,-0.211003,-0.987982,-0.010242,2025-02-28T01:18:03Z,0.651026,-0.267074,0.478823,2025-02-28T01:18:03Z
5,257.957397,0.11,0.78889,44.941703,285.367397,270.292633,3.535534,3,-93.167559,9.54,2025-02-28T01:18:04Z,-0.249657,-0.972403,0.00496,2025-02-28T01:18:04Z,0.124946,-0.100364,0.435046,2025-02-28T01:18:04Z
6,258.390442,0.46,3.042456,44.941704,285.800442,270.292633,3.535534,3,-93.167684,9.54,2025-02-28T01:18:06Z,-0.247334,-0.963113,0.01982,2025-02-28T01:18:05Z,0.132435,0.027205,0.485233,2025-02-28T01:18:05Z
7,255.72113,1.94,8.737375,44.941718,283.13113,270.292633,3.535534,3,-93.167809,9.54,2025-02-28T01:18:07Z,-0.303106,-0.955411,0.006443,2025-02-28T01:18:06Z,-0.451803,0.081873,0.383991,2025-02-28T01:18:06Z
8,256.012451,1.61,5.903942,44.94171,283.422451,270.292633,3.535534,3,-93.167948,11.03,2025-02-28T01:18:08Z,-0.288687,-0.943713,-0.018324,2025-02-28T01:18:07Z,-0.395013,0.241872,0.198054,2025-02-28T01:18:07Z
9,255.067139,0.56,3.598309,44.941712,282.477139,270.292633,3.535534,3,-93.16808,11.03,2025-02-28T01:18:09Z,-0.319682,-0.954541,-0.022163,2025-02-28T01:18:08Z,-0.64331,0.130302,0.221859,2025-02-28T01:18:08Z
10,254.794189,1.26,6.689256,44.941711,282.204189,270.2341,3.535534,3,-93.16821,10.29,2025-02-28T01:18:10Z,-0.295694,-0.935367,-0.023235,2025-02-28T01:18:09Z,-0.476169,0.31515,0.128341,2025-02-28T01:18:09Z
11,254.162842,0.78,4.923709,44.941713,281.572842,270.2341,3.535534,3,-93.16834,10.28,2025-02-28T01:18:11Z,-0.311589,-0.954925,-0.014246,2025-02-28T01:18:10Z,-0.526147,0.119169,0.164302,2025-02-28T01:18:10Z
12,254.261475,0.62,3.928447,44.941709,281.671474,270.2341,3.535534,3,-93.16847,10.28,2025-02-28T01:18:12Z,-0.334051,-0.945202,-0.018027,2025-02-28T01:18:11Z,-0.721349,0.1998,0.112352,2025-02-28T01:18:11Z
13,254.261483,0.62,7.258975,44.941705,281.671483,270.2341,4.748652,4.029364,-93.1686,10.28,2025-02-28T01:18:13Z,-0.385098,-0.925994,-0.041609,2025-02-28T01:18:12Z,-1.205401,0.36291,-0.185787,2025-02-28T01:18:12Z
14,253.840156,0.62,7.258975,44.941705,281.250156,270.2341,4.748652,4.029364,-93.168716,9.71,2025-02-28T01:18:14Z,-0.408836,-0.927557,-0.061252,2025-02-28T01:18:13Z,-1.373828,0.346513,-0.219825,2025-02-28T01:18:13Z
15,253.116463,0.4,7.258975,44.941712,280.526462,270.2341,4.748652,4.029364,-93.168828,9.71,2025-02-28T01:18:15Z,-0.473405,-0.893147,-0.084536,2025-02-28T01:18:14Z,-2.000819,0.678449,-0.407641,2025-02-28T01:18:14Z
16,253.082708,1.24,11.683174,44.941711,280.492708,270.2341,4.748652,4.029364,-93.16892,8.6,2025-02-28T01:18:16Z,-0.510037,-0.88517,-0.105603,2025-02-28T01:18:15Z,-2.199199,0.689207,-0.511806,2025-02-28T01:18:15Z
17,252.837896,1.59,19.201726,44.941718,280.247895,270.2341,4.748652,4.029364,-93.168981,7.87,2025-02-28T01:18:17Z,-0.503562,-0.888633,-0.098084,2025-02-28T01:18:16Z,-1.905406,0.598885,-0.406978,2025-02-28T01:18:16Z
18,252.52167,0.96,24.390898,44.941714,279.93167,270.2341,4.748652,4.029364,-93.168992,5.32,2025-02-28T01:18:18Z,-0.414973,-0.918742,-0.074216,2025-02-28T01:18:17Z,-0.937226,0.265084,-0.150504,2025-02-28T01:18:17Z
19,252.254089,0.45,63.969843,44.941714,279.664089,270.2341,4.748652,4.029364,-93.168951,0.57,2025-02-28T01:18:19Z,-0.304181,-0.950653,-0.045505,2025-02-28T01:18:18Z,0.153103,-0.052179,0.164615,2025-02-28T01:18:18Z
20,252.193604,0.91,129.361244,44.941714,279.603603,270.2341,4.748652,4.029364,-93.168965,0.57,2025-02-28T01:18:20Z,-0.201279,-0.978797,-0.013032,2025-02-28T01:18:19Z,1.116512,-0.310289,0.46428,2025-02-28T01:18:19Z
21,252.281189,1.31928,180,44.94171,279.691189,270.2341,4.748652,4.029364,-93.168958,0.56,2025-02-28T01:18:21Z,-0.134872,-1.002154,0.012544,2025-02-28T01:18:20Z,1.731702,-0.524604,0.685966,2025-02-28T01:18:20Z
22,252.496948,0.92,133.1182,44.941697,279.906948,270.2341,4.748652,4.029364,-93.16901,0.56,2025-02-28T01:18:22Z,-0.117482,-1.008759,0.013901,2025-02-28T01:18:21Z,1.688992,-0.524871,0.674588,2025-02-28T01:18:21Z
23,252.525575,0.51,11.773367,44.941704,279.935575,270.2341,4.748652,4.029364,-93.169085,3.51,2025-02-28T01:18:23Z,-0.149238,-0.983175,-0.002753,2025-02-28T01:18:22Z,1.359418,-0.24588,0.442043,2025-02-28T01:18:22Z
24,252.921817,0.308016,7.258975,44.941699,280.331816,270.2341,4.748652,4.029364,-93.169178,5.64,2025-02-28T01:18:24Z,-0.155873,-0.986369,0.001647,2025-02-28T01:18:23Z,1.264534,-0.28444,0.475247,2025-02-28T01:18:23Z
25,253.196476,0.308016,7.258975,44.941696,280.606475,268.945253,4.748652,4.029364,-93.169266,6.6,2025-02-28T01:18:25Z,-0.181799,-0.98312600000000006,0.010106,2025-02-28T01:18:24Z,1.136993,-0.299512,0.494033,2025-02-28T01:18:24Z
26,252.888248,0.5,7.258975,44.941698,280.298248,269.648378,4.748652,4.029364,-93.169356,6.6,2025-02-28T01:18:25Z,-0.201768,-0.98704,-0.019635,2025-02-28T01:18:25Z,0.81207,-0.280285,0.270296,2025-02-28T01:18:25Z
27,252.578252,1.42,14.981826,44.94169,279.988252,266.835869,4.748652,4.029364,-93.169476,7.68,2025-02-28T01:18:26Z,-0.2489,-0.956379,-0.032673,2025-02-28T01:18:26Z,0.241305,0.027995,0.223599,2025-02-28T01:18:26Z
28,252.313664,2.79,29.436124,44.941697,279.723664,269.648369,4.748652,4.029364,-93.169569,7.68,2025-02-28T01:18:27Z,-0.29509,-0.955294,-0.070515,2025-02-28T01:18:27Z,-0.271445,0.050242,-0.158619,2025-02-28T01:18:27Z
29,252.601996,2.31,20.345191,44.941691,280.011996,270.13382,4.748652,4.029364,-93.16971,9.2,2025-02-28T01:18:28Z,-0.289698,-0.944822,-0.054492,2025-02-28T01:18:28Z,-0.211426,0.184598,-0.05015,2025-02-28T01:18:28Z
30,252.932136,2.51,21.27421,44.941696,280.342136,270.13382,4.748652,4.029364,-93.169836,9.56,2025-02-28T01:18:29Z,-0.299875,-0.960936,-0.058507,2025-02-28T01:18:29Z,-0.349643,0.028827,-0.175936,2025-02-28T01:18:29Z
31,252.419379,1.4,12.330419,44.941687,279.829379,270.13382,4.748652,4.029364,-93.169936,9.2,2025-02-28T01:18:30Z,-0.267818,-0.951286,-0.047112,2025-02-28T01:18:30Z,-0.013452,0.116313,-0.139317,2025-02-28T01:18:30Z
32,252.601874,0.56,7.258975,44.94169,280.011874,270.13382,4.748652,4.029364,-93.170041,8.88,2025-02-28T01:18:31Z,-0.290343,-0.962799,-0.070478,2025-02-28T01:18:31Z,-0.28771,0.019831,-0.308024,2025-02-28T01:18:31Z
33,256.488341,1.266368,11.770563,44.941691,283.898341,270.13382,2.490068,3,-93.17016,8.715892,2025-02-28T01:18:32Z,-0.280585,-0.948827,-0.042393,2025-02-28T01:18:32Z,-0.216296,0.163254,-0.024266,2025-02-28T01:18:32Z
34,256.128261,1.268779,11.977314,44.941697,283.538261,270.13382,2,3,-93.170263,8.583462,2025-02-28T01:18:33Z,-0.281121,-0.954871,-0.006953,2025-02-28T01:18:33Z,-0.124455,0.05764,0.195437,2025-02-28T01:18:33Z
35,256.047216,1.272968,12.347405,44.941703,283.457216,270.13382,2,3,-93.170371,8.353707,2025-02-28T01:18:34Z,-0.326884,-0.945048,-0.015361,2025-02-28T01:18:34Z,-0.484609,0.153756,-0.042239,2025-02-28T01:18:34Z
36,256.3002,1.368837,14.178918,44.941708,283.7102,270.13382,2.431163,3,-93.17047,7.822375,2025-02-28T01:18:35Z,-0.437188,-0.907451,-0.051171,2025-02-28T01:18:35Z,-1.527031,0.500555,-0.366867,2025-02-28T01:18:35Z
37,255.90352,0.74774,9.251639,44.941708,283.31352,270.13382,2.481117,3,-93.170544,6.541039,2025-02-28T01:18:36Z,-0.479481,-0.905246,-0.097501,2025-02-28T01:18:36Z,-1.904796,0.513715,-0.638502,2025-02-28T01:18:36Z
38,255.857889,0.680044,9.141836,44.941709,283.267889,270.13382,2.338525,3,-93.170626,6.02698,2025-02-28T01:18:37Z,-0.493071,-0.889276,-0.08501,2025-02-28T01:18:37Z,-1.913773,0.648912,-0.586682,2025-02-28T01:18:37Z
39,256.588069,0.689831,15.811096,44.941722,283.998069,270.13382,2.306804,3,-93.170654,3.371161,2025-02-28T01:18:38Z,-0.427903,-0.913357,-0.055065,2025-02-28T01:18:38Z,-0.981301,0.304397,-0.302781,2025-02-28T01:18:38Z
40,256.433407,0.719126,48.315308,44.941714,283.843406,270.13382,2.280225,3,-93.170653,1.068134,2025-02-28T01:18:39Z,-0.244762,-0.97044,0.004746,2025-02-28T01:18:39Z,0.818874,-0.258611,0.271795,2025-02-28T01:18:39Z
41,256.3264,0.743251,45.557184,44.94172,283.7364,270.13382,2.435846,3,-93.170669,1.091622,2025-02-28T01:18:40Z,-0.13058,-0.993999,0.044909,2025-02-28T01:18:40Z,1.838509,-0.466039,0.624134,2025-02-28T01:18:40Z
42,256.458115,0.685072,20.186833,44.941721,283.868115,270.13382,2.489649,3,-93.170711,2.575615,2025-02-28T01:18:41Z,-0.115449,-1.003676,0.041893,2025-02-28T01:18:41Z,2.04345,-0.554864,0.58744,2025-02-28T01:18:41Z
43,255.747445,0.665014,12.470537,44.941723,283.157444,270.13382,2.428443,3,-93.170774,4.184277,2025-02-28T01:18:42Z,-0.139358,-0.995639,0.052673,2025-02-28T01:18:42Z,1.528258,-0.362391,0.561799,2025-02-28T01:18:42Z
44,254.660217,0.749136,7.975813,44.941721,282.070217,270.13382,2.514268,3,-93.170881,6.963001,2025-02-28T01:18:43Z,-0.184027,-0.982187,0.039566,2025-02-28T01:18:43Z,1.016733,-0.268474,0.433205,2025-02-28T01:18:43Z
45,255.36319,0.671607,8.195339,44.941719,282.77319,271.131852,2.497906,3,-93.170947,6.600431,2025-02-28T01:18:44Z,-0.194106,-0.985334,0.030379,2025-02-28T01:18:44Z,1.011859,-0.303731,0.408848,2025-02-28T01:18:44Z
46,255.15401,0.675087,10.587885,44.941708,282.56401,263.662401,2.487976,3,-93.170992,5.057828,2025-02-28T01:18:45Z,-0.212088,-0.974802,0.019022,2025-02-28T01:18:45Z,0.744424,-0.165928,0.309146,2025-02-28T01:18:45Z
47,254.77635,0.745053,11.550034,44.941701,282.186349,261.336457,2.469101,3,-93.171063,5.083877,2025-02-28T01:18:46Z,-0.284821,-0.967421,-0.042561,2025-02-28T01:18:46Z,-2.36e-4,-0.088844,-0.037339,2025-02-28T01:18:46Z
48,255.073377,0.676442,7.257503,44.941698,282.483377,265.488778,2.448783,3,-93.171247,9.375157,2025-02-28T01:18:47Z,-0.2594,-0.947932,-0.052767,2025-02-28T01:18:47Z,0.092587,0.142779,-0.088288,2025-02-28T01:18:47Z
49,254.641362,0.659392,7.252039,44.941698,282.051361,266.780626,2.297015,3,-93.171345,8.749553,2025-02-28T01:18:48Z,-0.231956,-0.971594,-0.048051,2025-02-28T01:18:48Z,0.276856,-0.067375,0.040312,2025-02-28T01:18:48Z
50,254.656174,0.647358,7.257295,44.941692,282.066174,266.53655,2.303491,3,-93.171451,8.472997,2025-02-28T01:18:49Z,-0.24468,-0.960569,-0.080434,2025-02-28T01:18:49Z,0.154763,0.013425,-0.171159,2025-02-28T01:18:49Z
51,254.566575,0.653686,7.41598,44.941689,281.976575,266.778299,2.206096,3,-93.171534,7.124082,2025-02-28T01:18:50Z,-0.246532,-0.963741,-0.087317,2025-02-28T01:18:50Z,0.0825,-0.016674,-0.183581,2025-02-28T01:18:50Z
52,254.396484,0.647313,7.258401,44.941696,281.806484,271.779139,2.495135,3,-93.17169,9.712823,2025-02-28T01:18:51Z,-0.231409,-0.956298,-0.078097,2025-02-28T01:18:51Z,0.276434,0.108046,-0.150832,2025-02-28T01:18:51Z
53,254.193435,0.648564,7.256463,44.941702,281.603435,273.768907,2.309509,3,-93.171812,9.896811,2025-02-28T01:18:52Z,-0.246874,-0.975985,-0.042466,2025-02-28T01:18:52Z,0.087267,-0.103844,0.080751,2025-02-28T01:18:52Z
54,253.631548,0.662608,7.235947,44.941712,281.041548,275.48316,2.192652,3,-93.171929,9.620541,2025-02-28T01:18:53Z,-0.242914,-0.965126,-0.02186,2025-02-28T01:18:53Z,0.132334,0.04116,0.244931,2025-02-28T01:18:53Z
55,253.849496,0.640941,7.255774,44.941708,281.259496,270.554151,2.117547,3,-93.172059,9.893338,2025-02-28T01:18:54Z,-0.244474,-0.954659,-0.03141,2025-02-28T01:18:54Z,0.242673,0.026061,0.196225,2025-02-28T01:18:54Z
56,253.526479,0.685297,7.251949,44.941703,280.936479,267.962319,2.158312,3,-93.172186,9.974929,2025-02-28T01:18:55Z,-0.25916,-0.972155,-0.057384,2025-02-28T01:18:55Z,-0.041814,-0.083542,0.052529,2025-02-28T01:18:55Z
57,253.61497,0.729064,7.258045,44.941694,281.02497,266.027914,2.437106,3,-93.172319,10.144938,2025-02-28T01:18:56Z,-0.283706,-0.950091,-0.078407,2025-02-28T01:18:56Z,-0.33667,0.171749,-0.145671,2025-02-28T01:18:56Z
58,253.96754,0.76875,7.258961,44.941681,281.37754,270.130157,2.247455,3,-93.172444,9.910413,2025-02-28T01:18:57Z,-0.283417,-0.949138,-0.085475,2025-02-28T01:18:57Z,-0.300514,0.160505,-0.198913,2025-02-28T01:18:57Z
59,253.540646,0.78106,7.257136,44.941679,280.950646,270.130157,2.224804,3,-93.172553,8.982012,2025-02-28T01:18:58Z,-0.282361,-0.962849,-0.094812,2025-02-28T01:18:58Z,-0.306972,0.024911,-0.177271,2025-02-28T01:18:58Z
60,252.814589,0.666091,7.249421,44.9417,280.224589,270.130157,2.377244,3,-93.172711,10.146233,2025-02-28T01:18:59Z,-0.29061,-0.943628,-0.073103,2025-02-28T01:18:59Z,-0.331942,0.192882,-0.064508,2025-02-28T01:18:59Z
61,252.700731,0.655523,7.25117,44.941702,280.110731,270.130157,2.211882,3,-93.172846,10.409882,2025-02-28T01:19:00Z,-0.247486,-0.961701,-0.086211,2025-02-28T01:19:00Z,0.071841,0.035656,-0.306372,2025-02-28T01:19:00Z
62,252.770159,0.651288,7.25492,44.941706,280.180159,270.130157,2.121653,3,-93.172956,9.278261,2025-02-28T01:19:01Z,-0.257154,-0.96211,-0.066725,2025-02-28T01:19:01Z,0.056594,0.011035,-0.158751,2025-02-28T01:19:01Z
63,252.969555,0.650918,7.258942,44.94171,280.379555,270.130157,2.259319,3,-93.173085,9.609871,2025-02-28T01:19:02Z,-0.268215,-0.961412,-0.020715,2025-02-28T01:19:02Z,0.006777,0.019587,0.09523,2025-02-28T01:19:02Z
64,252.615862,0.660449,7.25723,44.941716,280.025862,270.130157,2.148894,3,-93.173211,9.68955,2025-02-28T01:19:03Z,-0.270711,-0.958452,-0.01671,2025-02-28T01:19:03Z,-0.010845,0.034066,0.096382,2025-02-28T01:19:03Z
65,252.084811,0.659569,7.251875,44.941716,279.494811,270.403077,2.084885,3,-93.173345,10.148943,2025-02-28T01:19:04Z,-0.268726,-0.958347,-0.002165,2025-02-28T01:19:04Z,0.085397,0.033222,-0.09365,2025-02-28T01:19:04Z
66,252.583216,0.665903,7.258955,44.941716,279.993216,270.246174,2.123064,3,-93.173473,10.094024,2025-02-28T01:19:05Z,-0.307878,-0.941035,0.022355,2025-02-28T01:19:05Z,-0.139362,0.127181,0.075238,2025-02-28T01:19:05Z
67,251.720985,0.667563,7.250902,44.941721,279.130985,270.745879,2.069831,3,-93.173601,10.04787,2025-02-28T01:19:06Z,-0.315737,-0.951854,0.016986,2025-02-28T01:19:06Z,-0.187504,0.050537,0.121325,2025-02-28T01:19:06Z
68,252.027868,0.653894,7.258644,44.941724,279.437868,271.365949,2.05033,3,-93.173726,9.914088,2025-02-28T01:19:07Z,-0.392914,-0.920384,-0.013317,2025-02-28T01:19:07Z,-0.919256,0.319651,-0.152496,2025-02-28T01:19:07Z
69,252.853773,0.669403,7.242917,44.941726,280.263772,269.529907,2.028738,3,-93.173844,9.304653,2025-02-28T01:19:08Z,-0.403889,-0.923986,-0.035187,2025-02-28T01:19:08Z,-1.123412,0.332011,-0.335318,2025-02-28T01:19:08Z
70,252.506865,0.657022,7.255394,44.941726,279.916865,268.270569,2.335857,3,-93.173938,7.968581,2025-02-28T01:19:09Z,-0.428938,-0.910011,-0.029623,2025-02-28T01:19:09Z,-1.226345,0.409951,-0.199006,2025-02-28T01:19:09Z
71,252.18276,0.660422,8.278629,44.941714,279.59276,261.262909,2.28219,3,-93.174012,6.456913,2025-02-28T01:19:10Z,-0.416646,-0.912429,-0.013974,2025-02-28T01:19:10Z,-1.112805,0.399708,0.103074,2025-02-28T01:19:10Z
72,252.134926,0.668742,9.233182,44.941711,279.544926,261.262909,2.331815,3,-93.174088,5.866703,2025-02-28T01:19:11Z,-0.440952,-0.919588,-0.057065,2025-02-28T01:19:11Z,-1.237881,0.279529,-0.240922,2025-02-28T01:19:11Z
73,252.501037,0.719461,14.205174,44.941703,279.911037,261.262909,2.317429,3,-93.174128,4.085589,2025-02-28T01:19:12Z,-0.482215,-0.885406,-0.093373,2025-02-28T01:19:12Z,-1.432192,0.542772,-0.52314,2025-02-28T01:19:12Z
74,252.387641,0.665156,33.721085,44.941702,279.79764,261.262909,2.264524,3,-93.174134,1.596252,2025-02-28T01:19:13Z,-0.315892,-0.947642,-0.055143,2025-02-28T01:19:13Z,0.346227,-0.123492,-0.075706,2025-02-28T01:19:13Z
75,252.663724,0.92044,58.772309,44.941703,280.073724,260.267487,2.358594,3,-93.174147,1.104484,2025-02-28T01:19:14Z,-0.187952,-0.984592,-0.007697,2025-02-28T01:19:14Z,1.517539,-0.452176,0.343142,2025-02-28T01:19:14Z
76,253.257645,0.958612,180,44.941709,280.667645,260.267487,2.507469,3,-93.174173,1.789423,2025-02-28T01:19:15Z,-0.118682,-1.004324,0.007826,2025-02-28T01:19:15Z,1.975547,-0.566649,0.368351,2025-02-28T01:19:15Z
77,NA,NA,NA,NA,NA,NA,NA,NA,NA,NA,NA,-0.129004,-1.013044,0.020539,2025-02-28T01:19:16Z,1.78304,-0.619506,0.309087,2025-02-28T01:19:16Z
