seconds_elapsed,location_altitude,location_speedAccuracy,location_bearingAccuracy,location_latitude,location_altitudeAboveMeanSeaLevel,location_bearing,location_horizontalAccuracy,location_verticalAccuracy,location_longitude,location_speed,location_local_time,accelerometerUncalibrated_z,accelerometerUncalibrated_y,accelerometerUncalibrated_x,accelerometerUncalibrated_local_time,accelerometer_z,accelerometer_y,accelerometer_x,accelerometer_local_time
0,261.990253,-1,-1,44.934455,289.400253,-1,126.151703,3.400768,-93.17048,-1,2025-02-28T00:53:24Z,-0.272556,-0.960931,-0.206668,2025-02-28T00:53:24Z,-0.185503,0.056068,-1.674084,2025-02-28T00:53:24Z
1,258.948914,3.51,45.019911,44.934518,286.358913,335.742188,14.484062,7.5,-93.171061,4.365,2025-02-28T00:53:25Z,-0.220752,-0.97296,-0.191062,2025-02-28T00:53:25Z,0.148808,-0.021562,-1.546973,2025-02-28T00:53:25Z
2,258.895508,1.66,39.422213,44.934436,286.305508,326.601562,14,3,-93.171102,3.86,2025-02-28T00:53:27Z,-0.146099,-0.991891,-0.042633,2025-02-28T00:53:26Z,0.751668,-0.166528,-0.291575,2025-02-28T00:53:26Z
3,NA,NA,NA,NA,NA,NA,NA,NA,NA,NA,NA,-0.175414,-0.986085,-0.017207,2025-02-28T00:53:27Z,0.581788,-0.142469,0.060382,2025-02-28T00:53:27Z
4,261.627808,0.91,9.295085,44.934499,289.037807,357.363281,3.535534,3,-93.171082,5.17,2025-02-28T00:53:28Z,-0.201508,-0.975785,-0.024767,2025-02-28T00:53:28Z,0.273241,-0.038609,0.057195,2025-02-28T00:53:28Z
5,261.450195,0.97,7.456405,44.934592,288.860195,359.648438,3.535534,3,-93.171078,6.97,2025-02-28T00:53:30Z,-0.220913,-0.979181,-0.023897,2025-02-28T00:53:29Z,0.018878,-0.054763,0.048614,2025-02-28T00:53:29Z
6,261.478638,0.42,3.512932,44.934655,288.888638,1.40625,3.535534,3,-93.171089,7.86,2025-02-28T00:53:30Z,-0.257624,-0.960786,-0.021667,2025-02-28T00:53:30Z,-0.312338,0.121045,0.051762,2025-02-28T00:53:30Z
7,261.455322,0.21,1.764649,44.93473,288.865322,359.9133,3.535534,3,-93.171044,7.86,2025-02-28T00:53:31Z,-0.275137,-0.96081,-0.026187,2025-02-28T00:53:31Z,-0.539984,0.170637,-0.00884,2025-02-28T00:53:31Z
8,261.336304,0.11,0.932932,44.934798,288.746304,359.9133,3.535534,3,-93.171044,7.86,2025-02-28T00:53:32Z,-0.268768,-0.956076,-0.013665,2025-02-28T00:53:32Z,-0.434152,0.164701,0.191105,2025-02-28T00:53:32Z
9,261.35376,0.09,0.817187,44.93487,288.76376,359.9133,3.535534,3,-93.171044,7.77,2025-02-28T00:53:33Z,-0.226601,-0.977847,-0.021802,2025-02-28T00:53:33Z,-0.177644,0.009218,0.067209,2025-02-28T00:53:33Z
10,261.065674,0.09,0.772867,44.934942,288.475674,359.9133,3.535534,3,-93.171045,8.07,2025-02-28T00:53:34Z,-0.250196,-0.971645,-0.022285,2025-02-28T00:53:34Z,-0.284208,0.023554,0.06487,2025-02-28T00:53:34Z
11,260.728394,0.11,0.915276,44.935018,288.138393,359.9133,3.535534,3,-93.171045,8.26,2025-02-28T00:53:35Z,-0.231593,-0.96477,-0.021064,2025-02-28T00:53:35Z,-0.121142,0.106527,0.075216,2025-02-28T00:53:35Z
12,260.678467,0.15,1.121655,44.935093,288.088467,359.9133,3.535534,3,-93.171045,8.26,2025-02-28T00:53:36Z,-0.2572,-0.964203,-0.031908,2025-02-28T00:53:36Z,-0.216651,0.066598,0.02658,2025-02-28T00:53:36Z
13,260.678472,0.308016,7.258975,44.935167,288.088472,359.9133,4.748652,4.029364,-93.171045,8.26,2025-02-28T00:53:37Z,-0.266228,-0.946123,-0.032598,2025-02-28T00:53:37Z,-0.293717,0.276601,-0.03415,2025-02-28T00:53:37Z
14,259.67359,1.95,18.372734,44.935252,287.08359,359.9133,4.748652,4.029364,-93.171045,8.6,2025-02-28T00:53:38Z,-0.300427,-0.952177,-0.019353,2025-02-28T00:53:38Z,-0.562276,0.14377,0.003077,2025-02-28T00:53:38Z
15,259.939948,0.75,7.258975,44.935336,287.349948,359.9133,4.748652,4.029364,-93.171045,8.96,2025-02-28T00:53:39Z,-0.300997,-0.951017,-0.034634,2025-02-28T00:53:39Z,-0.541412,0.162965,-0.037162,2025-02-28T00:53:39Z
16,259.566168,0.308016,7.258975,44.93542,286.976168,359.9133,4.748652,4.029364,-93.171046,8.96,2025-02-28T00:53:40Z,-0.294178,-0.956553,-0.047674,2025-02-28T00:53:40Z,-0.406466,0.112936,-0.12066,2025-02-28T00:53:40Z
17,259.150457,0.308016,7.258975,44.935491,286.560457,359.9133,4.748652,4.029364,-93.171046,8.52,2025-02-28T00:53:41Z,-0.283897,-0.953702,-0.059261,2025-02-28T00:53:41Z,-0.357395,0.138363,-0.166768,2025-02-28T00:53:41Z
18,258.898443,0.308016,7.258975,44.935564,286.308443,0.248379,4.748652,4.029364,-93.171046,8.3,2025-02-28T00:53:42Z,-0.302578,-0.953728,-0.050258,2025-02-28T00:53:42Z,-0.514745,0.134823,-0.084849,2025-02-28T00:53:42Z
19,258.552557,0.47,7.258975,44.935639,285.962556,0.248379,4.748652,4.029364,-93.171045,8.15,2025-02-28T00:53:43Z,-0.301825,-0.946976,-0.036669,2025-02-28T00:53:43Z,-0.487193,0.205212,0.02052,2025-02-28T00:53:43Z
20,258.742193,0.308016,7.258975,44.935712,286.152193,0.248379,4.748652,4.029364,-93.171045,8.15,2025-02-28T00:53:44Z,-0.299398,-0.947738,-0.042984,2025-02-28T00:53:44Z,-0.361268,0.146814,0.048656,2025-02-28T00:53:44Z
21,258.179326,0.308016,7.258975,44.93578,285.589326,0.248379,4.748652,4.029364,-93.171044,7.86,2025-02-28T00:53:45Z,-0.298055,-0.947593,-0.03533,2025-02-28T00:53:45Z,-0.331074,0.151423,0.10029,2025-02-28T00:53:45Z
22,258.074467,0.308016,7.258975,44.935846,285.484467,0.248379,4.748652,4.029364,-93.171044,7.51,2025-02-28T00:53:46Z,-0.299305,-0.955077,-0.055032,2025-02-28T00:53:46Z,-0.375219,0.096477,-0.071477,2025-02-28T00:53:46Z
23,258.024846,0.308016,7.258975,44.935911,285.434845,0.248379,4.748652,4.029364,-93.171044,7.38,2025-02-28T00:53:47Z,-0.296479,-0.949877,-0.053842,2025-02-28T00:53:47Z,-0.298214,0.127357,0.034018,2025-02-28T00:53:47Z
24,258.033207,0.308016,7.258975,44.935977,285.443207,0.248379,4.748652,4.029364,-93.171043,7.38,2025-02-28T00:53:48Z,-0.286153,-0.94667,-0.06271,2025-02-28T00:53:48Z,-0.232023,0.17238,-0.087598,2025-02-28T00:53:48Z
25,257.77985,0.308016,7.258975,44.936038,285.18985,359.387665,4.748652,4.029364,-93.171044,7.2,2025-02-28T00:53:49Z,-0.288965,-0.95533,-0.071916,2025-02-28T00:53:49Z,-0.146399,0.031622,-0.103929,2025-02-28T00:53:49Z
26,257.727421,1.5,16.880931,44.936106,285.137421,357.458069,4.748652,4.029364,-93.171047,7.2,2025-02-28T00:53:50Z,-0.290227,-0.957337,-0.063513,2025-02-28T00:53:50Z,-0.193812,0.032035,-0.098795,2025-02-28T00:53:50Z
27,258.174505,2.59,24.631891,44.936191,285.584505,357.458069,8.837958,4.029364,-93.171052,8.52,2025-02-28T00:53:51Z,-0.291808,-0.943192,-0.065734,2025-02-28T00:53:51Z,-0.133292,0.154003,-0.130523,2025-02-28T00:53:51Z
28,258.127325,1.37,13.029225,44.93624,285.537325,0,4.748652,4.029364,-93.17105,8.52,2025-02-28T00:53:52Z,-0.280946,-0.966416,-0.062288,2025-02-28T00:53:52Z,-0.057182,-0.087837,-0.041303,2025-02-28T00:53:52Z
29,257.762454,0.76,9.697895,44.93627,285.172454,0,4.748652,4.029364,-93.17105,6.35,2025-02-28T00:53:53Z,-0.299664,-0.941566,-0.010529,2025-02-28T00:53:53Z,-0.201229,0.192393,0.323409,2025-02-28T00:53:53Z
30,257.432742,0.308016,7.258975,44.936326,284.842742,0,4.748652,4.029364,-93.17105,6.35,2025-02-28T00:53:54Z,-0.307583,-0.952308,-0.01051,2025-02-28T00:53:54Z,-0.215608,0.040921,0.308683,2025-02-28T00:53:54Z
31,257.245365,0.54,7.258975,44.936382,284.655364,0,4.748652,4.029364,-93.17105,6.4,2025-02-28T00:53:55Z,-0.339941,-0.94717,0.090852,2025-02-28T00:53:55Z,-0.507782,0.101208,1.314401,2025-02-28T00:53:55Z
32,257.302616,0.46,7.258975,44.936443,284.712615,355.084595,4.748652,4.029364,-93.171056,6.4,2025-02-28T00:53:56Z,-0.367451,-0.932114,0.140172,2025-02-28T00:53:56Z,-0.768711,0.233828,1.913944,2025-02-28T00:53:56Z
33,258.613865,1.279936,16.654778,44.936482,286.023865,346.005249,2,3,-93.171092,6.222675,2025-02-28T00:53:57Z,-0.408286,-0.940543,0.183892,2025-02-28T00:53:57Z,-1.130586,0.142852,2.194032,2025-02-28T00:53:57Z
34,258.7531,1.278114,17.406542,44.936532,286.1631,334.523163,2,3,-93.17111,5.949121,2025-02-28T00:53:58Z,-0.345393,-0.940911,0.126818,2025-02-28T00:53:58Z,-0.614465,0.169941,1.345273,2025-02-28T00:53:58Z
35,258.77184,1.165467,16.033873,44.936567,286.18184,315.160004,2.979945,3,-93.171193,5.888348,2025-02-28T00:53:59Z,-0.288339,-0.954564,0.044752,2025-02-28T00:53:59Z,-0.068239,0.056465,0.303328,2025-02-28T00:53:59Z
36,258.576237,1.26792,17.673644,44.936543,285.986237,271.219452,2.742775,3,-93.17131,5.807194,2025-02-28T00:54:00Z,-0.268279,-0.967733,0.016426,2025-02-28T00:54:00Z,0.111226,-0.096382,-0.132838,2025-02-28T00:54:00Z
37,258.920807,0.739829,8.688271,44.936546,286.330807,271.219452,2.920426,3,-93.171424,6.906215,2025-02-28T00:54:01Z,-0.245748,-0.961272,-2.15e-4,2025-02-28T00:54:01Z,0.267687,0.017095,-0.320693,2025-02-28T00:54:01Z
38,258.842233,0.692815,7.850108,44.936537,286.252233,269.578369,2.885821,3,-93.171518,7.150288,2025-02-28T00:54:02Z,-0.26149,-0.967597,0.001048,2025-02-28T00:54:02Z,0.131851,-0.062093,-0.332202,2025-02-28T00:54:02Z
39,258.593686,0.691929,7.257804,44.936534,286.003686,269.578369,2.756296,3,-93.171622,7.793653,2025-02-28T00:54:03Z,-0.262716,-0.958975,-0.013943,2025-02-28T00:54:03Z,0.084074,0.023242,-0.482429,2025-02-28T00:54:03Z
40,258.431337,0.691457,7.257974,44.936534,285.841337,269.578369,2.576118,3,-93.171728,8.172711,2025-02-28T00:54:04Z,-0.291982,-0.955463,-0.050193,2025-02-28T00:54:04Z,-0.179756,0.07349,-0.83071,2025-02-28T00:54:04Z
41,258.176751,0.677538,7.257038,44.936534,285.58675,269.578369,2.413728,3,-93.171839,8.417867,2025-02-28T00:54:05Z,-0.301073,-0.932478,-0.047333,2025-02-28T00:54:05Z,-0.222534,0.254011,-0.739874,2025-02-28T00:54:05Z
42,258.11151,0.672542,7.258173,44.936541,285.52151,269.662079,2.287852,3,-93.17195,8.443128,2025-02-28T00:54:06Z,-0.329649,-0.958976,-0.010389,2025-02-28T00:54:06Z,-0.476807,-0.006442,-0.465894,2025-02-28T00:54:06Z
43,257.8888,0.680039,7.257628,44.936545,285.298799,269.599152,2.188429,3,-93.172059,8.44867,2025-02-28T00:54:07Z,-0.39861,-0.923561,-0.023082,2025-02-28T00:54:07Z,-1.093064,0.325168,-0.575786,2025-02-28T00:54:07Z
44,256.584441,0.686971,7.224749,44.936551,283.994441,269.599152,2.429077,3,-93.172158,7.856795,2025-02-28T00:54:08Z,-0.416708,-0.917001,-0.03922,2025-02-28T00:54:08Z,-1.291753,0.411195,-0.698318,2025-02-28T00:54:08Z
45,256.55205,0.687242,8.064064,44.936546,283.96205,268.258881,2.441753,3,-93.172241,6.81899,2025-02-28T00:54:09Z,-0.418233,-0.914736,-0.052971,2025-02-28T00:54:09Z,-1.258637,0.413426,-0.844426,2025-02-28T00:54:09Z
46,256.408646,0.692189,10.017482,44.936546,283.818646,268.258881,2.449553,3,-93.172305,5.526003,2025-02-28T00:54:10Z,-0.433003,-0.909527,-0.060663,2025-02-28T00:54:10Z,-1.299119,0.427252,-0.818605,2025-02-28T00:54:10Z
47,256.287386,0.697702,12.251862,44.936546,283.697386,268.258881,2.359643,3,-93.172362,4.533718,2025-02-28T00:54:11Z,-0.467109,-0.904921,-0.072451,2025-02-28T00:54:11Z,-1.537558,0.453667,-0.839438,2025-02-28T00:54:11Z
48,256.033689,0.740808,18.295632,44.936546,283.443689,268.258881,2.299702,3,-93.172397,3.087728,2025-02-28T00:54:12Z,-0.426709,-0.914332,-0.047684,2025-02-28T00:54:12Z,-1.045176,0.316272,-0.584429,2025-02-28T00:54:12Z
49,256.420361,0.697271,40.247749,44.936546,283.83036,268.258881,2.403613,3,-93.172407,1.382157,2025-02-28T00:54:13Z,-0.25259,-0.965327,-0.005062,2025-02-28T00:54:13Z,0.632205,-0.165125,-0.051224,2025-02-28T00:54:13Z
50,256.853178,1.014734,50.372418,44.936543,284.263178,268.258881,2.528914,3,-93.172423,1.202208,2025-02-28T00:54:14Z,-0.174757,-0.990432,-0.011257,2025-02-28T00:54:14Z,1.395388,-0.413437,-0.046241,2025-02-28T00:54:14Z
51,256.069055,0.855772,29.970297,44.936545,283.479055,268.258881,2.577689,3,-93.17244,1.528267,2025-02-28T00:54:15Z,-0.204399,-0.975306,-0.090044,2025-02-28T00:54:15Z,1.034334,-0.248364,-0.66167,2025-02-28T00:54:15Z
52,256.437019,0.705365,22.483367,44.93653,283.847019,268.258881,2.753539,3,-93.172484,2.530489,2025-02-28T00:54:16Z,-0.232621,-0.965246,-0.219741,2025-02-28T00:54:16Z,0.730221,-0.137054,-1.743587,2025-02-28T00:54:16Z
53,256.600372,0.685862,17.656818,44.936529,284.010371,268.258881,2.950638,3,-93.172526,3.147176,2025-02-28T00:54:17Z,-0.268161,-0.950919,-0.278729,2025-02-28T00:54:17Z,0.221126,0.029909,-2.133805,2025-02-28T00:54:17Z
54,256.437172,0.722406,21.18443,44.936588,283.847172,342.779053,2.871419,3,-93.17259,2.763351,2025-02-28T00:54:18Z,-0.179413,-0.978405,-0.289216,2025-02-28T00:54:18Z,0.78281,-0.138538,-2.178264,2025-02-28T00:54:18Z
55,256.005487,0.690745,16.619192,44.936622,283.415487,342.779053,7.36677,3,-93.172605,3.351263,2025-02-28T00:54:19Z,-0.171129,-0.992628,-0.17287,2025-02-28T00:54:19Z,0.683821,-0.214313,-1.249606,2025-02-28T00:54:19Z
56,256.775624,0.731617,12.284003,44.936646,284.185624,50.844883,5.031435,3,-93.172423,4.805731,2025-02-28T00:54:20Z,-0.195274,-0.985549,-0.010964,2025-02-28T00:54:20Z,0.367267,-0.168222,0.14062,2025-02-28T00:54:20Z
57,256.874636,0.754431,10.380753,44.936686,284.284636,48.821819,4.844584,3,-93.172356,5.879657,2025-02-28T00:54:21Z,-0.215249,-0.962383,0.00336,2025-02-28T00:54:21Z,0.188191,0.098807,0.379836,2025-02-28T00:54:21Z
58,256.286672,0.729955,8.612592,44.93673,283.696672,48.821819,2.854304,3,-93.172285,6.835949,2025-02-28T00:54:22Z,-0.2508,-0.973818,0.012257,2025-02-28T00:54:22Z,-0.266741,0.020657,0.518337,2025-02-28T00:54:22Z
59,256.645268,0.702722,7.93544,44.936774,284.055268,47.900414,2.731974,3,-93.172216,7.174108,2025-02-28T00:54:23Z,-0.248025,-0.966088,-0.006707,2025-02-28T00:54:23Z,-0.205172,0.073643,0.318206,2025-02-28T00:54:23Z
60,256.303545,0.737106,8.11734,44.936819,283.713545,47.900414,2.726765,3,-93.172145,7.326811,2025-02-28T00:54:24Z,-0.257604,-0.9715,-0.004077,2025-02-28T00:54:24Z,-0.355365,0.020695,0.371419,2025-02-28T00:54:24Z
61,256.006097,0.733734,7.453659,44.936873,283.416097,45.608715,2.542201,3,-93.172067,7.926564,2025-02-28T00:54:25Z,-0.247226,-0.968645,0.018217,2025-02-28T00:54:25Z,-0.251844,0.048368,0.57446,2025-02-28T00:54:25Z
62,257.07235,0.734628,7.257389,44.936932,284.48235,42.777126,2.385055,3,-93.171992,8.411558,2025-02-28T00:54:26Z,-0.264264,-0.955637,0.027386,2025-02-28T00:54:26Z,-0.354502,0.168385,0.528141,2025-02-28T00:54:26Z
63,256.948563,0.710181,7.258903,44.936988,284.358563,39.983902,2.257052,3,-93.171924,8.225518,2025-02-28T00:54:27Z,-0.274507,-0.961517,0.00894,2025-02-28T00:54:27Z,-0.552665,0.139204,0.447386,2025-02-28T00:54:27Z
64,257.267671,0.730676,7.257411,44.937053,284.677671,36.545486,3.891456,3,-93.171857,8.489063,2025-02-28T00:54:28Z,-0.282445,-0.958449,0.013186,2025-02-28T00:54:28Z,-0.495236,0.127582,0.42671,2025-02-28T00:54:28Z
65,257.05248,0.740927,7.31995,44.937113,284.46248,34.095963,4.057991,3,-93.171798,8.197835,2025-02-28T00:54:29Z,-0.278645,-0.966446,-0.001363,2025-02-28T00:54:29Z,-0.508514,0.077014,0.272036,2025-02-28T00:54:29Z
66,257.246876,0.732076,7.258965,44.937184,284.656876,32.381077,3.848543,3,-93.171731,8.680773,2025-02-28T00:54:30Z,-0.271687,-0.950298,0.007486,2025-02-28T00:54:30Z,-0.408807,0.217238,0.339146,2025-02-28T00:54:30Z
67,257.653505,0.737677,7.257727,44.937253,285.063504,29.049034,3.490755,3,-93.171674,8.729541,2025-02-28T00:54:31Z,-0.288191,-0.957132,0.017009,2025-02-28T00:54:31Z,-0.436363,0.125776,0.407105,2025-02-28T00:54:31Z
68,257.724609,0.705549,7.258466,44.937323,285.134609,27.551594,2.152788,3,-93.171622,8.720433,2025-02-28T00:54:32Z,-0.268538,-0.945391,0.036136,2025-02-28T00:54:32Z,-0.249744,0.245972,0.421046,2025-02-28T00:54:32Z
69,257.644212,0.707337,7.258957,44.937397,285.054212,23.538513,2.09918,3,-93.171575,8.616678,2025-02-28T00:54:33Z,-0.301822,-0.957968,0.017052,2025-02-28T00:54:33Z,-0.491125,0.091773,0.235639,2025-02-28T00:54:33Z
70,257.6688,0.740274,7.25881,44.937468,285.0788,21.147091,2.482611,3,-93.171537,8.446515,2025-02-28T00:54:34Z,-0.322262,-0.956658,0.027899,2025-02-28T00:54:34Z,-0.681708,0.105366,0.220655,2025-02-28T00:54:34Z
71,257.275602,0.74751,7.253618,44.937547,284.685602,17.952318000000002,3.263448,3,-93.171503,8.564826,2025-02-28T00:54:36Z,-0.318215,-0.92281,0.016878,2025-02-28T00:54:35Z,-0.552874,0.411116,0.144349,2025-02-28T00:54:35Z
72,257.517709,0.717673,7.257765,44.937623,284.927709,16.142881,2.832397,3,-93.171487,8.477124,2025-02-28T00:54:37Z,-0.334709,-0.95298,0.056945,2025-02-28T00:54:36Z,-0.729047,0.122496,0.339209,2025-02-28T00:54:36Z
73,257.991023,0.710404,7.257405,44.937689,285.401022,13.623266,2.557316,3,-93.171455,8.049453,2025-02-28T00:54:38Z,-0.301351,-0.949529,0.053194,2025-02-28T00:54:37Z,-0.291784,0.107626,0.354791,2025-02-28T00:54:37Z
74,257.853429,0.710634,7.258836,44.937758,285.263428,12.481264,2.377725,3,-93.171424,7.969817,2025-02-28T00:54:39Z,-0.292526,-0.942187,0.036882,2025-02-28T00:54:38Z,-0.34228,0.305019,0.2395,2025-02-28T00:54:38Z
75,257.233696,0.75677,7.414528,44.937833,284.643696,8.879475,2.756858,3,-93.17141,8.246593,2025-02-28T00:54:40Z,-0.292906,-0.964339,0.071194,2025-02-28T00:54:39Z,-0.168398,-0.117656,0.506624,2025-02-28T00:54:39Z
76,257.457,0.755733,7.406269,44.937906,284.867,6.692725,2.514304,3,-93.171406,8.259983,2025-02-28T00:54:41Z,-0.277673,-0.955297,0.078217,2025-02-28T00:54:40Z,-0.086088,0.106772,0.577885,2025-02-28T00:54:40Z
77,257.702171,0.71368,7.65779,44.937966,285.112171,2.27437,2.358197,3,-93.171403,7.549889,2025-02-28T00:54:42Z,-0.27222,-0.963964,0.047132,2025-02-28T00:54:41Z,-0.01868,-0.002611,0.359649,2025-02-28T00:54:41Z
78,257.89785,0.708308,7.391103,44.938038,285.30785,1.070865,2.246993,3,-93.171405,7.762439,2025-02-28T00:54:43Z,-0.253443,-0.947861,0.01282,2025-02-28T00:54:42Z,0.124568,0.142453,0.043366,2025-02-28T00:54:42Z
79,258.018278,0.723478,7.258772,44.938116,285.428278,358.442566,2.180231,3,-93.171388,8.27259,2025-02-28T00:54:44Z,-0.245592,-0.955841,0.00669,2025-02-28T00:54:43Z,0.360552,0.046416,0.052483,2025-02-28T00:54:43Z
80,258.072097,0.727864,7.258857,44.938191,285.482097,355.715668,2.120744,3,-93.171413,8.51588,2025-02-28T00:54:45Z,-0.24688,-0.96541,0.002489,2025-02-28T00:54:44Z,0.387793,-0.08348,0.068521,2025-02-28T00:54:44Z
81,258.014248,0.731127,7.258458,44.938274,285.424247,352.446106,2.078488,3,-93.171425,8.916734,2025-02-28T00:54:46Z,-0.242339,-0.963571,-0.045818,2025-02-28T00:54:45Z,0.45304,-0.026097,-0.269937,2025-02-28T00:54:45Z
82,257.745999,0.701253,7.255639,44.938363,285.155999,354.089935,2.049305,3,-93.171442,9.471843,2025-02-28T00:54:47Z,-0.282594,-0.969983,-0.057985,2025-02-28T00:54:46Z,0.085241,-0.170854,-0.243828,2025-02-28T00:54:46Z
83,257.467701,0.732177,7.251982,44.938454,284.877701,358.654449,2.033295,3,-93.171451,9.96155,2025-02-28T00:54:48Z,-0.306038,-0.931387,-0.065278,2025-02-28T00:54:47Z,-0.163618,0.270254,-0.405145,2025-02-28T00:54:47Z
84,257.404513,0.722478,7.256388,44.938545,284.814512,358.654449,2.182917,3,-93.17145,10.137942,2025-02-28T00:54:49Z,-0.296594,-0.949612,-0.057793,2025-02-28T00:54:48Z,0.009171,0.026318,-0.261503,2025-02-28T00:54:48Z
85,256.733666,0.744877,7.241945,44.938634,284.143666,357.329102,2.285636,3,-93.171452,10.081591,2025-02-28T00:54:50Z,-0.318565,-0.946793,-0.061765,2025-02-28T00:54:49Z,-0.23728,0.079022,-0.334957,2025-02-28T00:54:49Z
86,257.587308,0.782308,7.256759,44.938733,284.997308,357.039703,2.169671,3,-93.171442,10.583929,2025-02-28T00:54:51Z,-0.301581,-0.953914,-0.056951,2025-02-28T00:54:50Z,-0.162589,0.046241,-0.314247,2025-02-28T00:54:50Z
87,257.024534,0.734668,7.257542,44.938812,284.434534,357.039703,2.925981,3,-93.171456,9.763317,2025-02-28T00:54:52Z,-0.30055,-0.933565,-0.052862,2025-02-28T00:54:51Z,-0.021521,0.169864,-0.268543,2025-02-28T00:54:51Z
88,256.596416,0.748261,7.250546,44.938896,284.006416,356.274811,2.652671,3,-93.171465,9.480185,2025-02-28T00:54:53Z,-0.314994,-0.972129,-0.061447,2025-02-28T00:54:52Z,-0.24615,-0.117028,-0.332529,2025-02-28T00:54:52Z
89,256.662055,0.720422,7.256284,44.93898,284.072055,356.274811,2.623786,3,-93.171468,9.426461,2025-02-28T00:54:54Z,-0.26636,-0.945611,-0.054756,2025-02-28T00:54:53Z,0.115837,0.165876,-0.345653,2025-02-28T00:54:53Z
90,256.459171,0.7197,7.257088,44.939065,283.869171,356.274811,2.364842,3,-93.171475,9.432728,2025-02-28T00:54:55Z,-0.27802,-0.953012,-0.043023,2025-02-28T00:54:54Z,0.225263,-0.04955,-0.171429,2025-02-28T00:54:54Z
91,256.492324,0.714821,7.257714,44.939154,283.902324,358.457062,2.373109,3,-93.171474,9.634562,2025-02-28T00:54:56Z,-0.283718,-0.954487,-0.020068,2025-02-28T00:54:55Z,0.014974,0.045516,-0.125182,2025-02-28T00:54:55Z
92,256.099104,0.723228,7.25584,44.939243,283.509103,359.175873,2.343397,3,-93.171474,9.743108,2025-02-28T00:54:57Z,-0.302297,-0.963728,-0.016561,2025-02-28T00:54:56Z,-0.071929,-0.061143,-0.152794,2025-02-28T00:54:56Z
93,256.526087,0.711328,7.258754,44.939334,283.936087,359.175873,2.197375,3,-93.171477,9.878179,2025-02-28T00:54:58Z,-0.311303,-0.953931,-0.014157,2025-02-28T00:54:57Z,-0.121174,0.025698,-0.115248,2025-02-28T00:54:57Z
94,256.010499,0.722884,7.25401,44.939419,283.420499,0.331671,2.129467,3,-93.171475,9.653528,2025-02-28T00:54:59Z,-0.308256,-0.936833,-0.015552,2025-02-28T00:54:58Z,-0.16601,0.138971,-0.063087,2025-02-28T00:54:58Z
95,255.289541,0.730681,7.22936,44.939507,282.699541,0.331671,2.196442,3,-93.171474,9.584371,2025-02-28T00:55:00Z,-0.310228,-0.958075,-0.02131,2025-02-28T00:54:59Z,-0.229547,0.036452,-0.080033000000000007,2025-02-28T00:54:59Z
96,255.240442,0.724397,7.239954,44.93959,282.650441,0.331671,2.114514,3,-93.171473,9.205034,2025-02-28T00:55:01Z,-0.311423,-0.940567,-0.031238,2025-02-28T00:55:00Z,-0.18928,0.157933,-0.1556,2025-02-28T00:55:00Z
97,255.785824,0.727134,7.25873,44.939678,283.195824,0,2.077972,3,-93.171475,9.403048,2025-02-28T00:55:02Z,-0.374408,-0.933249,-0.049694,2025-02-28T00:55:01Z,-0.792116,0.217956,-0.331675,2025-02-28T00:55:01Z
98,255.745384,0.752517,7.257714,44.939755,283.155384,0,2.046165,3,-93.171475,8.790154,2025-02-28T00:55:03Z,-0.422641,-0.917509,-0.065734,2025-02-28T00:55:02Z,-1.249309,0.355792,-0.467732,2025-02-28T00:55:02Z
99,256.173741,0.710713,7.380105,44.939824,283.583741,0,2.027828,3,-93.171476,7.803397,2025-02-28T00:55:04Z,-0.412328,-0.911741,-0.065365,2025-02-28T00:55:03Z,-1.103783,0.423239,-0.344042,2025-02-28T00:55:03Z
100,256.21728,0.718481,9.061698,44.939877,283.627279,0,2.019546,3,-93.171477,6.422652,2025-02-28T00:55:05Z,-0.348649,-0.936065,-0.045283,2025-02-28T00:55:04Z,-0.395968,0.13397,-0.131083,2025-02-28T00:55:04Z
101,256.002402,0.705037,10.627375,44.939918,283.412402,0.766425,2.014659,3,-93.17148,5.370635,2025-02-28T00:55:06Z,-0.384576,-0.924407,-0.05663,2025-02-28T00:55:05Z,-0.703327,0.253511,-0.243805,2025-02-28T00:55:05Z
102,255.878737,0.708827,12.501863,44.939957,283.288737,0.766425,2.011727,3,-93.171481,4.560595,2025-02-28T00:55:07Z,-0.406414,-0.92663,-0.061929,2025-02-28T00:55:06Z,-0.788232,0.17304,-0.223489,2025-02-28T00:55:06Z
103,256.246374,0.718383,16.380491,44.939986,283.656374,0.766425,2.039916,3,-93.171479,3.5443,2025-02-28T00:55:08Z,-0.395004,-0.915734,-0.075707,2025-02-28T00:55:07Z,-0.650521,0.270969,-0.279873,2025-02-28T00:55:07Z
104,256.108159,0.715603,27.162198,44.939999,283.518159,0.766425,2.065623,3,-93.171478,2.134159,2025-02-28T00:55:09Z,-0.378817,-0.928811,-0.072205,2025-02-28T00:55:08Z,-0.504893,0.14345,-0.178719,2025-02-28T00:55:08Z
105,256.148701,0.725872,47.197071,44.940009,283.558701,0.766425,2.05742,3,-93.171478,1.238322,2025-02-28T00:55:10Z,-0.33553500000000003,-0.939827,-0.060887,2025-02-28T00:55:09Z,-0.075926,0.031659,-0.062845,2025-02-28T00:55:09Z
106,256.278595,0.866814,180,44.940012,283.688594,0.766425,2.05104,3,-93.171479,0.306976,2025-02-28T00:55:11Z,-0.274554,-0.959412,-0.04129,2025-02-28T00:55:10Z,0.502174,-0.150472,0.112838,2025-02-28T00:55:10Z
107,256.530008,0.955221,180,44.940014,283.940008,0.766425,2.082103,3,-93.171478,0.084732,2025-02-28T00:55:12Z,-0.266756,-0.961359,-0.03902,2025-02-28T00:55:11Z,0.529914,-0.15519,0.128208,2025-02-28T00:55:11Z
108,256.653421,0.959672,180,44.940016,284.063421,0.766425,2.074639,3,-93.171477,0.229194,2025-02-28T00:55:13Z,-0.247399,-0.965214,-0.030838,2025-02-28T00:55:12Z,0.680913,-0.176647,0.185187,2025-02-28T00:55:12Z
109,256.605933,0.966439,154.961311,44.940024,284.015933,0.766425,2.185488,3,-93.171477,0.492753,2025-02-28T00:55:14Z,-0.314771,-0.949148,-0.058485,2025-02-28T00:55:13Z,0.013126,-0.018784,-0.039941,2025-02-28T00:55:13Z
110,256.593479,0.720074,125.836282,44.94003,284.003479,0.766425,2.17122,3,-93.171479,0.448325,2025-02-28T00:55:15Z,-0.309848,-0.948229,-0.058758,2025-02-28T00:55:14Z,0.065498,-0.013257,-0.01813,2025-02-28T00:55:14Z
111,256.664852,0.944233,180,44.940031,284.074852,0.766425,2.177107,3,-93.171478,0.071086,2025-02-28T00:55:16Z,-0.284023,-0.955515,-0.050814,2025-02-28T00:55:15Z,0.290471,-0.075496,0.055208,2025-02-28T00:55:15Z
112,256.567522,0.941264,180,44.940029,283.977522,0.766425,2.1653,3,-93.171475,0.083615,2025-02-28T00:55:17Z,-0.266415,-0.961122,-0.046223,2025-02-28T00:55:16Z,0.427773,-0.117497,0.091274,2025-02-28T00:55:16Z
113,256.473296,0.932893,180,44.940027,283.883295,0.766425,2.154969,3,-93.171477,0.086985,2025-02-28T00:55:18Z,-0.278251,-0.958299,-0.045917,2025-02-28T00:55:17Z,0.294651,-0.08209,0.065883,2025-02-28T00:55:17Z
114,256.418792,0.957262,180,44.940029,283.828792,0.766425,2.161755,3,-93.171475,0.345405,2025-02-28T00:55:19Z,-0.279081,-0.957407,-0.046137,2025-02-28T00:55:18Z,0.255845,-0.065207,0.060522,2025-02-28T00:55:18Z
115,256.319622,0.942767,180,44.94003,283.729621,0.766425,2.152769,3,-93.171477,0.225531,2025-02-28T00:55:20Z,-0.259673,-0.96367100000000006,-0.047342,2025-02-28T00:55:19Z,0.381988,-0.106493,0.073669,2025-02-28T00:55:19Z
116,258.239267,0.885637,180,44.940041,285.649266,0.766425,2.185369,3,-93.171483,0.783976,2025-02-28T00:55:21Z,-0.200238,-0.979473,-0.032457,2025-02-28T00:55:20Z,0.90116,-0.241933,0.209856,2025-02-28T00:55:20Z
117,258.087763,1.017208,38.189659,44.940047,285.497763,0.766425,2.26328,3,-93.171482,0.802205,2025-02-28T00:55:22Z,-0.129815,-1.009974,0.005041,2025-02-28T00:55:21Z,1.474715,-0.490944,0.484093,2025-02-28T00:55:21Z
118,257.708565,0.729161,30.067376,44.940068,285.118564,0.766425,2.303571,3,-93.171483,1.92072,2025-02-28T00:55:23Z,-0.153809,-1.002627,0.003573,2025-02-28T00:55:22Z,1.000081,-0.370291,0.425193,2025-02-28T00:55:22Z
119,257.654062,0.702743,17.826145,44.940103,285.064062,0.766425,2.306303,3,-93.171484,3.188454,2025-02-28T00:55:24Z,-0.158329,-0.976504,0.003373,2025-02-28T00:55:23Z,0.953965,-0.103062,0.486135,2025-02-28T00:55:23Z
120,257.656723,0.711908,13.79087,44.940144,285.066723,0.766425,2.290988,3,-93.171487,4.182826,2025-02-28T00:55:25Z,-0.209883,-0.952246,0.004324,2025-02-28T00:55:24Z,0.741986,0.04684,0.404062,2025-02-28T00:55:24Z
121,257.148585,0.711532,11.115228,44.940194,284.558585,0.792688,2.276439,3,-93.171496,5.140009,2025-02-28T00:55:26Z,-0.236254,-1.001395,-0.042999,2025-02-28T00:55:25Z,0.549776,-0.459897,0.014373,2025-02-28T00:55:25Z
122,256.776734,0.716709,9.512164,44.940251,284.186734,0.792688,2.262617,3,-93.171472,6.024993,2025-02-28T00:55:27Z,-0.204411,-0.962497,-0.128994,2025-02-28T00:55:26Z,0.450936,0.043629,-0.737138,2025-02-28T00:55:26Z
123,257.02903,0.727952,8.935106,44.94031,284.43903,2.715422,4.235122,3,-93.171467,6.601462,2025-02-28T00:55:28Z,-0.239842,-0.968938,-0.183568,2025-02-28T00:55:27Z,0.070795,-0.028461,-1.142236,2025-02-28T00:55:27Z
124,256.870975,0.707211,8.299718,44.940366,284.280975,11.287885,4.806689,3,-93.171449,6.905252,2025-02-28T00:55:29Z,-0.217448,-0.951421,-0.169133,2025-02-28T00:55:28Z,0.307947,0.139991,-0.949999,2025-02-28T00:55:28Z
125,256.814773,0.702054,8.235051,44.940422,284.224773,14.105501,4.498827,3,-93.171429,6.90798,2025-02-28T00:55:30Z,-0.221022,-0.971254,-0.128087,2025-02-28T00:55:29Z,0.316146,-0.03898,-0.729338,2025-02-28T00:55:29Z
126,256.879689,0.696992,8.173241,44.940474,284.289689,20.918842,4.510213,3,-93.171399,6.909995,2025-02-28T00:55:31Z,-0.215499,-0.961613,-0.114938,2025-02-28T00:55:30Z,0.4134,0.048942,-0.706883,2025-02-28T00:55:30Z
127,256.697884,0.684888,7.502303,44.940531,284.107883,26.622221,4.609556,3,-93.171358,7.398269,2025-02-28T00:55:32Z,-0.260518,-0.962718,-0.090688,2025-02-28T00:55:31Z,-9.8e-5,0.003193,-0.643602,2025-02-28T00:55:31Z
128,256.284956,0.685759,7.253013,44.940592,283.694955,30.510998,4.480477,3,-93.171307,7.997833,2025-02-28T00:55:33Z,-0.285906,-0.959529,-0.098959,2025-02-28T00:55:32Z,-0.308711,0.091677,-0.669645,2025-02-28T00:55:32Z
129,256.052002,0.837588,8.454264,44.940649,283.462002,34.335281,5.086064,3,-93.171252,8.014906,2025-02-28T00:55:34Z,-0.280667,-0.952078,-0.109688,2025-02-28T00:55:33Z,-0.322749,0.133597,-0.707183,2025-02-28T00:55:33Z
130,256.243328,0.781241,8.357008,44.94069,283.653328,43.928638,4.377131,3,-93.171193,7.570159,2025-02-28T00:55:34Z,-0.288071,-0.954429,-0.076678,2025-02-28T00:55:34Z,-0.350088,0.121944,-0.424191,2025-02-28T00:55:34Z
131,256.111208,0.735043,8.194008,44.940724,283.521208,51.63916,4.753587,3,-93.171125,7.254734,2025-02-28T00:55:35Z,-0.280851,-0.955193,-0.097574,2025-02-28T00:55:35Z,-0.330753,0.128364,-0.558573,2025-02-28T00:55:35Z
132,256.068172,0.716288,8.367563,44.940755,283.478171,53.994328,5.782979,3,-93.171053,6.929779,2025-02-28T00:55:37Z,-0.280021,-0.946689,-0.100818,2025-02-28T00:55:36Z,-0.275698,0.203696,-0.480076,2025-02-28T00:55:36Z
133,256.1408,0.707145,8.530976,44.940791,283.5508,53.994328,5.513865,3,-93.170984,6.714523,2025-02-28T00:55:38Z,-0.303189,-0.954106,-0.005625,2025-02-28T00:55:37Z,-0.42403,0.092848,0.383008,2025-02-28T00:55:37Z
134,256.128995,0.713469,8.702144,44.940827,283.538995,53.994328,5.05372,3,-93.170915,6.643216,2025-02-28T00:55:39Z,-0.305877,-0.94799,-0.010805,2025-02-28T00:55:38Z,-0.413325,0.142598,0.368943,2025-02-28T00:55:38Z
135,255.906691,0.691523,8.650982,44.940865,283.316691,50.304905,4.466189,3,-93.170852,6.472682,2025-02-28T00:55:40Z,-0.293064,-0.954428,0.014365,2025-02-28T00:55:39Z,-0.306082,0.103014,0.574169,2025-02-28T00:55:39Z
136,255.472988,0.694276,8.733041,44.940908,282.882988,44.542995,4.054617,3,-93.17079,6.410325,2025-02-28T00:55:41Z,-0.278925,-0.956946,0.028903,2025-02-28T00:55:40Z,-0.050398,0.031961,0.655661,2025-02-28T00:55:40Z
137,255.792806,0.707671,8.557894,44.940953,283.202806,44.542995,4.291168,3,-93.170729,6.700599,2025-02-28T00:55:42Z,-0.272648,-0.970591,0.004862,2025-02-28T00:55:41Z,-0.034875,-0.073225,0.46099,2025-02-28T00:55:41Z
138,255.302964,0.691351,8.493447,44.941001,282.712964,39.291161,3.586798,3,-93.170677,6.570052,2025-02-28T00:55:43Z,-0.263572,-0.9595,0.008378,2025-02-28T00:55:42Z,0.037595,0.038496,0.416184,2025-02-28T00:55:42Z
139,255.025718,0.693056,8.088901,44.941054,282.435718,35.530735,2.192289,3,-93.170624,6.918685,2025-02-28T00:55:44Z,-0.295985,-0.947202,-0.00365,2025-02-28T00:55:43Z,-0.249328,0.130857,0.35377,2025-02-28T00:55:43Z
140,255.452766,0.692813,7.807355,44.941108,282.862765,35.098267,2.159566,3,-93.170571,7.19008,2025-02-28T00:55:45Z,-0.310113,-0.95424,0.013489,2025-02-28T00:55:44Z,-0.403162,0.088742,0.495604,2025-02-28T00:55:44Z
141,255.699641,0.705023,8.108289,44.941163,283.109641,29.604988,2.327875,3,-93.170527,7.042503,2025-02-28T00:55:46Z,-0.324147,-0.942878,0.033601,2025-02-28T00:55:45Z,-0.45046,0.179026,0.714341,2025-02-28T00:55:45Z
142,255.864897,0.706917,8.27683,44.941226,283.274897,24.616247,2.25712,3,-93.170508,6.916607,2025-02-28T00:55:47Z,-0.352866,-0.928891,0.030699,2025-02-28T00:55:46Z,-0.702451,0.291032,0.654371,2025-02-28T00:55:46Z
143,255.451644,0.673312,8.156699,44.941284,282.861644,19.460375,2.204061,3,-93.170482,6.688003,2025-02-28T00:55:48Z,-0.404875,-0.932159,-0.031501,2025-02-28T00:55:47Z,-1.155644,0.224968,0.146041,2025-02-28T00:55:47Z
144,254.817484,0.696513,9.518241,44.941334,282.227484,19.460375,2.25435,3,-93.170466,5.89166,2025-02-28T00:55:49Z,-0.405637,-0.917138,-0.03965,2025-02-28T00:55:48Z,-1.139508,0.392764,-0.062547,2025-02-28T00:55:48Z
145,254.96345,0.715848,11.933824,44.941373,282.373449,10.038003,2.211959,3,-93.170455,4.856523,2025-02-28T00:55:50Z,-0.454568,-0.902039,-0.05719,2025-02-28T00:55:49Z,-1.434087,0.480255,-0.342207,2025-02-28T00:55:49Z
