seconds_elapsed,location_altitude,location_speedAccuracy,location_bearingAccuracy,location_latitude,location_altitudeAboveMeanSeaLevel,location_bearing,location_horizontalAccuracy,location_verticalAccuracy,location_longitude,location_speed,location_local_time,accelerometerUncalibrated_z,accelerometerUncalibrated_y,accelerometerUncalibrated_x,accelerometerUncalibrated_local_time,accelerometer_z,accelerometer_y,accelerometer_x,accelerometer_local_time
0,262.66064,2.366399,50.446671,44.941246,290.07064,119.111315,3.001953,3,-93.16709,3.767554,2025-03-28T02:46:17Z,-0.164715,-0.993418,-0.175039,2025-03-28T02:46:17Z,0.363486,-0.128442,-1.5772,2025-03-28T02:46:17Z
1,262.686915,2.291168,41.705351,44.941199,290.096915,145.682074,2.943015,3,-93.167066,4.418445,2025-03-28T02:46:18Z,-0.131736,-0.987802,-0.129425,2025-03-28T02:46:18Z,0.437563,-0.055221,-1.211106,2025-03-28T02:46:18Z
2,262.944978,2.214903,34.566433,44.941147,290.354978,168.995263,2.895283,3,-93.167065,5.175571,2025-03-28T02:46:19Z,-0.108954,-1.002875,-0.008826,2025-03-28T02:46:19Z,0.643283,-0.157826,-0.136988,2025-03-28T02:46:19Z
3,263.256516,2.119442,27.235631,44.941089,290.666515,181.253586,2.890057,3,-93.167065,6.250211,2025-03-28T02:46:20Z,-0.120557,-0.997186,0.01201,2025-03-28T02:46:20Z,0.525234,-0.127632,0.152082,2025-03-28T02:46:20Z
4,263.267597,2.058608,22.911904,44.941023,290.677597,181.253586,2.821747,3,-93.167064,7.170666,2025-03-28T02:46:22Z,-0.129152,-0.994419,0.028468,2025-03-28T02:46:21Z,0.402016,-0.089516,0.356505,2025-03-28T02:46:21Z
5,263.18969,1.993913,19.877714,44.940951,290.59969,180.861191,2.710525,3,-93.167067,8.010678,2025-03-28T02:46:23Z,-0.155669,-0.992084,0.013477,2025-03-28T02:46:22Z,0.10679,-0.062731,0.22562,2025-03-28T02:46:22Z
6,263.353804,1.995937,17.984786,44.940874,290.763804,180.861191,2.545576,3,-93.167067,8.578544,2025-03-28T02:46:24Z,-0.19548,-0.978815,0.022392,2025-03-28T02:46:23Z,-0.268068,0.075675,0.214197,2025-03-28T02:46:23Z
7,263.366867,1.975054,17.167345,44.940793,290.776867,180.112579,2.374711,3,-93.167067,8.810851,2025-03-28T02:46:25Z,-0.198677,-0.978053,0.013049,2025-03-28T02:46:24Z,-0.338956,0.075632,0.154824,2025-03-28T02:46:24Z
8,263.606273,2.025922,16.654392,44.940713,291.016273,180.112579,2.244187,3,-93.167065,8.897316,2025-03-28T02:46:26Z,-0.24628,-0.96968,0.007792,2025-03-28T02:46:25Z,-0.753278,0.145996,0.088314,2025-03-28T02:46:25Z
9,263.784765,1.988986,17.808082,44.940637,291.194765,180.112579,2.328548,3,-93.167066,8.621192,2025-03-28T02:46:27Z,-0.253259,-0.967428,0.012695,2025-03-28T02:46:26Z,-0.837542,0.190946,0.066636,2025-03-28T02:46:26Z
10,263.785763,2.013115,18.916213,44.940564,291.195763,180.112579,2.221641,3,-93.167066,8.219687,2025-03-28T02:46:28Z,-0.256371,-0.965549,5.46e-4,2025-03-28T02:46:27Z,-0.74378,0.179753,0.024877,2025-03-28T02:46:27Z
11,263.909832,2.045971,19.772784,44.940492,291.319832,180.112579,2.263988,3,-93.167067,7.940323,2025-03-28T02:46:29Z,-0.262193,-0.966516,0.005305,2025-03-28T02:46:28Z,-0.802444,0.165213,0.074924,2025-03-28T02:46:28Z
12,264.036297,2.036793,20.962784,44.940423,291.446296,180.112579,2.383377,3,-93.167061,7.592706,2025-03-28T02:46:30Z,-0.308056,-0.955472,-0.017424,2025-03-28T02:46:29Z,-1.15137,0.259819,-0.115457,2025-03-28T02:46:29Z
13,264.287038,2.23289,24.335598,44.940368,291.697038,180.112579,2.27128,3,-93.167065,6.575366,2025-03-28T02:46:31Z,-0.32885,-0.950007,-0.018982,2025-03-28T02:46:30Z,-1.310924,0.302209,-0.127746,2025-03-28T02:46:30Z
14,264.269319,2.428889,29.237361,44.940319,291.679319,179.591095,2.19814,3,-93.167066,5.49979,2025-03-28T02:46:32Z,-0.350234,-0.942499,-0.021435,2025-03-28T02:46:31Z,-1.45733,0.356493,-0.137412,2025-03-28T02:46:31Z
15,264.193683,2.836047,37.223375,44.940283,291.603683,179.591095,2.158512,3,-93.167068,4.230581,2025-03-28T02:46:33Z,-0.364313,-0.942969,-0.026416,2025-03-28T02:46:32Z,-1.486207,0.334043,-0.161888,2025-03-28T02:46:32Z
16,264.39805,3.527318,46.278002,44.940259,291.80805,179.591095,2.132093,3,-93.167072,2.877307,2025-03-28T02:46:34Z,-0.350817,-0.944996,-0.028445,2025-03-28T02:46:33Z,-1.224641,0.28649,-0.141739,2025-03-28T02:46:33Z
17,264.464291,4.084558,56.766559,44.940246,291.87429,179.591095,2.113223,3,-93.167072,1.613937,2025-03-28T02:46:35Z,-0.313771,-0.953531,-0.018636,2025-03-28T02:46:34Z,-0.744753,0.171944,-0.031911,2025-03-28T02:46:34Z
18,264.507167,3.778208,180,44.940244,291.917167,179.591095,2.09907,3,-93.167075,0.556035,2025-03-28T02:46:36Z,-0.253098,-0.96759,-0.009707,2025-03-28T02:46:35Z,-0.126826,0.028921,0.068028,2025-03-28T02:46:35Z
19,264.398505,3.73466,180,44.940246,291.808504,179.591095,2.088062,3,-93.167075,0.135162,2025-03-28T02:46:37Z,-0.211262,-0.977147,-0.002015,2025-03-28T02:46:36Z,0.311024,-0.070985,0.139513,2025-03-28T02:46:36Z
20,264.179421,3.728137,180,44.94025,291.589421,179.591095,2.079256,3,-93.16707,0.0435,2025-03-28T02:46:38Z,-0.212126,-0.977197,-0.001107,2025-03-28T02:46:37Z,0.306434,-0.071996,0.140834,2025-03-28T02:46:37Z
21,264.124298,3.73669,180,44.94025,291.534298,179.591095,2.073766,3,-93.167068,0.047707,2025-03-28T02:46:39Z,-0.211778,-0.977119,-0.001997,2025-03-28T02:46:38Z,0.30786,-0.071223,0.124863,2025-03-28T02:46:38Z
22,264.237579,3.732581,180,44.940247,291.647579,179.591095,2.067619,3,-93.167069,0.060998,2025-03-28T02:46:40Z,-0.211946,-0.977358,-0.001308,2025-03-28T02:46:39Z,0.294868,-0.069531,0.122672,2025-03-28T02:46:39Z
23,264.269788,3.739512,180,44.940245,291.679788,179.591095,2.062417,3,-93.16707,0.071792,2025-03-28T02:46:41Z,-0.21196,-0.977095,-0.001557,2025-03-28T02:46:40Z,0.268576,-0.061756,0.110104,2025-03-28T02:46:40Z
24,264.175553,3.733833,180,44.940246,291.585552,179.591095,2.073615,3,-93.167068,0.061817,2025-03-28T02:46:42Z,-0.212121,-0.976947,-0.001558,2025-03-28T02:46:41Z,0.250522,-0.055813,0.100091,2025-03-28T02:46:41Z
25,264.111137,3.725436,180,44.940245,291.521137,179.591095,2.114568,3,-93.167068,0,2025-03-28T02:46:43Z,-0.211913,-0.977133,-0.00153,2025-03-28T02:46:42Z,0.226415,-0.051778,0.099295,2025-03-28T02:46:42Z
26,264.111137,3.71889,180,44.940245,291.521137,179.591095,2.160323,3,-93.167068,0,2025-03-28T02:46:44Z,-0.185022,-0.98345,0.003405,2025-03-28T02:46:43Z,0.463435,-0.104869,0.134346,2025-03-28T02:46:43Z
27,264.441045,3.764137,180,44.940238,291.851045,179.591095,2.151038,3,-93.167073,0.309174,2025-03-28T02:46:45Z,-0.122795,-0.996778,0.015434,2025-03-28T02:46:44Z,1.015381,-0.224889,0.247185,2025-03-28T02:46:44Z
28,264.511101,3.760899,180,44.940225,291.9211,179.591095,2.165334,3,-93.167073,1.121253,2025-03-28T02:46:46Z,-0.058024,-1.011721,0.02785,2025-03-28T02:46:45Z,1.564579,-0.349117,0.360694,2025-03-28T02:46:45Z
29,264.701341,2.597608,82.729784,44.940198,292.111341,179.591095,2.156632,3,-93.167074,2.50333,2025-03-28T02:46:47Z,-0.072952,-1.006477,0.020754,2025-03-28T02:46:46Z,1.287957,-0.271911,0.301551,2025-03-28T02:46:46Z
30,264.744256,2.409297,47.854703,44.940157,292.154256,179.591095,2.148801,3,-93.167076,3.953053,2025-03-28T02:46:48Z,-0.095332,-1.002013,0.014219,2025-03-28T02:46:47Z,1.016017,-0.217977,0.228609,2025-03-28T02:46:47Z
31,264.62232,2.26217,35.036835,44.940109,292.03232,179.591095,2.14136,3,-93.167072,5.121515,2025-03-28T02:46:49Z,-0.118452,-0.997127,0.011007,2025-03-28T02:46:48Z,0.75073,-0.15784,0.212201,2025-03-28T02:46:48Z
32,264.724129,2.141665,27.63908,44.94005,292.134129,179.591095,2.134292,3,-93.167071000000007,6.15273,2025-03-28T02:46:50Z,-0.113513,-0.994292,0.002934,2025-03-28T02:46:49Z,0.750052,-0.126332,0.117721,2025-03-28T02:46:49Z
33,264.796547,2.030114,22.677987,44.939982,292.206547,180.917892,2.123498,3,-93.167072,7.247275,2025-03-28T02:46:51Z,-0.122216,-1.003922,0.002619,2025-03-28T02:46:50Z,0.646424,-0.208605,0.105843,2025-03-28T02:46:50Z
34,264.856176,1.983898,19.300293,44.939908,292.266175,180.917892,2.105455,3,-93.167071000000007,8.267814,2025-03-28T02:46:52Z,-0.106992,-0.998762,0.004548,2025-03-28T02:46:51Z,0.686447,-0.140423,0.018716,2025-03-28T02:46:51Z
35,264.881445,1.914734,16.706125,44.939825,292.291445,180.917892,2.079645,3,-93.167072,9.256991,2025-03-28T02:46:53Z,-0.123648,-0.999923,0.019393,2025-03-28T02:46:52Z,0.510095,-0.154125,0.103076,2025-03-28T02:46:52Z
36,265.012706,1.864862,14.705783,44.939733,292.422706,180.917892,2.052664,3,-93.167075,10.173563,2025-03-28T02:46:54Z,-0.136905,-0.99547,0.022743,2025-03-28T02:46:53Z,0.350104,-0.098287,0.1285,2025-03-28T02:46:53Z
37,265.009486,1.854108,13.31006,44.939635,292.419486,180.917892,2.03205,3,-93.167076,10.961988,2025-03-28T02:46:55Z,-0.153645,-0.987283,0.024849,2025-03-28T02:46:54Z,0.145047,-0.021737,0.15745,2025-03-28T02:46:54Z
38,265.098298,1.784113,12.515332,44.939532,292.508298,180.210192,2.018538,3,-93.167075,11.547366,2025-03-28T02:46:56Z,-0.148439,-0.997051,0.015179,2025-03-28T02:46:55Z,0.162624,-0.104333,0.049346,2025-03-28T02:46:55Z
39,265.307239,1.77455,11.809163,44.939423,292.717238,180.495626,2.009914,3,-93.167077,12.171597,2025-03-28T02:46:57Z,-0.146838,-0.989034,0.019801,2025-03-28T02:46:56Z,0.162502,-0.030428,0.070494,2025-03-28T02:46:56Z
40,265.384634,1.743391,11.008779,44.939306,292.794634,180.453791,2.005137,3,-93.167079,12.828365,2025-03-28T02:46:58Z,-0.154503,-0.986339,0.02347,2025-03-28T02:46:57Z,0.091275,-0.008699,0.155777,2025-03-28T02:46:57Z
41,265.505658,1.736957,10.478472,44.939186,292.915658,180.039639,2.002598,3,-93.167078,13.429048,2025-03-28T02:46:59Z,-0.158342,-0.987588,0.001223,2025-03-28T02:46:58Z,-0.024474,0.015747,-0.017004,2025-03-28T02:46:58Z
42,265.618109,1.736891,10.133831,44.939063,293.028109,180.246084,2.001286,3,-93.167076,13.885055,2025-03-28T02:47:00Z,-0.178201,-0.98555,-0.001416,2025-03-28T02:46:59Z,-0.163865,0.012077,-0.040299,2025-03-28T02:46:59Z
43,265.617637,1.717298,9.752071,44.938933,293.027637,180.329501,2.000614,3,-93.167078,14.265934,2025-03-28T02:47:01Z,-0.195454,-0.979289,0.011147,2025-03-28T02:47:00Z,-0.329827,0.055274,0.118692,2025-03-28T02:47:00Z
44,265.616009,1.691758,9.514446,44.938805,293.026009,180.472366,2.000291,3,-93.167076,14.406058,2025-03-28T02:47:02Z,-0.210412,-0.974261,-0.011531,2025-03-28T02:47:01Z,-0.469352,0.13269,-0.124915,2025-03-28T02:47:01Z
45,265.697687,1.710935,9.6046,44.938677,293.107686,180.21904,2.000137,3,-93.167076,14.433098,2025-03-28T02:47:03Z,-0.207082,-0.980642,-0.013218,2025-03-28T02:47:02Z,-0.451353,0.077302,-0.118505,2025-03-28T02:47:02Z
46,265.971354,1.709306,9.571665,44.938548,293.381354,180.21904,2.000064,3,-93.16708,14.467893,2025-03-28T02:47:04Z,-0.205414,-0.97575,-1.22e-4,2025-03-28T02:47:03Z,-0.398441,0.095347,-0.006752,2025-03-28T02:47:03Z
47,266.139739,1.694019,9.40697,44.938415,293.549739,179.689194,2.00003,3,-93.167082,14.59019,2025-03-28T02:47:05Z,-0.209826,-0.977836,-0.00243,2025-03-28T02:47:04Z,-0.377597,0.076303,-1.9e-5,2025-03-28T02:47:04Z
48,266.326712,1.729617,9.541075,44.938282,293.736712,179.689194,2.000014,3,-93.167082,14.686953,2025-03-28T02:47:06Z,-0.206056,-0.975452,-0.004889,2025-03-28T02:47:05Z,-0.340252,0.0932,-0.03719,2025-03-28T02:47:05Z
49,266.563941,1.725434,9.477645,44.93815,293.973941,179.070343,2.028769,3,-93.167082,14.749011,2025-03-28T02:47:07Z,-0.215231,-0.977942,-0.011395,2025-03-28T02:47:06Z,-0.38311,0.053629,-0.101192,2025-03-28T02:47:06Z
50,266.664355,1.710853,9.413062,44.938019,294.074355,180.672806,2.013328,3,-93.167078,14.725517,2025-03-28T02:47:08Z,-0.214425,-0.964097,-0.012325,2025-03-28T02:47:07Z,-0.307432,0.195435,-0.088541,2025-03-28T02:47:07Z
51,266.591804,1.68681,9.21603,44.937885,294.001804,180.672806,2.006075,3,-93.167079,14.830523,2025-03-28T02:47:09Z,-0.222069,-0.957518,0.003732,2025-03-28T02:47:08Z,-0.279052,0.221845,0.026674,2025-03-28T02:47:08Z
52,266.315374,1.700178,9.24032,44.93775,293.725373,181.013901,2.002767,3,-93.167079,14.90579,2025-03-28T02:47:10Z,-0.222833,-0.96431,-0.014861,2025-03-28T02:47:09Z,-0.190853,0.145083,-0.032425,2025-03-28T02:47:09Z
53,266.020894,1.68772,9.136421,44.937615,293.430893,180.398483,2.001256,3,-93.167081,14.960586,2025-03-28T02:47:11Z,-0.24053,-0.972218,-0.003479,2025-03-28T02:47:10Z,-0.280337,0.0493,0.02198,2025-03-28T02:47:10Z
54,265.952912,1.698905,9.179076,44.937479,293.362912,180.398483,2.331488,3,-93.167084,14.993688,2025-03-28T02:47:12Z,-0.230612,-0.972234,-0.009475,2025-03-28T02:47:11Z,-0.231793,0.063074,-0.083909,2025-03-28T02:47:11Z
55,265.674149,1.69916,9.154387,44.937344,293.084149,180.398483,2.149926,3,-93.167084,15.034991,2025-03-28T02:47:13Z,-0.239608,-0.969737,-0.010884,2025-03-28T02:47:12Z,-0.250877,0.065253,-0.09185,2025-03-28T02:47:12Z
56,265.35653,1.701558,9.193715,44.93721,292.76653,180,2.068078,3,-93.167084,14.991741,2025-03-28T02:47:14Z,-0.237028,-0.969994,-0.004165,2025-03-28T02:47:13Z,-0.252331,0.076296,0.01027,2025-03-28T02:47:13Z
57,265.049231,1.707116,9.17723,44.937071,292.45923,178.838928,2.113423,3,-93.167089,15.067218,2025-03-28T02:47:15Z,-0.241771,-0.980472,-0.011255,2025-03-28T02:47:14Z,-0.333773,0.006254,-0.008578,2025-03-28T02:47:14Z
58,264.980963,1.717276,9.190827,44.936932,292.390963,178.838928,3.032985,3,-93.167094,15.135682,2025-03-28T02:47:16Z,-0.228135,-0.967329,-0.007088,2025-03-28T02:47:15Z,-0.150614,0.069472,0.044985,2025-03-28T02:47:15Z
59,264.805444,1.696782,9.070167,44.936795,292.215443,178.838928,2.462022,3,-93.167092,15.153915,2025-03-28T02:47:17Z,-0.231883,-0.975383,-0.006561,2025-03-28T02:47:16Z,-0.154125,0.004204,0.016994,2025-03-28T02:47:16Z
60,264.737034,1.695484,9.011553,44.936658,292.147034,178.838928,2.206767,3,-93.167092,15.242069,2025-03-28T02:47:18Z,-0.227038,-0.97335,-0.007715,2025-03-28T02:47:17Z,-0.119206,0.029622,0.013172,2025-03-28T02:47:17Z
61,264.531428,1.695176,8.943371,44.936517,291.941428,179.746888,2.09146,3,-93.167092,15.35652,2025-03-28T02:47:19Z,-0.227407,-0.973133,-0.008759,2025-03-28T02:47:18Z,-0.121051,0.034118,0.010028,2025-03-28T02:47:18Z
62,264.401285,1.690555,8.85327,44.936376,291.811285,179.811714,2.039977,3,-93.167094,15.469844,2025-03-28T02:47:20Z,-0.233173,-0.969984,-0.030367,2025-03-28T02:47:19Z,-0.141983,0.05784,-0.106747,2025-03-28T02:47:19Z
63,264.038533,1.688198,8.848427,44.936237,291.448533,180.172521,2.017684,3,-93.167095,15.456015,2025-03-28T02:47:21Z,-0.257164,-0.962024,-0.035818,2025-03-28T02:47:20Z,-0.37046,0.132195,-0.146064,2025-03-28T02:47:20Z
64,263.855951,1.704952,9.117311,44.936101,291.265951,180.373734,2.0078,3,-93.167097,15.148556,2025-03-28T02:47:22Z,-0.255251,-0.973377,-0.0305,2025-03-28T02:47:21Z,-0.333956,0.018918,-0.13903,2025-03-28T02:47:21Z
65,263.740599,1.720841,9.346953,44.935967,291.150599,180.787157,2.003508,3,-93.1671,14.91654,2025-03-28T02:47:23Z,-0.23549,-0.968986,-0.008807,2025-03-28T02:47:22Z,-0.119706,0.058284,0.066497,2025-03-28T02:47:22Z
66,263.430797,1.700151,9.256286,44.935834,290.840796,180.402897,2.001605,3,-93.167099,14.880606,2025-03-28T02:47:24Z,-0.2305,-0.974195,-0.010278,2025-03-28T02:47:23Z,-0.053065,-0.00286,0.079504,2025-03-28T02:47:23Z
67,263.164383,1.6998,9.210865,44.935699,290.574382,180.200093,2.000728,3,-93.1671,14.950267,2025-03-28T02:47:25Z,-0.229236,-0.969362,-0.00683,2025-03-28T02:47:24Z,-0.033346,0.044634,0.111192,2025-03-28T02:47:24Z
68,263.015756,1.696639,9.146306,44.935564,290.425756,179.844342,2.00033,3,-93.167099,15.02737,2025-03-28T02:47:26Z,-0.233997,-0.975779,-0.016125,2025-03-28T02:47:25Z,-0.074586,-0.013955,0.030914,2025-03-28T02:47:25Z
69,262.883227,1.69331,9.165537,44.93543,290.293227,179.747963,2.00015,3,-93.167098,14.966534,2025-03-28T02:47:27Z,-0.270419,-0.963586,-0.036325,2025-03-28T02:47:26Z,-0.411895,0.093794,-0.143444,2025-03-28T02:47:26Z
70,262.826515,1.704644,9.444419,44.9353,290.236515,179.969352,2.000068,3,-93.167098,14.622652,2025-03-28T02:47:28Z,-0.25156,-0.967148,-0.024357,2025-03-28T02:47:27Z,-0.207413,0.055674,-0.043209,2025-03-28T02:47:27Z
71,262.714389,1.710007,9.576775,44.935171,290.124388,180.003061,2.173284,3,-93.167097,14.466374,2025-03-28T02:47:29Z,-0.252734,-0.968525,-0.014827,2025-03-28T02:47:28Z,-0.235311,0.042423,0.014541,2025-03-28T02:47:28Z
72,262.659811,1.705652,9.731978,44.935044,290.069811,179.959232,2.096646,3,-93.167098,14.199408,2025-03-28T02:47:30Z,-0.270901,-0.964581,-0.014796,2025-03-28T02:47:29Z,-0.345647,0.074190999999999993,0.026617,2025-03-28T02:47:29Z
73,262.622149,1.724112,10.074925,44.934918,290.032149,179.776319,2.045416,3,-93.167098,13.864393,2025-03-28T02:47:31Z,-0.297151,-0.961006,-0.015097,2025-03-28T02:47:30Z,-0.583753,0.105467,0.002873,2025-03-28T02:47:30Z
74,262.548613,1.712377,10.512116,44.934799,289.958613,179.584353,2.021664,3,-93.1671,13.198397,2025-03-28T02:47:32Z,-0.346076,-0.942907,0.02533,2025-03-28T02:47:31Z,-1.015049,0.260659,0.452214,2025-03-28T02:47:31Z
75,262.357906,1.769729,11.777549,44.93469,289.767906,176.241139,2.010754,3,-93.167088,12.173445,2025-03-28T02:47:33Z,-0.366698,-0.939978,0.028954,2025-03-28T02:47:32Z,-1.170087,0.277455,0.450707,2025-03-28T02:47:32Z
76,262.296005,1.812674,13.379078,44.934594,289.706005,172.938549,2.005613,3,-93.167066,10.976762,2025-03-28T02:47:34Z,-0.407891,-0.93347,-0.067254,2025-03-28T02:47:33Z,-1.514697,0.335072,-0.421013,2025-03-28T02:47:33Z
77,262.231693,1.865447,16.401479,44.934514,289.641693,172.993611,2.139906,3,-93.167052,9.212464,2025-03-28T02:47:35Z,-0.41353,-0.928937,-0.119871,2025-03-28T02:47:34Z,-1.605363,0.374767,-0.847872,2025-03-28T02:47:34Z
78,262.278761,1.997138,21.925147,44.93445,289.688761,175.138997,2.173134,3,-93.167048,7.37887,2025-03-28T02:47:36Z,-0.320421,-0.95192,-0.085001,2025-03-28T02:47:35Z,-0.698473,0.160833,-0.476381,2025-03-28T02:47:35Z
79,NA,NA,NA,NA,NA,NA,NA,NA,NA,NA,NA,-0.264071,-0.964518,-0.03068,2025-03-28T02:47:36Z,-0.128385,0.029014,0.047986,2025-03-28T02:47:36Z
