seconds_elapsed,location_altitude,location_speedAccuracy,location_bearingAccuracy,location_latitude,location_altitudeAboveMeanSeaLevel,location_bearing,location_horizontalAccuracy,location_verticalAccuracy,location_longitude,location_speed,location_local_time,accelerometerUncalibrated_z,accelerometerUncalibrated_y,accelerometerUncalibrated_x,accelerometerUncalibrated_local_time,accelerometer_z,accelerometer_y,accelerometer_x,accelerometer_local_time
0,249.676872,-0.206667,7.296861,44.940588,277.086872,45.973958,91.560879,4.666667,-93.177138,0.553333,2025-03-14T02:26:13Z,-0.289396,-0.964633,0.130069,2025-03-14T02:26:13Z,-0.5051,0.045993,0.69596,2025-03-14T02:26:13Z
1,251.636597,1.04,12.206565,44.94008,279.046597,98.4375,3.535534,3,-93.176963,5.52,2025-03-14T02:26:14Z,-0.184819,-0.974704,0.082264,2025-03-14T02:26:14Z,0.440824,-0.034748,0.178781,2025-03-14T02:26:14Z
2,251.563538,0.96,8.08261,44.94009,278.973537,90,3.535534,3,-93.176903,5.52,2025-03-14T02:26:15Z,-0.142318,-0.987925,0.050599,2025-03-14T02:26:15Z,0.804568,-0.15687,-0.187071,2025-03-14T02:26:15Z
3,251.639343,0.05,0.416805,44.940091,279.049343,90.305832,3.535534,3,-93.176807,6.35,2025-03-14T02:26:16Z,-0.1768,-0.995654,0.052371,2025-03-14T02:26:16Z,0.424694,-0.225765,-0.199775,2025-03-14T02:26:16Z
4,251.923401,0.05,0.381846,44.940092,279.333401,90.305832,3.535534,3,-93.176704,8.57,2025-03-14T02:26:17Z,-0.18543,-0.973443,0.043241,2025-03-14T02:26:17Z,0.310737,4.58e-4,-0.240246,2025-03-14T02:26:17Z
5,251.947754,0.05,0.363874,44.940092,279.357754,90,3.535534,3,-93.17659,9.22,2025-03-14T02:26:18Z,-0.193835,-0.988942,0.022767,2025-03-14T02:26:18Z,0.192127,-0.138558,-0.453808,2025-03-14T02:26:18Z
6,251.415344,0.05,0.347099,44.940093,278.825344,90,3.535534,3,-93.176479,9.22,2025-03-14T02:26:19Z,-0.216688,-0.974726,0.001438,2025-03-14T02:26:19Z,-0.070255,0.018311,-0.526528,2025-03-14T02:26:19Z
7,251.302734,0.05,0.342553,44.940096,278.712734,90,3.535534,3,-93.176359,9.45,2025-03-14T02:26:20Z,-0.226934,-0.966119,0.033432,2025-03-14T02:26:20Z,-0.17166,0.093356,-0.23641,2025-03-14T02:26:20Z
8,251.370117,0.2,1.334791,44.940096,278.780117,90,3.535534,3,-93.176233,9.97,2025-03-14T02:26:21Z,-0.215082,-0.97314,0.003201,2025-03-14T02:26:21Z,-0.068087,0.021992,-0.474869,2025-03-14T02:26:21Z
9,251.247925,0.11,0.703695,44.940097,278.657925,90.211685,3.535534,3,-93.176104,10.27,2025-03-14T02:26:22Z,-0.2304,-0.976248,-0.011248,2025-03-14T02:26:22Z,-0.167304,0.011971,-0.601914,2025-03-14T02:26:22Z
10,251.563416,0.06,0.386859,44.940094,278.973415,90.211685,3.535534,3,-93.175975,10.25,2025-03-14T02:26:23Z,-0.245737,-0.964604,-0.014721,2025-03-14T02:26:23Z,-0.34344,0.104909,-0.559845,2025-03-14T02:26:23Z
11,251.479248,1.88,8.033441,44.94008,278.889248,90.211685,3.535534,3,-93.175847,10.25,2025-03-14T02:26:24Z,-0.235921,-0.965989,0.004821,2025-03-14T02:26:24Z,-0.178107,0.103632,-0.320739,2025-03-14T02:26:24Z
12,252.292236,0.81,5.002112,44.940094,279.702236,90.211685,3.535534,3,-93.17571,10.51,2025-03-14T02:26:25Z,-0.227425,-0.984773,0.014108,2025-03-14T02:26:25Z,-0.095467,-0.092787,-0.276956,2025-03-14T02:26:25Z
13,252.292245,0.81,7.258975,44.940093,279.702245,90.211685,4.748652,4.029364,-93.175576,10.51,2025-03-14T02:26:26Z,-0.231079,-0.952201,-0.006747,2025-03-14T02:26:26Z,-0.132319,0.230264,-0.36378,2025-03-14T02:26:26Z
14,252.609506,0.308016,7.258975,44.940095,280.019506,90.211685,4.748652,4.029364,-93.17544,10.72,2025-03-14T02:26:27Z,-0.245478,-0.977461,0.025495,2025-03-14T02:26:27Z,-0.259483,-0.027308,-0.115676,2025-03-14T02:26:27Z
15,253.140206,1.61,12.412544,44.940082,280.550206,90.211685,4.748652,4.029364,-93.175317,10.51,2025-03-14T02:26:28Z,-0.251701,-0.959922,-0.008291,2025-03-14T02:26:28Z,-0.306302,0.142659,-0.381783,2025-03-14T02:26:28Z
16,253.945077,1.61,12.388969,44.940083,281.355077,90.211685,4.748652,4.029364,-93.175181,10.53,2025-03-14T02:26:29Z,-0.254603,-0.959564,0.01364,2025-03-14T02:26:29Z,-0.26802,0.135,-0.185677,2025-03-14T02:26:29Z
17,253.887277,2.4,18.468028,44.940078,281.297277,90.292648,4.748652,4.029364,-93.175038,10.53,2025-03-14T02:26:30Z,-0.246128,-0.971381,0.008078,2025-03-14T02:26:30Z,-0.163717,0.017003,-0.24687,2025-03-14T02:26:30Z
18,254.546396,0.78,7.258975,44.940089,281.956395,90.292648,4.748652,4.029364,-93.174903,10.58,2025-03-14T02:26:31Z,-0.245223,-0.961634,0.029414,2025-03-14T02:26:31Z,-0.157559,0.105128,-0.090299,2025-03-14T02:26:31Z
19,254.764047,0.308017,7.258975,44.94009,282.174047,90.292648,4.748652,4.029364,-93.174761,10.66,2025-03-14T02:26:32Z,-0.252402,-0.971343,-0.006596,2025-03-14T02:26:32Z,-0.197426,0.010148,-0.351325,2025-03-14T02:26:32Z
20,254.628305,0.308016,7.258975,44.940091,282.038305,90.142532,4.748652,4.029364,-93.174627,10.66,2025-03-14T02:26:33Z,-0.234902,-0.957381,-0.004504,2025-03-14T02:26:33Z,-0.043348,0.145324,-0.259945,2025-03-14T02:26:33Z
21,254.748239,0.308016,7.258975,44.94009,282.158239,90.142532,4.748652,4.029364,-93.174492,10.66,2025-03-14T02:26:34Z,-0.245789,-0.977518,0.024061,2025-03-14T02:26:34Z,-0.085267,-0.060792,-0.02868,2025-03-14T02:26:34Z
22,254.921274,0.308016,7.258975,44.940089,282.331274,90.142532,4.748652,4.029364,-93.174353,10.71,2025-03-14T02:26:35Z,-0.21161,-0.969344,0.018846,2025-03-14T02:26:35Z,0.243468,0.02179,-0.064238,2025-03-14T02:26:35Z
23,254.920176,0.308016,7.258975,44.940089,282.330176,90.142532,4.748652,4.029364,-93.174207,11.08,2025-03-14T02:26:36Z,-0.230662,-0.961358,0.013129,2025-03-14T02:26:36Z,0.157858,0.05848,-0.063697,2025-03-14T02:26:36Z
24,254.799815,0.308016,7.258975,44.940092,282.209815,90,4.748652,4.029364,-93.174064,11.43,2025-03-14T02:26:37Z,-0.22178,-0.952883,0.010091,2025-03-14T02:26:37Z,0.316507,0.149006,-0.139438,2025-03-14T02:26:37Z
25,254.959605,0.308017,7.258975,44.94009,282.369605,90,4.748652,4.029364,-93.173919,11.43,2025-03-14T02:26:38Z,-0.265409,-0.967625,0.004183,2025-03-14T02:26:38Z,-0.063973,-0.030974,-0.126074,2025-03-14T02:26:38Z
26,254.656566,0.37,7.258975,44.94009,282.066566,90,4.748652,4.029364,-93.173763,11.82,2025-03-14T02:26:39Z,-0.264741,-0.966587,0.001313,2025-03-14T02:26:39Z,-0.070311,0.010102999999999999,-0.095808,2025-03-14T02:26:39Z
27,254.646679,1.17,7.86097,44.940087,282.056679,90,4.748652,4.029364,-93.173607,12.06,2025-03-14T02:26:40Z,-0.256603,-0.959526,0.014346,2025-03-14T02:26:40Z,0.042965,0.055768,-0.041513,2025-03-14T02:26:40Z
28,254.898022,0.58,7.258975,44.940091,282.308022,90,4.748652,4.029364,-93.173458,12.1,2025-03-14T02:26:41Z,-0.26886,-0.95884,-0.003688,2025-03-14T02:26:41Z,-0.075939,0.060422,-0.213819,2025-03-14T02:26:41Z
29,255.179943,0.308016,7.258975,44.940076,282.589943,90,4.748652,4.029364,-93.1733,12.26,2025-03-14T02:26:42Z,-0.259751,-0.964574,-0.002581,2025-03-14T02:26:42Z,-0.001286,0.008818,-0.180048,2025-03-14T02:26:42Z
30,255.333996,0.308017,7.258975,44.94009,282.743996,90,4.748652,4.029364,-93.173145,12.26,2025-03-14T02:26:43Z,-0.245467,-0.967429,3.78e-4,2025-03-14T02:26:43Z,0.132035,-0.017404,-0.064639,2025-03-14T02:26:43Z
31,255.900098,0.74,7.258975,44.940076,283.310097,90,4.748652,4.029364,-93.172986,12.39,2025-03-14T02:26:44Z,-0.273202,-0.955816,0.017807,2025-03-14T02:26:44Z,-0.119818,0.089781,0.064181,2025-03-14T02:26:44Z
32,255.993054,2.03,13.138002,44.940076,283.403054,90,4.748652,4.029364,-93.172829,12.52,2025-03-14T02:26:45Z,-0.241573,-0.973925,0.005539,2025-03-14T02:26:45Z,0.167749,-0.06798,-0.074971,2025-03-14T02:26:45Z
33,256.822401,1.267172,8.054231,44.940076,284.232401,90.098969,2,3,-93.17265,12.747758,2025-03-14T02:26:46Z,-0.293679,-0.94762,0.002084,2025-03-14T02:26:46Z,-0.343095,0.169113,-0.106609,2025-03-14T02:26:46Z
34,257.00828,1.271196,8.037039,44.940089,284.41828,90.098969,2,3,-93.172483,12.815722,2025-03-14T02:26:47Z,-0.27349,-0.951904,-0.003102,2025-03-14T02:26:47Z,-0.121333,0.142862,-0.105767,2025-03-14T02:26:47Z
35,257.178898,1.267973,8.115721,44.940085,284.588898,90.098969,2.302252,3,-93.172321,12.65934,2025-03-14T02:26:48Z,-0.252874,-0.968095,-0.017276,2025-03-14T02:26:48Z,0.027473,-0.020282,-0.23933,2025-03-14T02:26:48Z
36,257.262673,0.667252,7.25862,44.94008,284.672673,90.098969,2.154317,3,-93.172168,12.439583,2025-03-14T02:26:49Z,-0.271047,-0.953314,-0.002093,2025-03-14T02:26:49Z,-0.095248,0.114045,-0.130385,2025-03-14T02:26:49Z
37,257.264466,0.642696,7.258909,44.940082,284.674466,90.147057,2.079076,3,-93.172002,12.811513,2025-03-14T02:26:50Z,-0.273878,-0.9696,-0.003462,2025-03-14T02:26:50Z,-0.133311,-0.040446,-0.134266,2025-03-14T02:26:50Z
38,257.350486,0.645365,7.258929,44.94008,284.760486,90.147057,2.072955,3,-93.171846,12.616933,2025-03-14T02:26:51Z,-0.262014,-0.954984,0.004925,2025-03-14T02:26:51Z,-0.01466,0.104383,-0.044587,2025-03-14T02:26:51Z
39,257.330205,0.641434,7.258966,44.940077,284.740205,90.147057,2.127981,3,-93.171688,12.562757,2025-03-14T02:26:52Z,-0.284299,-0.963389,0.020609,2025-03-14T02:26:52Z,-0.186887,0.004044,0.041765,2025-03-14T02:26:52Z
40,257.193561,0.641572,7.258822,44.940079,284.603561,90.147057,2.197934,3,-93.171529,12.603614,2025-03-14T02:26:53Z,-0.275813,-0.946492,0.003895,2025-03-14T02:26:53Z,-0.086311,0.189186,-0.035202,2025-03-14T02:26:53Z
41,257.264436,0.643015,7.258974,44.940079,284.674436,90.141258,2.474641,3,-93.171372,12.458408,2025-03-14T02:26:54Z,-0.277561,-0.977972,0.013974,2025-03-14T02:26:54Z,-0.221653,-0.126667,-0.052388,2025-03-14T02:26:54Z
42,257.563499,0.766399,7.258394,44.940087,284.973499,90.141258,2.520359,3,-93.171214,12.413727,2025-03-14T02:26:55Z,-0.287679,-0.95512300000000006,-0.002269,2025-03-14T02:26:55Z,-0.286995,0.099493,-0.11694,2025-03-14T02:26:55Z
43,258.502092,0.651161,7.253351,44.940087,285.912091,90.141258,2.305273,3,-93.17107,11.895898,2025-03-14T02:26:56Z,-0.255347,-0.961012,-0.013379,2025-03-14T02:26:56Z,0.019822,0.050633,-0.177442,2025-03-14T02:26:56Z
44,258.07602,0.655598,7.258934,44.940073,285.486019,90.141258,2.253072,3,-93.170927,11.477858,2025-03-14T02:26:57Z,-0.270138,-0.956586,-0.015089,2025-03-14T02:26:57Z,-0.132686,0.100878,-0.145476,2025-03-14T02:26:57Z
45,257.79216,0.648703,7.25896,44.940079,285.202159,90.141258,2.145086,3,-93.17077,11.887993,2025-03-14T02:26:58Z,-0.293137,-0.959925,0.002613,2025-03-14T02:26:58Z,-0.305935,0.04982,0.004005,2025-03-14T02:26:58Z
46,257.906951,0.648504,7.258971,44.940079,285.316951,90.141258,2.608484,3,-93.170627,11.541555,2025-03-14T02:26:59Z,-0.273686,-0.952944,-0.002886,2025-03-14T02:26:59Z,-0.10977,0.114012,-0.03953,2025-03-14T02:26:59Z
47,258.243938,0.646785,7.258004,44.94008,285.653938,90.141258,2.428482,3,-93.170489,11.127762,2025-03-14T02:27:00Z,-0.257393,-0.971323,-0.009828,2025-03-14T02:27:00Z,0.040556,-0.057468,-0.06445,2025-03-14T02:27:00Z
48,258.204559,0.648434,7.258428,44.940084,285.614559,90.141258,2.23307,3,-93.170349,11.079662,2025-03-14T02:27:01Z,-0.252053,-0.959893,6.02e-4,2025-03-14T02:27:01Z,0.111839,0.046398,0.031166,2025-03-14T02:27:01Z
49,258.567284,0.646807,7.258026,44.940082,285.977284,90.339111,2.126039,3,-93.170204,11.221717,2025-03-14T02:27:02Z,-0.253465,-0.962487,-0.003125,2025-03-14T02:27:02Z,0.104417,0.020703,-0.02258,2025-03-14T02:27:02Z
50,258.49354,0.64802,7.258555,44.940081,285.90354,90.339111,2.403593,3,-93.170065,11.145507,2025-03-14T02:27:03Z,-0.269529,-0.967934,-7.36e-4,2025-03-14T02:27:03Z,-0.050231,-0.037038,-0.03797,2025-03-14T02:27:03Z
51,258.844591,0.64883,7.257114,44.940081,286.254591,90.339111,2.262667,3,-93.169927,11.0366,2025-03-14T02:27:04Z,-0.24973,-0.96753,0.003463,2025-03-14T02:27:04Z,0.155341,-0.037597,-0.039955,2025-03-14T02:27:04Z
52,258.731557,0.648307,7.258801,44.940082,286.141556,90.18795,2.260507,3,-93.169786,11.06771,2025-03-14T02:27:05Z,-0.244832,-0.959823,0.005738,2025-03-14T02:27:05Z,0.191521,0.056075,-0.024656,2025-03-14T02:27:05Z
53,258.811935,0.647381,7.25875,44.940083,286.221935,90.18795,2.523917,3,-93.169645,11.05242,2025-03-14T02:27:06Z,-0.29252,-0.957681,0.007247,2025-03-14T02:27:06Z,-0.259108,0.053808,-0.022008,2025-03-14T02:27:06Z
54,258.737989,0.650519,7.25892,44.940083,286.147989,90.18795,2.731712,3,-93.169507,10.94401,2025-03-14T02:27:07Z,-0.291292,-0.954056,-0.0086,2025-03-14T02:27:07Z,-0.257086,0.09885,-0.087833,2025-03-14T02:27:07Z
55,259.250518,0.649442,7.254609,44.940081,286.660518,90.375916,2.404735,3,-93.169378,10.411597,2025-03-14T02:27:08Z,-0.266766,-0.97394,-0.008498,2025-03-14T02:27:08Z,-0.068141,-0.079598,-0.100169,2025-03-14T02:27:08Z
56,259.522509,0.65333,7.252613,44.940082,286.932509,90.460701,2.227826,3,-93.169249,10.225858,2025-03-14T02:27:09Z,-0.229734,-0.966422,0.004877,2025-03-14T02:27:09Z,0.238851,-0.003157,0.057692,2025-03-14T02:27:09Z
57,258.699154,0.645534,7.255728,44.940079,286.109154,90.460701,2.128381,3,-93.169114,10.554621,2025-03-14T02:27:10Z,-0.22745,-0.969742,0.012678,2025-03-14T02:27:10Z,0.264382,-0.049928,0.110913,2025-03-14T02:27:10Z
58,259.300805,0.6483,7.255525,44.940077,286.710805,90.460701,2.304892,3,-93.168985,10.375132,2025-03-14T02:27:11Z,-0.238889,-0.977072,-0.021007,2025-03-14T02:27:11Z,0.163957,-0.076287,-0.177538,2025-03-14T02:27:11Z
59,259.472927,0.651868,7.254277,44.94008,286.882926,90.150787,2.170592,3,-93.168853,10.341103,2025-03-14T02:27:12Z,-0.226732,-0.967588,0.003288,2025-03-14T02:27:12Z,0.217485,0.006003,0.03285,2025-03-14T02:27:12Z
60,259.958537,0.652044,7.252885,44.940078,287.368537,90.150787,2.094951,3,-93.168715,10.575285,2025-03-14T02:27:13Z,-0.233452,-0.968379,0.010209,2025-03-14T02:27:13Z,0.186913,-0.004567,0.077665,2025-03-14T02:27:13Z
61,260.717816,0.774417,7.247163,44.940076,288.127815,90.150787,2.05303,3,-93.168581,10.584747,2025-03-14T02:27:14Z,-0.237503,-0.969677,0.016197,2025-03-14T02:27:14Z,0.149671,-0.021155,0.111978,2025-03-14T02:27:14Z
62,260.314043,0.996105,7.784001,44.940069,287.724042,90.150787,2.029836,3,-93.168453,10.369625,2025-03-14T02:27:15Z,-0.243404,-0.971383,0.007791,2025-03-14T02:27:15Z,0.082489,-0.034779,0.009215,2025-03-14T02:27:15Z
63,260.03876,0.666266,7.258745,44.940061,287.44876,90.143547,2.31576,3,-93.1683,11.061079,2025-03-14T02:27:16Z,-0.294488,-0.954204,-0.002423,2025-03-14T02:27:16Z,-0.408528,0.128517,-0.067717,2025-03-14T02:27:16Z
64,261.715583,0.660596,7.23564,44.940075,289.125583,90.143547,2.176147,3,-93.168178,10.208744,2025-03-14T02:27:17Z,-0.291836,-0.952558,-0.012695,2025-03-14T02:27:17Z,-0.404589,0.151161,-0.141746,2025-03-14T02:27:17Z
65,261.81127,0.653021,7.250415,44.940077,289.22127,90.143547,2.099924,3,-93.168054,9.827575,2025-03-14T02:27:18Z,-0.313288,-0.948885,-0.019605,2025-03-14T02:27:18Z,-0.567341,0.177112,-0.205182,2025-03-14T02:27:18Z
66,261.7387,0.657294,7.257313,44.940074,289.1487,90.143547,2.058316,3,-93.167943,9.115441,2025-03-14T02:27:19Z,-0.30953,-0.947629,-0.010306,2025-03-14T02:27:19Z,-0.500057,0.179423,-0.106278,2025-03-14T02:27:19Z
67,261.854494,0.65256,7.257218,44.940078,289.264494,89.802124,2.1382,3,-93.167842,8.409573,2025-03-14T02:27:20Z,-0.29725,-0.954165,0.017333,2025-03-14T02:27:20Z,-0.37397,0.115051,0.191708,2025-03-14T02:27:20Z
68,261.90271,0.656701,7.257554,44.940082,289.31271,89.802124,2.092893,3,-93.167745,7.884646,2025-03-14T02:27:21Z,-0.294223,-0.952945,0.013347,2025-03-14T02:27:21Z,-0.314389,0.118399,0.172616,2025-03-14T02:27:21Z
69,262.352935,0.65366,7.251381,44.940065,289.762935,89.802124,2.179673,3,-93.167654,7.460419,2025-03-14T02:27:22Z,-0.283561,-0.956648,-0.015824,2025-03-14T02:27:22Z,-0.188904,0.075895,-0.139979,2025-03-14T02:27:22Z
70,262.502264,0.660993,7.522362,44.940066,289.912264,89.802124,2.126353,3,-93.167564,7.106157,2025-03-14T02:27:23Z,-0.279622,-0.956693,-0.037346,2025-03-14T02:27:23Z,-0.097806,0.057031,-0.337888,2025-03-14T02:27:23Z
71,262.842944,0.64829,7.987219,44.940066,290.252944,89.802124,2.089813,3,-93.167483,6.564478,2025-03-14T02:27:24Z,-0.303262,-0.948658,-0.030903,2025-03-14T02:27:24Z,-0.267207,0.126444,-0.270452,2025-03-14T02:27:24Z
72,262.91655,0.654301,8.867625,44.940082,290.326549,89.613396,2.282146,3,-93.16741,5.978664,2025-03-14T02:27:25Z,-0.348072,-0.936943,-0.051738,2025-03-14T02:27:25Z,-0.675914,0.232544,-0.350709,2025-03-14T02:27:25Z
73,262.956924,0.651108,10.663493,44.94008,290.366924,89.613396,2.283147,3,-93.167351,4.94763,2025-03-14T02:27:26Z,-0.359183,-0.934023,-0.058335,2025-03-14T02:27:26Z,-0.771891,0.245346,-0.323097,2025-03-14T02:27:26Z
74,263.022409,0.653733,14.159581,44.940078,290.432409,89.613396,2.376581,3,-93.167309,3.74119,2025-03-14T02:27:27Z,-0.385182,-0.927716,-0.063257,2025-03-14T02:27:27Z,-0.962295,0.291932,-0.333424,2025-03-14T02:27:27Z
75,NA,NA,NA,NA,NA,NA,NA,NA,NA,NA,NA,-0.374947,-0.932641,-0.057301,2025-03-14T02:27:28Z,-0.813486,0.230321,-0.26966,2025-03-14T02:27:28Z
