seconds_elapsed,location_altitude,location_speedAccuracy,location_bearingAccuracy,location_latitude,location_altitudeAboveMeanSeaLevel,location_bearing,location_horizontalAccuracy,location_verticalAccuracy,location_longitude,location_speed,location_local_time,accelerometerUncalibrated_z,accelerometerUncalibrated_y,accelerometerUncalibrated_x,accelerometerUncalibrated_local_time,accelerometer_z,accelerometer_y,accelerometer_x,accelerometer_local_time
0,259.028392,1.03,32.453309,44.939055,286.438392,196.875,7.051825,5.021874,-93.169622,1.95,2025-03-14T01:59:34Z,-0.235125,-0.966879,-0.058227,2025-03-14T01:59:34Z,0.398367,-0.05305,-0.745827,2025-03-14T01:59:34Z
1,263.167664,3.66,48.572142,44.939027,290.577663,294.609375,7.287662,5.5,-93.169771,4.185,2025-03-14T01:59:35Z,-0.24471300000000001,-0.972968,0.013522,2025-03-14T01:59:35Z,0.292053,-0.115522,-0.049126,2025-03-14T01:59:35Z
2,260.567322,1.35,24.79986,44.939073,287.977322,277.734375,3.535534,3,-93.169809,4.18,2025-03-14T01:59:37Z,-0.216294,-0.972517,0.042422,2025-03-14T01:59:36Z,0.631595,-0.126754,0.170656,2025-03-14T01:59:36Z
3,261.226562,1.49,35.671571,44.939081,288.636562,284.765625,3.535534,3,-93.16984,3.44,2025-03-14T01:59:38Z,-0.193046,-0.979759,0.061398,2025-03-14T01:59:37Z,0.758277,-0.153367,0.326272,2025-03-14T01:59:37Z
4,261.097046,1.86,18.284444,44.939083,288.507046,272.460938,3.535534,3,-93.169936,3.44,2025-03-14T01:59:39Z,-0.218194,-0.972112,0.029196,2025-03-14T01:59:38Z,0.509468,-0.109986,0.225985,2025-03-14T01:59:38Z
5,260.79071,2.01,20.620652,44.939077,288.20071,268.242188,3.535534,3,-93.17001,6.23,2025-03-14T01:59:40Z,-0.267559,-0.967079,0.025324,2025-03-14T01:59:39Z,-4.57e-4,-0.04061,0.165388,2025-03-14T01:59:39Z
6,260.94458,0.77,7.225935,44.939066,288.35458,264.023438,3.535534,3,-93.170099,6.94,2025-03-14T01:59:40Z,-0.281328,-0.957778,0.009669,2025-03-14T01:59:40Z,-0.207934,0.066928,0.086534,2025-03-14T01:59:40Z
7,259.229736,1.33,12.492974,44.939067,286.639736,268.242188,3.535534,3,-93.170192,6.92,2025-03-14T01:59:41Z,-0.299454,-0.946865,0.003043,2025-03-14T01:59:41Z,-0.382125,0.196164,0.003302,2025-03-14T01:59:41Z
8,259.290955,2.39,18.825828,44.939064,286.700954,265.429688,3.535534,3,-93.170295,6.94,2025-03-14T01:59:42Z,-0.293287,-0.950116,-0.022593,2025-03-14T01:59:42Z,-0.295375,0.143235,-0.133184,2025-03-14T01:59:42Z
9,258.644043,2.17,21.006141,44.939075,286.054043,272.8125,3.535534,3,-93.170373,6.92,2025-03-14T01:59:43Z,-0.278836,-0.970374,-0.020963,2025-03-14T01:59:43Z,-0.232671,-0.034279,-0.100283,2025-03-14T01:59:43Z
10,257.928833,2.63,26.363132,44.939069,285.338833,267.1875,3.535534,3,-93.170453,6.28,2025-03-14T01:59:44Z,-0.255407,-0.950896,-0.00176,2025-03-14T01:59:44Z,0.00497,0.149566,0.00747,2025-03-14T01:59:44Z
11,257.528198,3.18,30.505804,44.939061,284.938198,266.484375,3.535534,3,-93.170533,6.46,2025-03-14T01:59:45Z,-0.266215,-0.958378,-0.002896,2025-03-14T01:59:45Z,0.010024,0.057072,-0.023427,2025-03-14T01:59:45Z
12,257.066895,3.17,37.013902,44.939066,284.476894,273.867188,3.535534,3,-93.170595,6.28,2025-03-14T01:59:46Z,-0.250354,-0.959307,0.019856,2025-03-14T01:59:46Z,0.086194,0.056327,0.10765,2025-03-14T01:59:46Z
13,257.066898,3.17,40.901313,44.939069,284.476898,273.867131,4.748652,4.029364,-93.170674,6.28,2025-03-14T01:59:47Z,-0.26448,-0.975859,0.008965,2025-03-14T01:59:47Z,-0.033259,-0.094696,0.050571,2025-03-14T01:59:47Z
14,257.113529,1.72,21.574144,44.939071,284.523529,271.757755,4.748652,4.029364,-93.170786,6.46,2025-03-14T01:59:48Z,-0.289078,-0.94959,-5.57e-4,2025-03-14T01:59:48Z,-0.24169,0.131135,0.00428,2025-03-14T01:59:48Z
15,257.140874,0.93,9.661086,44.939068,284.550874,270.351493,4.748652,4.029364,-93.170901,7.8,2025-03-14T01:59:49Z,-0.301425,-0.944332,-0.038006,2025-03-14T01:59:49Z,-0.365183,0.21088,-0.351108,2025-03-14T01:59:49Z
16,256.995244,0.36,7.258975,44.939066,284.405244,269.99993,4.748652,4.029364,-93.171002,7.8,2025-03-14T01:59:50Z,-0.337952,-0.960548,-0.05313,2025-03-14T01:59:50Z,-0.760699,0.034796,-0.538777,2025-03-14T01:59:50Z
17,256.872807,0.93,9.85052,44.939074,284.282807,272.812432,4.748652,4.029364,-93.171096,7.65,2025-03-14T01:59:51Z,-0.356259,-0.935713,0.017681,2025-03-14T01:59:51Z,-0.725848,0.242282,0.031859,2025-03-14T01:59:51Z
18,256.221562,1.38,15.131162,44.939071,283.631562,268.945246,4.748652,4.029364,-93.17118,7.39,2025-03-14T01:59:52Z,-0.378696,-0.911941,0.030022,2025-03-14T01:59:52Z,-0.995491,0.484331,0.073904,2025-03-14T01:59:52Z
19,256.099612,0.52,7.258975,44.939086,283.509612,274.218695,4.748652,4.029364,-93.171246,6.21,2025-03-14T01:59:53Z,-0.445175,-0.917618,-0.012423,2025-03-14T01:59:53Z,-1.592427,0.39892,-0.359361,2025-03-14T01:59:53Z
20,255.922977,0.5,7.258975,44.939083,283.332977,270.351507,4.748652,4.029364,-93.171315,6.21,2025-03-14T01:59:54Z,-0.441573,-0.90415,-0.011756,2025-03-14T01:59:54Z,-1.520003,0.525454,-0.355831,2025-03-14T01:59:54Z
21,256.049013,0.99,16.505799,44.939077,283.459013,268.593707,4.748652,4.029364,-93.171353,4.86,2025-03-14T01:59:55Z,-0.415462,-0.924951,-0.007755,2025-03-14T01:59:55Z,-1.135629,0.280327,-0.311702,2025-03-14T01:59:55Z
22,255.309572,0.4,14.60657,44.939078,282.719572,268.945275,4.748652,4.029364,-93.171378,4.22,2025-03-14T01:59:56Z,-0.391591,-0.924464,-0.003992,2025-03-14T01:59:56Z,-0.681517,0.216831,-0.241416,2025-03-14T01:59:56Z
23,255.278748,0.308016,60.873273,44.939077,282.688747,266.484371,4.748652,4.029364,-93.171346,0.41,2025-03-14T01:59:57Z,-0.253963,-0.965306,0.038654,2025-03-14T01:59:57Z,0.655689,-0.180587,0.189641,2025-03-14T01:59:57Z
24,255.781433,0.95,137.459007,44.939074,283.191433,266.835932,4.748652,4.029364,-93.171357,0.56,2025-03-14T01:59:58Z,-0.182358,-0.984378,0.061572,2025-03-14T01:59:58Z,1.302465,-0.349108,0.389836,2025-03-14T01:59:58Z
25,255.781433,0.92,180,44.939074,283.191433,266.835938,4.748652,4.029364,-93.17135,0,2025-03-14T01:59:59Z,-0.117675,-1.00562,0.089046,2025-03-14T01:59:59Z,1.831257,-0.524992,0.595993,2025-03-14T01:59:59Z
26,255.848816,0.308016,44.567931,44.939071,283.258816,266.835932,4.748652,4.029364,-93.171388,0.56,2025-03-14T02:00:00Z,-0.169749,-0.990933,0.062092,2025-03-14T02:00:00Z,1.202012,-0.348305,0.347093,2025-03-14T02:00:00Z
27,255.534486,0.308016,7.258975,44.939066,282.944486,265.42965,4.748652,4.029364,-93.17148,4.22,2025-03-14T02:00:01Z,-0.182169,-0.97821,0.031485,2025-03-14T02:00:01Z,1.017881,-0.192693,0.161349,2025-03-14T02:00:01Z
28,256.00171,1.06,20.353122,44.939064,283.41171,267.187462,4.748652,4.029364,-93.171525,4.22,2025-03-14T02:00:02Z,-0.227744,-0.96017,0.018251,2025-03-14T02:00:02Z,0.63415,-0.032923,0.134245,2025-03-14T02:00:02Z
29,255.708131,2.34,44.930478,44.939057,283.118131,265.078087,4.748652,4.029364,-93.17158,4.22,2025-03-14T02:00:03Z,-0.243602,-0.961331,0.01303,2025-03-14T02:00:03Z,0.5806,-0.08844,-0.076495,2025-03-14T02:00:03Z
30,256.075075,0.79,14.25668,44.939049,283.485075,263.671835,4.748652,4.029364,-93.171669,4.49,2025-03-14T02:00:04Z,-0.262267,-0.976562,0.047153,2025-03-14T02:00:04Z,0.485536,-0.267967,0.068783,2025-03-14T02:00:04Z
31,256.039065,1.85,26.912507,44.939052,283.449065,268.945263,4.748652,4.029364,-93.171744,5.57,2025-03-14T02:00:05Z,-0.238853,-0.963665,0.039665,2025-03-14T02:00:05Z,0.594868,-0.108503,-0.016217,2025-03-14T02:00:05Z
32,256.126101,2.25,31.164796,44.939016,283.536101,249.960888,4.748652,4.029364,-93.171817,5.85,2025-03-14T02:00:06Z,-0.257948,-0.98262,0.046834,2025-03-14T02:00:06Z,0.378809,-0.272032,0.047029,2025-03-14T02:00:06Z
33,256.22139,1.174155,15.052312,44.939085,283.63139,282.173024,3.192252,3,-93.171904,6.309643,2025-03-14T02:00:07Z,-0.238886,-0.946976,0.014192,2025-03-14T02:00:07Z,0.479699,0.093174,-0.17013,2025-03-14T02:00:07Z
34,255.82357,1.312199,16.632679,44.939064,283.23357,266.502961,3.17513,3,-93.172004,6.373767,2025-03-14T02:00:08Z,-0.229013,-0.971902,0.036513,2025-03-14T02:00:08Z,0.587866,-0.141322,0.048179,2025-03-14T02:00:08Z
35,255.791431,1.630077,15.754671,44.939064,283.20143,269.049454,2.878745,3,-93.172141,8.374136,2025-03-14T02:00:09Z,-0.240128,-0.96598,0.054624,2025-03-14T02:00:09Z,0.459593,-0.108056,0.056204,2025-03-14T02:00:09Z
36,256.940965,0.801027,7.538666,44.93904,284.350965,266.541915,2.734382,3,-93.172249,8.585994,2025-03-14T02:00:10Z,-0.271933,-0.955277,0.037805,2025-03-14T02:00:10Z,0.122787,0.044367,0.048958,2025-03-14T02:00:10Z
37,256.56076,0.70895,7.258009,44.939046,283.97076,269.60215,2.4381,3,-93.172379,9.365294,2025-03-14T02:00:11Z,-0.296389,-0.952822,0.024417,2025-03-14T02:00:11Z,-0.211944,0.098385,-0.088687,2025-03-14T02:00:11Z
38,255.953062,0.687211,7.249368,44.939047,283.363062,270.211977,2.255147,3,-93.172498,9.302621,2025-03-14T02:00:12Z,-0.293865,-0.952237,0.028119,2025-03-14T02:00:12Z,-0.07707,0.033894,-0.047756,2025-03-14T02:00:12Z
39,255.996255,0.721429,7.254542,44.939041,283.406255,267.829599,2.150264,3,-93.172611,8.90038,2025-03-14T02:00:13Z,-0.289275,-0.94879,0.020838,2025-03-14T02:00:13Z,-0.11679200000000001,0.12614,-0.079994,2025-03-14T02:00:13Z
40,255.541317,0.714756,7.25302,44.939058,282.951316,274.338765,2.08738,3,-93.172739000000007,9.469944,2025-03-14T02:00:14Z,-0.293951,-0.957084,0.022771,2025-03-14T02:00:14Z,-0.109798,0.004118,-0.050497,2025-03-14T02:00:14Z
41,255.772533,0.716791,7.258942,44.93905,283.182533,270.518723,2.051747,3,-93.172849,8.985384,2025-03-14T02:00:15Z,-0.287296,-0.952461,0.031706,2025-03-14T02:00:15Z,-0.073799,0.07179,0.01269,2025-03-14T02:00:15Z
42,255.712561,0.722481,7.258892,44.939048,283.12256,268.706234,2.108274,3,-93.172978,9.394312,2025-03-14T02:00:16Z,-0.293872,-0.977196,-9.05e-4,2025-03-14T02:00:16Z,-0.170966,-0.161414,-0.220353,2025-03-14T02:00:16Z
43,255.492544,0.726311,7.258533,44.93905,282.902544,269.453015,2.064773,3,-93.173082,8.713088,2025-03-14T02:00:17Z,-0.306205,-0.934978,0.035502,2025-03-14T02:00:17Z,-0.283187,0.247368,0.023002,2025-03-14T02:00:17Z
44,255.97447,0.821529,8.295888,44.939053,283.38447,270.314717,3.091478,3,-93.173182,8.023051,2025-03-14T02:00:18Z,-0.320321,-0.957209,0.010112,2025-03-14T02:00:18Z,-0.497521,0.055141,-0.104816,2025-03-14T02:00:18Z
45,255.002255,0.722901,7.254623,44.939052,282.412255,270.24128,2.686828,3,-93.173312,8.825747,2025-03-14T02:00:19Z,-0.308103,-0.949003,-0.00723,2025-03-14T02:00:19Z,-0.423438,0.148983,-0.170176,2025-03-14T02:00:19Z
46,255.025207,0.692711,7.258137,44.939051,282.435207,269.661813,2.444291,3,-93.17342,8.457303,2025-03-14T02:00:20Z,-0.299143,-0.947186,0.006171,2025-03-14T02:00:20Z,-0.262709,0.128253,-0.140054,2025-03-14T02:00:20Z
47,255.181821,0.688431,7.258957,44.939047,282.591821,268.607992,2.324659,3,-93.173522,8.117212,2025-03-14T02:00:21Z,-0.305858,-0.942522,0.001267,2025-03-14T02:00:21Z,-0.297298,0.197598,-0.174683,2025-03-14T02:00:21Z
48,254.270313,0.681087,7.227885,44.939038,281.680313,264.763415,2.466738,3,-93.173613,7.516329,2025-03-14T02:00:22Z,-0.317902,-0.960826,-0.003574,2025-03-14T02:00:22Z,-0.528821,0.026785,-0.150722,2025-03-14T02:00:22Z
49,254.329328,0.693234,7.41431,44.939037,281.739328,267.906854,2.47948,3,-93.173715,7.523767,2025-03-14T02:00:23Z,-0.323668,-0.95023,-0.032751,2025-03-14T02:00:23Z,-0.519391,0.129596,-0.339222,2025-03-14T02:00:23Z
50,254.126111,0.672807,7.589105,44.939043,281.536111,271.731637,2.335244,3,-93.173804,7.140499,2025-03-14T02:00:24Z,-0.287664,-0.947223,-0.052624,2025-03-14T02:00:24Z,-0.192313,0.136819,-0.464771,2025-03-14T02:00:24Z
51,254.265118,0.693843,8.866263,44.939048,281.675118,274.378627,2.241915,3,-93.173879,6.336164,2025-03-14T02:00:25Z,-0.294099,-0.953496,-0.017629,2025-03-14T02:00:25Z,-0.218287,0.108513,-0.10808,2025-03-14T02:00:25Z
52,254.418219,0.677883,8.815136,44.939053,281.828218,273.99412,2.337995,3,-93.173962,6.232446,2025-03-14T02:00:26Z,-0.364707,-0.930962,-0.019356,2025-03-14T02:00:26Z,-0.890284,0.318855,-0.176343,2025-03-14T02:00:26Z
53,254.415439,0.711025,10.135533,44.939057,281.825439,273.3971,2.316329,3,-93.174034,5.677274,2025-03-14T02:00:27Z,-0.427568,-0.921207,-0.044422,2025-03-14T02:00:27Z,-1.432457,0.359891,-0.356673,2025-03-14T02:00:27Z
54,254.723737,0.684398,13.282465,44.93906,282.133737,273.551802,2.434,3,-93.174083,4.176055,2025-03-14T02:00:28Z,-0.432046,-0.916306,-0.04263,2025-03-14T02:00:28Z,-1.393313,0.399234,-0.400501,2025-03-14T02:00:28Z
55,255.152191,0.778661,22.290741,44.939059,282.562191,270.825151,2.550407,3,-93.174113,2.676714,2025-03-14T02:00:29Z,-0.372315,-0.931309,-0.024629,2025-03-14T02:00:29Z,-0.673132,0.209866,-0.189682,2025-03-14T02:00:29Z
56,254.701174,0.716456,53.352679,44.939062,282.111173,276.016242,2.481606,3,-93.174116,1.001754,2025-03-14T02:00:30Z,-0.234609,-0.970382,0.015358,2025-03-14T02:00:30Z,0.722606,-0.191291,0.189745,2025-03-14T02:00:30Z
57,255.086018,0.713313,60.63465,44.939061,282.496018,270.496325,2.428094,3,-93.174128,0.876123,2025-03-14T02:00:31Z,-0.084215,-1.011882,0.063435,2025-03-14T02:00:31Z,2.149407,-0.575529,0.639863,2025-03-14T02:00:31Z
58,255.062667,0.673538,28.528839,44.939062,282.472667,270.971592,2.385285,3,-93.174155,1.868426,2025-03-14T02:00:32Z,-0.112867,-1.001781,0.057285,2025-03-14T02:00:32Z,1.8587,-0.471188,0.558661,2025-03-14T02:00:32Z
59,255.284679,0.680079,14.239105,44.939063,282.694679,270.802646,2.376199,3,-93.174215,3.832943,2025-03-14T02:00:33Z,-0.132603,-0.995275,0.0354,2025-03-14T02:00:33Z,1.625045,-0.395692,0.377081,2025-03-14T02:00:33Z
60,255.318049,0.667904,10.644278,44.939061,282.728049,270.686977,2.457874,3,-93.174286,5.084621,2025-03-14T02:00:34Z,-0.155982,-0.980314,0.037735,2025-03-14T02:00:34Z,1.506916,-0.299722,0.390912,2025-03-14T02:00:34Z
61,255.216323,0.664339,8.242397,44.939059,282.626323,270.135354,2.524205,3,-93.174378,6.510994,2025-03-14T02:00:35Z,-0.184144,-0.986792,0.037454,2025-03-14T02:00:35Z,1.273293,-0.358098,0.36331,2025-03-14T02:00:35Z
62,255.21069,0.664062,7.258198,44.939059,282.62069,270.001361,2.456823,3,-93.174479,7.553096,2025-03-14T02:00:36Z,-0.21719,-0.977153,0.040508,2025-03-14T02:00:36Z,0.927414,-0.273415,0.312983,2025-03-14T02:00:36Z
63,254.6465,0.667589,7.247829,44.93905,282.0565,266.458442,2.631579,3,-93.174594,8.629527,2025-03-14T02:00:37Z,-0.249423,-0.96472,0.051532,2025-03-14T02:00:37Z,0.557274,-0.118367,0.383448,2025-03-14T02:00:37Z
64,255.091689,0.666575,7.258799,44.939051,282.501689,267.635975,2.576521,3,-93.174712,9.107952,2025-03-14T02:00:38Z,-0.230686,-0.975157,0.022001,2025-03-14T02:00:38Z,0.717023,-0.227424,0.160663,2025-03-14T02:00:38Z
65,254.660725,0.690119,7.256104,44.939044,282.070725,266.771195,2.748224,3,-93.174837,9.662959,2025-03-14T02:00:39Z,-0.243608,-0.95899,0.023077,2025-03-14T02:00:39Z,0.602492,-0.057246,0.114043,2025-03-14T02:00:39Z
66,254.113257,0.839873,7.254147,44.939049,281.523257,269.756471,2.901449,3,-93.174976,10.495569,2025-03-14T02:00:40Z,-0.260185,-0.961793,0.002881,2025-03-14T02:00:40Z,0.260199,-0.045338,-0.104939,2025-03-14T02:00:40Z
67,253.69792,0.749464,7.252105,44.939037,281.10792,266.819865,2.746719,3,-93.175106,10.527557,2025-03-14T02:00:41Z,-0.252921,-0.972473,0.001432,2025-03-14T02:00:41Z,0.355202,-0.163689,-0.054317,2025-03-14T02:00:41Z
68,253.834659,0.691411,7.258193,44.939039,281.244658,268.479779,2.424746,3,-93.175231,10.293567,2025-03-14T02:00:42Z,-0.254415,-0.944704,0.00202,2025-03-14T02:00:42Z,0.269472,0.155871,-0.033548,2025-03-14T02:00:42Z
69,253.905394,0.713244,7.258946,44.939026,281.315394,265.048338,2.232169,3,-93.175383,11.329072,2025-03-14T02:00:43Z,-0.271174,-0.982507,-0.016014,2025-03-14T02:00:43Z,0.063507,-0.235513,-0.208547,2025-03-14T02:00:43Z
70,253.224101,0.884602,7.256453,44.939019,280.634101,264.66148,2.245596,3,-93.175525,11.485132,2025-03-14T02:00:44Z,-0.281674,-0.937113,-0.018648,2025-03-14T02:00:44Z,0.006967,0.233731,-0.180061,2025-03-14T02:00:44Z
71,251.901066,0.733317,7.240828,44.939042,279.311066,272.075225,2.403506,3,-93.175673,11.589423,2025-03-14T02:00:45Z,-0.323156,-0.951675,-4.51e-4,2025-03-14T02:00:45Z,-0.430409,0.092344,-0.161742,2025-03-14T02:00:45Z
72,251.823431,0.706931,7.245059,44.939043,279.233431,271.818346,2.376481,3,-93.175796,10.606642,2025-03-14T02:00:46Z,-0.314872,-0.955055,0.016151,2025-03-14T02:00:46Z,-0.337895,0.034714,-0.036606,2025-03-14T02:00:46Z
73,252.035215,0.683654,7.255502,44.939041,279.445215,270.065895,2.455527,3,-93.175934,10.61606,2025-03-14T02:00:47Z,-0.315244,-0.946771,0.007064,2025-03-14T02:00:47Z,-0.377322,0.127444,-0.100267,2025-03-14T02:00:47Z
74,251.839069,0.704319,7.255152,44.939038,279.249068,268.83993,2.295879,3,-93.176062,10.322565,2025-03-14T02:00:48Z,-0.311193,-0.935519,0.011257,2025-03-14T02:00:48Z,-0.283997,0.251718,-0.025454,2025-03-14T02:00:48Z
75,251.482588,0.713965,7.25199,44.939039,278.892588,268.419695,2.275746,3,-93.176187,9.975097,2025-03-14T02:00:49Z,-0.311024,-0.948765,2e-5,2025-03-14T02:00:49Z,-0.372822,0.119413,-0.099205,2025-03-14T02:00:49Z
76,251.486336,0.674534,7.256669,44.93903,278.896335,266.372662,2.218019,3,-93.176319,10.154118,2025-03-14T02:00:50Z,-0.310062,-0.954241,-0.007061,2025-03-14T02:00:50Z,-0.272403,0.064013,-0.128412,2025-03-14T02:00:50Z
77,251.015349,0.713487,7.248152,44.939034,278.425349,268.87262,2.204196,3,-93.176434,9.474543,2025-03-14T02:00:51Z,-0.315144,-0.946218,-0.031969,2025-03-14T02:00:51Z,-0.368607,0.127077,-0.324566,2025-03-14T02:00:51Z
78,251.630783,0.680577,7.258779,44.939039,279.040783,271.144775,2.181585,3,-93.176551,9.157207,2025-03-14T02:00:52Z,-0.320399,-0.944758,-0.043896,2025-03-14T02:00:52Z,-0.405382,0.157635,-0.388992,2025-03-14T02:00:52Z
79,251.394664,0.87433399999999994,8.136841,44.939044,278.804664,273.287205,2.107577,3,-93.17666,8.700223,2025-03-14T02:00:53Z,-0.340363,-0.940671,-0.032061,2025-03-14T02:00:53Z,-0.503539,0.157526,-0.445424,2025-03-14T02:00:53Z
80,250.861909,0.68669500000000006,7.253201,44.939047,278.271908,273.521529,2.984638,3,-93.176773,8.612516,2025-03-14T02:00:54Z,-0.357065,-0.938788,-0.048398,2025-03-14T02:00:54Z,-0.61841,0.167726,-0.599659,2025-03-14T02:00:54Z
81,251.459887,0.679778,7.258851,44.939044,278.869887,271.279617,2.600511,3,-93.17687,7.92814,2025-03-14T02:00:55Z,-0.405934,-0.92038,-0.023558,2025-03-14T02:00:55Z,-1.121848,0.351727,-0.353701,2025-03-14T02:00:55Z
82,251.430718,0.690411,8.285301,44.939057,278.840718,275.531948,2.417766,3,-93.176949,6.751217,2025-03-14T02:00:56Z,-0.440374,-0.910492,-0.023614,2025-03-14T02:00:56Z,-1.342775,0.416327,-0.274126,2025-03-14T02:00:56Z
83,NA,NA,NA,NA,NA,NA,NA,NA,NA,NA,NA,-0.443346,-0.920866,-0.039804,2025-03-14T02:00:57Z,-1.372705,0.275003,-0.365482,2025-03-14T02:00:57Z
