seconds_elapsed,location_altitude,location_speedAccuracy,location_bearingAccuracy,location_latitude,location_altitudeAboveMeanSeaLevel,location_bearing,location_horizontalAccuracy,location_verticalAccuracy,location_longitude,location_speed,location_local_time,accelerometerUncalibrated_z,accelerometerUncalibrated_y,accelerometerUncalibrated_x,accelerometerUncalibrated_local_time,accelerometer_z,accelerometer_y,accelerometer_x,accelerometer_local_time
0,254.235516,0.787457,19.594864,44.934308,281.645516,130.146514,2.797258,3,-93.177157,3.24155,2025-03-14T02:21:03Z,-0.296824,-0.959615,0.126929,2025-03-14T02:21:03Z,-0.077696,-0.047689,0.55367,2025-03-14T02:21:03Z
1,254.115634,0.744189,12.750723,44.934293,281.525634,110.079254,2.6976,3,-93.177075,4.727374,2025-03-14T02:21:04Z,-0.190653,-0.983031,0.091253,2025-03-14T02:21:04Z,0.753448,-0.223789,0.074497,2025-03-14T02:21:04Z
2,254.322154,0.717897,10.545882,44.934292,281.732153,97.634243,2.620089,3,-93.177004,5.51574,2025-03-14T02:21:05Z,-0.150516,-0.995095,0.069278,2025-03-14T02:21:05Z,1.03033,-0.316462,-0.126138,2025-03-14T02:21:05Z
3,253.542157,0.677136,7.748231,44.934289,280.952157,94.599941,2.55808,3,-93.176908,7.013222,2025-03-14T02:21:06Z,-0.15267,-0.990809,0.024547,2025-03-14T02:21:06Z,0.885386,-0.237177,-0.538937,2025-03-14T02:21:06Z
4,254.108296,0.665378,7.402667,44.934296,281.518296,89.038392,2.484099,3,-93.176819,7.279391,2025-03-14T02:21:07Z,-0.155976,-0.991289,0.012638,2025-03-14T02:21:07Z,0.837492,-0.2304,-0.604694,2025-03-14T02:21:07Z
5,254.966476,0.692432,7.237483,44.9343,282.376476,88.514666,2.684908,3,-93.176705,8.32875,2025-03-14T02:21:08Z,-0.172704,-0.987582,0.024479,2025-03-14T02:21:08Z,0.625899,-0.184751,-0.485007,2025-03-14T02:21:08Z
6,254.930869,0.708087,7.253148,44.934295,282.340869,90.685352,2.535763,3,-93.176579,9.180117,2025-03-14T02:21:09Z,-0.182545,-0.986771,0.026725,2025-03-14T02:21:09Z,0.452568,-0.164601,-0.448312,2025-03-14T02:21:09Z
7,255.06815,0.678636,7.25728,44.934275,282.47815,90.358215,2.465374,3,-93.17644,10.229418,2025-03-14T02:21:10Z,-0.205471,-0.984329,0.018099,2025-03-14T02:21:10Z,0.206514,-0.115282,-0.483871,2025-03-14T02:21:10Z
8,255.435861,0.673039,7.257686,44.934274,282.845861,90.358215,2.270161,3,-93.176292,11.131484,2025-03-14T02:21:11Z,-0.197523,-0.978391,0.005246,2025-03-14T02:21:11Z,0.222042,-0.052346,-0.586279,2025-03-14T02:21:11Z
9,255.405718,0.686447,7.258442,44.934274,282.815718,90.358215,2.211027,3,-93.17614,11.906394,2025-03-14T02:21:12Z,-0.218316,-0.968439,0.001884,2025-03-14T02:21:12Z,-0.001242,0.054457,-0.584919,2025-03-14T02:21:12Z
10,255.152898,0.669222,7.258957,44.934273,282.562897,90.358215,2.208535,3,-93.175986,12.303714,2025-03-14T02:21:13Z,-0.23441,-0.975142,-0.008715,2025-03-14T02:21:13Z,-0.179942,0.001462,-0.557024,2025-03-14T02:21:13Z
11,255.827574,0.681327,7.256446,44.934273,283.237574,90.199409,2.106531,3,-93.175819,12.846377,2025-03-14T02:21:14Z,-0.248724,-0.965002,-0.01441,2025-03-14T02:21:14Z,-0.333146,0.0979,-0.548663,2025-03-14T02:21:14Z
12,255.471535,0.67657,7.258957,44.934272,282.881535,90.199409,2.392094,3,-93.17566,12.775179,2025-03-14T02:21:15Z,-0.255773,-0.961379,-0.01683,2025-03-14T02:21:15Z,-0.393477,0.157446,-0.488924,2025-03-14T02:21:15Z
13,255.831699,0.661969,7.258532,44.934272,283.241699,90.199409,2.19702,3,-93.175495,12.887152,2025-03-14T02:21:16Z,-0.262478,-0.966292,-0.012831,2025-03-14T02:21:16Z,-0.407301,0.069994,-0.399717,2025-03-14T02:21:16Z
14,256.509665,0.682685,7.255998,44.934271,283.919665,90.199409,2.778729,3,-93.17533,12.834289,2025-03-14T02:21:17Z,-0.259423,-0.959863,-0.008465,2025-03-14T02:21:17Z,-0.353296,0.153091,-0.349163,2025-03-14T02:21:17Z
15,256.495634,0.67522,7.258701,44.934271,283.905634,90.199409,2.651098,3,-93.175164,12.865101,2025-03-14T02:21:18Z,-0.25959,-0.968181,-0.020041,2025-03-14T02:21:18Z,-0.310013,0.042137,-0.385061,2025-03-14T02:21:18Z
16,256.473638,0.685074,7.258974,44.934271,283.883638,90.408157,2.325741,3,-93.174999,12.928354,2025-03-14T02:21:19Z,-0.257792,-0.963823,-0.027414,2025-03-14T02:21:19Z,-0.316929,0.10807,-0.445456,2025-03-14T02:21:19Z
17,256.728522,0.680125,7.258166,44.934287,284.138522,90.408157,2.168479,3,-93.174831,13.138589,2025-03-14T02:21:20Z,-0.260571,-0.951026,-0.014997,2025-03-14T02:21:20Z,-0.25531,0.200916,-0.293664,2025-03-14T02:21:20Z
18,256.478561,0.688635,7.258973,44.934269,283.88856,90.408157,2.088786,3,-93.174669,12.935234,2025-03-14T02:21:21Z,-0.271415,-0.963138,-0.007511,2025-03-14T02:21:21Z,-0.310199,0.081852,-0.285192,2025-03-14T02:21:21Z
19,256.435522,0.672878,7.25896,44.934269,283.845522,90.231781,2.154312,3,-93.174508,12.766321,2025-03-14T02:21:22Z,-0.270405,-0.971935,0.006187,2025-03-14T02:21:22Z,-0.27779,-0.027821,-0.24783,2025-03-14T02:21:22Z
20,256.117518,0.679945,7.258942,44.934268,283.527518,90.231781,2.078354,3,-93.174347,12.811004,2025-03-14T02:21:23Z,-0.25992,-0.961818,-0.001364,2025-03-14T02:21:23Z,-0.205683,0.086126,-0.261901,2025-03-14T02:21:23Z
21,256.457276,0.679573,7.258051,44.934268,283.867276,90.231781,2.039516,3,-93.174181,13.060855,2025-03-14T02:21:24Z,-0.251111,-0.970299,-0.001983,2025-03-14T02:21:24Z,-0.117624,0.002721,-0.194804,2025-03-14T02:21:24Z
22,256.595266,0.68164,7.257335,44.934279,284.005265,90.231781,2.019898,3,-93.174018,12.985997,2025-03-14T02:21:25Z,-0.283188,-0.959325,-0.0098,2025-03-14T02:21:25Z,-0.406445,0.115222,-0.226611,2025-03-14T02:21:25Z
23,256.470267,0.828933,7.258472,44.934269,283.880267,90.231781,3.295783,3,-93.173853,12.993928,2025-03-14T02:21:26Z,-0.293642,-0.95985,-0.00338,2025-03-14T02:21:26Z,-0.480511,0.094846,-0.18907,2025-03-14T02:21:26Z
24,256.061322,0.692584,7.258965,44.934274,283.471322,90.231781,2.995428,3,-93.173702,12.573782,2025-03-14T02:21:27Z,-0.264085,-0.957712,-0.013808,2025-03-14T02:21:27Z,-0.19221,0.116195,-0.26133,2025-03-14T02:21:27Z
25,256.308988,0.694924,7.258495,44.93428,283.718988,90.231781,2.507268,3,-93.173542,12.549448,2025-03-14T02:21:28Z,-0.271375,-0.956262,-0.02023,2025-03-14T02:21:28Z,-0.188265,0.112794,-0.307389,2025-03-14T02:21:28Z
26,256.492855,0.692447,7.25807,44.93427,283.902855,90.231781,2.261175,3,-93.173394,12.030878,2025-03-14T02:21:29Z,-0.270618,-0.96995,0.006202,2025-03-14T02:21:29Z,-0.13328,-0.034308,-0.089873,2025-03-14T02:21:29Z
27,256.488298,0.680964,7.258876,44.934269,283.898298,90.31028,2.135497,3,-93.173238,12.109846,2025-03-14T02:21:30Z,-0.253312,-0.958431,-0.012333,2025-03-14T02:21:30Z,-0.013244,0.088851,-0.155809,2025-03-14T02:21:30Z
28,256.708546,0.675603,7.25803,44.934273,284.118546,90.31028,2.070617,3,-93.173083,12.201294,2025-03-14T02:21:31Z,-0.253566,-0.969352,-0.012482,2025-03-14T02:21:31Z,-0.019553,-0.013583,-0.195307,2025-03-14T02:21:31Z
29,256.641128,0.673211,7.258413,44.934272,284.051128,90.31028,2.46414,3,-93.172932,12.116372,2025-03-14T02:21:32Z,-0.254152,-0.966755,0.004065,2025-03-14T02:21:32Z,-0.026705,0.006517,-0.100458,2025-03-14T02:21:32Z
30,257.116983,0.66928,7.25639,44.93427,284.526983,90.31028,2.242132,3,-93.172778,12.105972,2025-03-14T02:21:33Z,-0.251675,-0.963468,0.011799,2025-03-14T02:21:33Z,0.034691,0.035532,-0.041535999999999997,2025-03-14T02:21:33Z
31,257.238763,0.671407,7.257725,44.934269,284.648763,90.31028,2.244757,3,-93.172619,12.326264,2025-03-14T02:21:34Z,-0.249135,-0.966514,0.004382,2025-03-14T02:21:34Z,0.039701,0.012321,-0.069825,2025-03-14T02:21:34Z
32,257.267256,0.676648,7.258364,44.934271,284.677256,90.31028,2.127401,3,-93.172468,12.181456,2025-03-14T02:21:35Z,-0.243758,-0.97375,0.002311,2025-03-14T02:21:35Z,0.079746,-0.063856,-0.065826,2025-03-14T02:21:35Z
33,257.679478,0.673963,7.257152,44.934271,285.089478,90.31028,2.2863,3,-93.172311,12.282747,2025-03-14T02:21:36Z,-0.239481,-0.965373,0.003195,2025-03-14T02:21:36Z,0.103975,0.02941,-0.034975,2025-03-14T02:21:36Z
34,257.696211,0.672291,7.258297,44.934271,285.106211,90.31028,2.32428,3,-93.172155,12.344063,2025-03-14T02:21:37Z,-0.244187,-0.970225,0.004966,2025-03-14T02:21:37Z,0.079107,-0.02554,0.006811,2025-03-14T02:21:37Z
35,257.957355,0.672599,7.257452,44.934272,285.367355,90.288551,2.166446,3,-93.171994,12.61465,2025-03-14T02:21:38Z,-0.239908,-0.965327,0.009311,2025-03-14T02:21:38Z,0.138415,0.016164,-0.046659,2025-03-14T02:21:38Z
36,257.856887,0.678841,7.258724,44.934272,285.266887,90.288551,2.085046,3,-93.171835,12.585203,2025-03-14T02:21:39Z,-0.264014,-0.969315,0.008409,2025-03-14T02:21:39Z,-0.095515,-0.02905,-0.063584,2025-03-14T02:21:39Z
37,257.984787,0.684566,7.258389,44.934272,285.394786,90.288551,2.929369,3,-93.171677,12.588884,2025-03-14T02:21:40Z,-0.262746,-0.964317,0.007174,2025-03-14T02:21:40Z,-0.121541,0.047804,-0.111112,2025-03-14T02:21:40Z
38,258.608353,0.829871,7.256969,44.934259,286.018352,90.288551,2.482203,3,-93.171523,12.344936,2025-03-14T02:21:41Z,-0.246976,-0.965257,-0.002407,2025-03-14T02:21:41Z,0.055029,0.013665,-0.156867,2025-03-14T02:21:41Z
39,258.646881,0.673062,7.25825,44.934265,286.05688,90.288551,2.247667,3,-93.171362,12.504416,2025-03-14T02:21:42Z,-0.240343,-0.965016,0.014581,2025-03-14T02:21:42Z,0.131993,0.017553,0.005665,2025-03-14T02:21:42Z
40,258.988957,0.670863,7.257244,44.934266,286.398957,90.288551,2.1268030000000002,3,-93.171203,12.584074,2025-03-14T02:21:43Z,-0.24016,-0.966921,0.016363,2025-03-14T02:21:43Z,0.167381,-0.006442,-0.043639,2025-03-14T02:21:43Z
41,259.293725,0.669071,7.257495,44.934266,286.703725,90.288551,2.159464,3,-93.171044,12.657088,2025-03-14T02:21:44Z,-0.241998,-0.965053,0.026966,2025-03-14T02:21:44Z,0.143713,0.01371,0.039326,2025-03-14T02:21:44Z
42,259.576694,0.671342,7.256883,44.934266,286.986694,90.303329,2.104039,3,-93.170882,12.80004,2025-03-14T02:21:45Z,-0.245469,-0.971633,0.021486,2025-03-14T02:21:45Z,0.129514,-0.05479,0.042095,2025-03-14T02:21:45Z
43,259.818548,0.672854,7.257325,44.934263,287.228548,90.303329,2.129563,3,-93.17072,12.879517,2025-03-14T02:21:46Z,-0.240247,-0.965984,0.018205,2025-03-14T02:21:46Z,0.164651,-0.002703,0.031928,2025-03-14T02:21:46Z
44,260.286438,0.671348,7.256937,44.934265,287.696438,90.303329,2.648747,3,-93.17055,13.142382,2025-03-14T02:21:47Z,-0.245657,-0.967335,0.012463,2025-03-14T02:21:47Z,0.10361,-0.019816,0.016346,2025-03-14T02:21:47Z
45,260.389334,0.670745,7.25826,44.934265,287.799334,90.303329,2.519149,3,-93.170384,13.254613,2025-03-14T02:21:48Z,-0.235347,-0.973798,0.004373,2025-03-14T02:21:48Z,0.169496,-0.041423,-0.066024,2025-03-14T02:21:48Z
46,260.330808,0.671916,7.258831,44.934266,287.740808,90.303329,2.319091,3,-93.170213,13.425266,2025-03-14T02:21:49Z,-0.238992,-0.966774,0.002938,2025-03-14T02:21:49Z,0.14301,-0.009583,-0.080813,2025-03-14T02:21:49Z
47,260.871639,0.671362,7.257069,44.934266,288.281639,90.248405,2.155553,3,-93.170039,13.613855,2025-03-14T02:21:50Z,-0.245315,-0.96584,0.004137,2025-03-14T02:21:50Z,0.083244,0.026404,-0.063715,2025-03-14T02:21:50Z
48,260.872931,0.664138,7.258478,44.934263,288.282931,90.248405,2.075771,3,-93.169866,13.751929,2025-03-14T02:21:51Z,-0.246537,-0.960329,0.002942,2025-03-14T02:21:51Z,0.060757,0.058459,-0.016384,2025-03-14T02:21:51Z
49,260.974919,0.665347,7.258526,44.934262,288.384919,90.248405,2.036393,3,-93.16969,13.850348,2025-03-14T02:21:52Z,-0.257184,-0.950081,0.009463,2025-03-14T02:21:52Z,0.012261,0.16786,0.062943,2025-03-14T02:21:52Z
50,261.180282,0.665421,7.25849,44.934261,288.590282,90.364532,2.269301,3,-93.169512,13.885992,2025-03-14T02:21:53Z,-0.268451,-0.969883,0.012571,2025-03-14T02:21:53Z,-0.062325,-0.058523,0.076427,2025-03-14T02:21:53Z
51,260.932044,0.672633,7.258945,44.934258,288.342043,90.364532,2.128879,3,-93.169336,13.866009,2025-03-14T02:21:54Z,-0.277972,-0.959563,-0.009425,2025-03-14T02:21:54Z,-0.177613,0.063868,-0.10313,2025-03-14T02:21:54Z
52,261.025753,0.660504,7.258974,44.934263,288.435753,90.364532,2.061758,3,-93.16916,13.933582,2025-03-14T02:21:55Z,-0.289521,-0.9511,-0.022843,2025-03-14T02:21:55Z,-0.257458,0.136709,-0.22753,2025-03-14T02:21:55Z
53,261.080346,0.665416,7.258715,44.93425,288.490345,90.364532,2.029925,3,-93.168991,13.662895,2025-03-14T02:21:56Z,-0.292441,-0.958609,-0.003613,2025-03-14T02:21:56Z,-0.274328,0.052223,-0.050691,2025-03-14T02:21:56Z
54,261.048922,0.669242,7.258974,44.934265,288.458922,90.313042,2.036896,3,-93.168822,13.358882,2025-03-14T02:21:57Z,-0.293669,-0.953374,-0.008996,2025-03-14T02:21:57Z,-0.288161,0.105695,-0.071389,2025-03-14T02:21:57Z
55,261.460017,0.667591,7.257691,44.934261,288.870017,90.313042,2.018217,3,-93.168657,13.196214,2025-03-14T02:21:58Z,-0.291632,-0.957926,-0.024545,2025-03-14T02:21:58Z,-0.259314,0.066484,-0.162909,2025-03-14T02:21:58Z
56,261.50211,0.679308,7.25845,44.934248,288.91211,90.313042,2.009198,3,-93.168502,12.594176,2025-03-14T02:21:59Z,-0.318116,-0.945572,-0.029611,2025-03-14T02:21:59Z,-0.494735,0.172822,-0.206698,2025-03-14T02:21:59Z
57,261.818426,0.668064,7.25718,44.934262,289.228426,90.332481,2.004662,3,-93.168345,12.281966,2025-03-14T02:22:00Z,-0.333626,-0.940844,-0.036183,2025-03-14T02:22:00Z,-0.602439,0.205996,-0.261753,2025-03-14T02:22:00Z
58,261.352893,0.668439,7.258921,44.934257,288.762893,90.332481,2.014274,3,-93.168202,11.608779,2025-03-14T02:22:01Z,-0.342198,-0.94193,-0.037493,2025-03-14T02:22:01Z,-0.667181,0.198999,-0.251221,2025-03-14T02:22:01Z
59,261.395326,0.664374,7.258965,44.934256,288.805326,90.332481,2.007719,3,-93.168069,10.85073,2025-03-14T02:22:02Z,-0.337244,-0.942049,-0.033679,2025-03-14T02:22:02Z,-0.594832,0.180817,-0.186321,2025-03-14T02:22:02Z
60,261.221778,0.664947,7.25897,44.934257,288.631778,90.332481,2.004327,3,-93.167948,10.061071,2025-03-14T02:22:03Z,-0.347606,-0.941246,-0.037161,2025-03-14T02:22:03Z,-0.629478,0.176076,-0.180067,2025-03-14T02:22:03Z
61,261.22613,0.662069,7.258523,44.934255,288.63613,90.332481,2.81187,3,-93.167838,9.152927,2025-03-14T02:22:04Z,-0.342731,-0.937219,-0.032929,2025-03-14T02:22:04Z,-0.562338,0.206075,-0.133714,2025-03-14T02:22:04Z
62,261.099755,0.663981,7.258958,44.934257,288.509754,90.332481,2.634923,3,-93.167736,8.395,2025-03-14T02:22:05Z,-0.35886,-0.936229,-0.046817,2025-03-14T02:22:05Z,-0.652102,0.190277,-0.223258,2025-03-14T02:22:05Z
63,261.149663,0.662046,7.258624,44.934252,288.559663,90.332481,2.550391,3,-93.167649,7.444538,2025-03-14T02:22:06Z,-0.366173,-0.933434,-0.046046,2025-03-14T02:22:06Z,-0.64824,0.197009,-0.200224,2025-03-14T02:22:06Z
64,260.98905,0.668995,8.532446,44.934254,288.39905,90.332481,2.605769,3,-93.167574,6.348501,2025-03-14T02:22:07Z,-0.391893,-0.925973,-0.050349,2025-03-14T02:22:07Z,-0.827953,0.245613,-0.248467,2025-03-14T02:22:07Z
65,261.031248,0.663044,10.319958,44.934257,288.441248,90.332481,2.472064,3,-93.167514,5.202911,2025-03-14T02:22:08Z,-0.39914,-0.924379,-0.056839,2025-03-14T02:22:08Z,-0.773628,0.223482,-0.249032,2025-03-14T02:22:08Z
66,261.288851,0.66917,14.266801,44.934257,288.69885,90.332481,2.377651,3,-93.167473,3.796939,2025-03-14T02:22:09Z,-0.351824,-0.938619,-0.042205,2025-03-14T02:22:09Z,-0.28033,0.070879,-0.100048,2025-03-14T02:22:09Z
67,261.322103,0.666159,20.574195,44.934254,288.732103,90.332481,2.314709,3,-93.167447,2.622552,2025-03-14T02:22:10Z,-0.319538,-0.947167,-0.035902,2025-03-14T02:22:10Z,0.049634,-0.019369,-0.025004,2025-03-14T02:22:10Z
68,261.599518,0.681162,31.167779,44.934254,289.009518,90.332481,2.276831,3,-93.167432,1.704086,2025-03-14T02:22:11Z,-0.296385,-0.953924,-0.02812,2025-03-14T02:22:11Z,0.268595,-0.08086,0.048118,2025-03-14T02:22:11Z
69,NA,NA,NA,NA,NA,NA,NA,NA,NA,NA,NA,-0.294729,-0.95115,-0.02538,2025-03-14T02:22:12Z,0.252573,-0.057536,0.059573,2025-03-14T02:22:12Z
