seconds_elapsed,location_altitude,location_speedAccuracy,location_bearingAccuracy,location_latitude,location_altitudeAboveMeanSeaLevel,location_bearing,location_horizontalAccuracy,location_verticalAccuracy,location_longitude,location_speed,location_local_time,accelerometerUncalibrated_z,accelerometerUncalibrated_y,accelerometerUncalibrated_x,accelerometerUncalibrated_local_time,accelerometer_z,accelerometer_y,accelerometer_x,accelerometer_local_time
0,256.078854,0.669866,11.099706,44.9344,283.488854,322.27794,2.070407,3,-93.177218,4.882621,2025-02-19T21:44:21Z,-0.053275,-0.965474,-0.334753,2025-02-19T21:44:20Z,0.540902,0.171851,-1.822713,2025-02-19T21:44:20Z
1,255.208362,0.669172,11.099001,44.934449,282.618362,353.249269,2.060349,3,-93.17721,4.868772,2025-02-19T21:44:22Z,-0.025918,-0.997459,-0.064674,2025-02-19T21:44:21Z,0.634892,-0.043854,0.005417,2025-02-19T21:44:21Z
2,255.333337,0.690312,9.211837,44.934511,282.743337,358.337919,2.138118,3,-93.177209,6.069925,2025-02-19T21:44:23Z,-0.001909,-0.999432,0.016611,2025-02-19T21:44:22Z,0.744356,-0.037734,0.718534,2025-02-19T21:44:22Z
3,254.969788,0.694957,8.169952,44.934575,282.379787,359.153257,2.176562,3,-93.177209,6.840519,2025-02-19T21:44:24Z,-0.015595,-1.008757,0.015387,2025-02-19T21:44:23Z,0.509129,-0.128946,0.768994,2025-02-19T21:44:23Z
4,254.84649,0.694044,7.25255,44.934652,282.25649,359.888575,2.466679,3,-93.177207,7.919928,2025-02-19T21:44:25Z,-0.00858,-0.996981,0.020992,2025-02-19T21:44:24Z,0.519246,-3.61e-4,0.743372,2025-02-19T21:44:24Z
5,255.058638,0.681534,7.258798,44.934742,282.468637,0.736701,2.32928,3,-93.177204,9.132546,2025-02-19T21:44:26Z,-0.015251,-1.00621,0.023738,2025-02-19T21:44:25Z,0.400451,-0.086282,0.71902,2025-02-19T21:44:25Z
6,254.938273,0.687082,7.258328,44.934837,282.348273,0.379029,3.307841,3,-93.177204,10.11318,2025-02-19T21:44:27Z,-0.028482,-0.999973,0.017266,2025-02-19T21:44:26Z,0.231002,-0.025724,0.622295,2025-02-19T21:44:26Z
7,254.931563,0.682984,7.258944,44.934941,282.341563,0.308443,2.954156,3,-93.177204,10.941744,2025-02-19T21:44:28Z,-0.052767,-1.003672,0.024947,2025-02-19T21:44:27Z,-0.056779,-0.055182,0.635161,2025-02-19T21:44:27Z
8,255.260894,0.690556,7.258471,44.935051,282.670894,359.039734,2.512849,3,-93.177209,11.649106,2025-02-19T21:44:29Z,-0.053052,-0.988555,0.017078,2025-02-19T21:44:28Z,-0.055846,0.098492,0.457785,2025-02-19T21:44:28Z
9,254.94449,0.692708,7.258876,44.935163,282.354489,359.510531,2.452956,3,-93.177208,12.164794,2025-02-19T21:44:30Z,-0.092026,-1.021769,0.007767,2025-02-19T21:44:29Z,-0.489994,-0.224196,0.293742,2025-02-19T21:44:29Z
10,254.744957,0.685691,7.258952,44.935277,282.154957,0.709619,2.569214,3,-93.177202,12.423096,2025-02-19T21:44:31Z,-0.073233,-0.964328,-0.016678,2025-02-19T21:44:30Z,-0.343335,0.32894,0.315001,2025-02-19T21:44:30Z
11,254.324807,0.689113,7.257896,44.935396,281.734807,0.770438,2.745756,3,-93.177199,12.877525,2025-02-19T21:44:32Z,-0.081121,-0.99949,0.004875,2025-02-19T21:44:31Z,-0.344842,-0.015597,0.390261,2025-02-19T21:44:31Z
12,254.347656,0.686748,7.25891,44.935518,281.757656,0.276098,2.593511,3,-93.177199,13.279784,2025-02-19T21:44:33Z,-0.089472,-1.000248,-5.72e-4,2025-02-19T21:44:32Z,-0.389585,-0.007432,0.197124,2025-02-19T21:44:32Z
13,254.115848,0.703657,7.258527,44.935642,281.525848,0.641986,3.115169,3,-93.177196,13.613336,2025-02-19T21:44:34Z,-0.09805,-0.986334,0.037173,2025-02-19T21:44:33Z,-0.419718,0.114425,0.348581,2025-02-19T21:44:33Z
14,253.829981,0.704023,7.257485,44.935765,281.23998,0.173371,3.182607,3,-93.177195,13.664878,2025-02-19T21:44:35Z,-0.095105,-0.998976,-0.021518,2025-02-19T21:44:34Z,-0.368639,-0.005243,-0.012647,2025-02-19T21:44:34Z
15,253.715885,0.688404,7.258078,44.935893,281.125885,0.575705,3.223649,3,-93.177192,13.914004,2025-02-19T21:44:36Z,-0.117855,-0.991248,-0.0095,2025-02-19T21:44:35Z,-0.58642,0.065556,0.143131,2025-02-19T21:44:35Z
16,253.772654,0.710753,7.258639,44.936021,281.182654,0.574509,3.240807,3,-93.17719,13.966171,2025-02-19T21:44:37Z,-0.12333,-1.016595,-0.012819,2025-02-19T21:44:36Z,-0.662168,-0.184838,0.107427,2025-02-19T21:44:36Z
17,253.675255,0.696283,7.258763,44.936144,281.085255,359.584572,3.494115,3,-93.177195,13.75372,2025-02-19T21:44:38Z,-0.112856,-0.958153,-0.032811,2025-02-19T21:44:37Z,-0.545984,0.388302,0.036563,2025-02-19T21:44:37Z
18,253.700967,0.690197,7.258596,44.936271,281.110967,0.151811,3.466255,3,-93.177192,13.854465,2025-02-19T21:44:39Z,-0.116075,-0.997645,-0.032653,2025-02-19T21:44:38Z,-0.47242,-0.00274,0.010242,2025-02-19T21:44:38Z
19,253.759107,0.693157,7.25896,44.936395,281.169107,0.248051,3.216544,3,-93.177191,13.826866,2025-02-19T21:44:40Z,-0.122125,-0.990749,-0.020281,2025-02-19T21:44:39Z,-0.50604,0.062895,0.032182,2025-02-19T21:44:39Z
20,253.395733,0.680173,7.25795,44.936516,280.805733,359.689519,3.206659,3,-93.177195,13.513327,2025-02-19T21:44:41Z,-0.114412,-0.988718,-0.009373,2025-02-19T21:44:40Z,-0.376909,0.08159,0.119735,2025-02-19T21:44:40Z
21,253.462672,0.694254,7.258746,44.936643,280.872672,359.261494,2.579992,3,-93.177196,13.712188,2025-02-19T21:44:42Z,-0.111241,-0.997013,-0.021714,2025-02-19T21:44:41Z,-0.360331,-0.011501,0.056321,2025-02-19T21:44:41Z
22,253.506155,0.690697,7.258893,44.936766,280.916155,1.373602,2.279195,3,-93.177184,13.67993,2025-02-19T21:44:43Z,-0.101728,-0.994919,-0.021619,2025-02-19T21:44:42Z,-0.221221,0.022458,0.029858,2025-02-19T21:44:42Z
23,253.572522,0.695007,7.258974,44.936893,280.982522,0.746964,2.134196,3,-93.177187,13.907181,2025-02-19T21:44:44Z,-0.093643,-0.989699,-0.028687,2025-02-19T21:44:43Z,-0.136287,0.054564,-0.055934,2025-02-19T21:44:43Z
24,253.101594,0.843916,7.257702,44.937021,280.511594,358.172824,2.063834,3,-93.177198,14.153887,2025-02-19T21:44:45Z,-0.118113,-0.994639,-0.013401,2025-02-19T21:44:44Z,-0.368203,0.025389,0.088981,2025-02-19T21:44:44Z
25,253.014111,0.7652,7.258336,44.937137,280.42411,358.17291,2.04398,3,-93.177201,13.682635,2025-02-19T21:44:46Z,-0.106647,-0.99297,-0.033036,2025-02-19T21:44:45Z,-0.261559,0.039069,0.041535,2025-02-19T21:44:45Z
26,253.44901,0.698667,7.25896,44.937257,280.85901,1.367772,2.021155,3,-93.177185,13.486551,2025-02-19T21:44:47Z,-0.103594,-0.989547,-0.038373,2025-02-19T21:44:46Z,-0.187213,0.06208,0.01521,2025-02-19T21:44:46Z
27,254.539127,0.723826,7.252321,44.937384,281.949126,0.129606,2.629695,3,-93.177188,13.680368,2025-02-19T21:44:48Z,-0.109305,-0.983282,-0.013073,2025-02-19T21:44:47Z,-0.163028,0.113069,0.065979,2025-02-19T21:44:47Z
28,253.96676,0.714745,7.258968,44.937512,281.37676,0.258357,3.492696,3,-93.17718,13.97811,2025-02-19T21:44:49Z,-0.11184,-0.992031,-0.02393,2025-02-19T21:44:48Z,-0.180556,0.02365,0.045985,2025-02-19T21:44:48Z
29,253.939941,0.695136,7.258972,44.937635,281.349941,0.258357,2.723726,3,-93.177186,13.867212,2025-02-19T21:44:50Z,-0.113268,-0.995712,-0.035947,2025-02-19T21:44:49Z,-0.184899,0.004389,-0.091524,2025-02-19T21:44:49Z
30,254.026211,0.693537,7.258928,44.937757,281.436211,0.258357,2.346184,3,-93.177188,13.646918,2025-02-19T21:44:51Z,-0.124082,-1.006263,-0.019108,2025-02-19T21:44:50Z,-0.308667,-0.104509,0.04287,2025-02-19T21:44:50Z
31,254.201789,0.703069,7.258583,44.937878,281.611789,0.258357,2.168072,3,-93.177191,13.417818,2025-02-19T21:44:52Z,-0.105723,-0.965654,-0.040228,2025-02-19T21:44:51Z,-0.160208,0.292511,0.002346,2025-02-19T21:44:51Z
32,253.784311,0.705821,7.258288,44.938004,281.19431,0,2.575664,3,-93.177186,13.706229,2025-02-19T21:44:53Z,-0.117525,-0.992292,-0.022712,2025-02-19T21:44:52Z,-0.127213,0.013254,0.063779,2025-02-19T21:44:52Z
33,253.626246,0.690895,7.258696,44.938126,281.036246,0,2.279555,3,-93.177191,13.719916,2025-02-19T21:44:54Z,-0.120301,-0.998471,-0.0386,2025-02-19T21:44:53Z,-0.156617,-0.045594,-0.079646,2025-02-19T21:44:53Z
34,253.640629,0.688642,7.25893,44.938247,281.050629,0,2.136196,3,-93.177192,13.615324,2025-02-19T21:44:55Z,-0.124649,-0.989196,-0.030675,2025-02-19T21:44:54Z,-0.236033,0.054,-0.011505,2025-02-19T21:44:54Z
35,253.335444,0.672575,7.258732,44.938364,280.745444,0,2.066447,3,-93.177186,13.171186,2025-02-19T21:44:56Z,-0.119219,-0.989165,-0.034651,2025-02-19T21:44:55Z,-0.14565,0.050018,-0.042864,2025-02-19T21:44:55Z
36,253.156898,0.674403,7.258695,44.938483,280.566898,0,2.03286,3,-93.177184,13.141706,2025-02-19T21:44:57Z,-0.117517,-0.994158,-0.028195,2025-02-19T21:44:56Z,-0.116086,6.75e-4,0.026582,2025-02-19T21:44:56Z
37,253.019316,0.674412,7.25874,44.938604,280.429315,0.290633,2.016174,3,-93.177184,13.183291,2025-02-19T21:44:58Z,-0.098207,-0.988368,-0.020775,2025-02-19T21:44:57Z,0.051798,0.050995,0.086493,2025-02-19T21:44:57Z
38,252.900636,0.670122,7.258591,44.938724,280.310635,0.290633,2.007973,3,-93.177182,13.26271,2025-02-19T21:44:59Z,-0.103485,-0.99486,-0.028568,2025-02-19T21:44:58Z,0.027632,-0.007334,0.021471,2025-02-19T21:44:58Z
39,252.592818,0.674033,7.258144,44.938844,280.002817,0.290633,2.003932,3,-93.177182,13.315413,2025-02-19T21:45:00Z,-0.091836,-0.994668,-0.036263,2025-02-19T21:44:59Z,0.131341,-0.014097,-0.020368,2025-02-19T21:44:59Z
40,252.328005,0.673713,7.257953,44.938966,279.738005,0.290633,2.001926,3,-93.17718,13.487355,2025-02-19T21:45:01Z,-0.132596,-1.001738,-0.038587,2025-02-19T21:45:00Z,-0.288621,-0.065255,-0.114184,2025-02-19T21:45:00Z
41,252.51966,0.680166,7.258973,44.939084,279.92966,0.290633,2.000947,3,-93.177179,13.231926,2025-02-19T21:45:02Z,-0.141548,-0.976481,-0.05456,2025-02-19T21:45:01Z,-0.355718,0.164108,-0.103653,2025-02-19T21:45:01Z
42,252.543804,0.674894,7.258932,44.939202,279.953804,0.307254,2.000468,3,-93.177176,13.056812,2025-02-19T21:45:03Z,-0.127084,-0.986077,-0.037101,2025-02-19T21:45:02Z,-0.155401,0.068093,-0.021976,2025-02-19T21:45:02Z
43,251.705123,0.673298,7.255713,44.939313,279.115123,0.307254,2.000236,3,-93.177175,12.709615,2025-02-19T21:45:04Z,-0.147064,-0.987479,-0.040906,2025-02-19T21:45:03Z,-0.34509,0.058981,-0.029845,2025-02-19T21:45:03Z
44,251.600457,0.687905,7.257664,44.939424,279.010457,0.307254,2.00012,3,-93.177175,12.32921,2025-02-19T21:45:05Z,-0.180018,-0.984634,-0.045447,2025-02-19T21:45:04Z,-0.653681,0.070159,-0.071615,2025-02-19T21:45:04Z
45,251.455225,0.685014,7.257396,44.939526,278.865225,359.875425,2.031649,3,-93.177173,11.623151,2025-02-19T21:45:06Z,-0.199146,-0.981523,-0.058919,2025-02-19T21:45:05Z,-0.791763,0.111557,-0.168799,2025-02-19T21:45:05Z
46,251.179355,0.678706,7.256334,44.939619,278.589355,0.21602,2.017072,3,-93.177171,10.679759,2025-02-19T21:45:07Z,-0.211596,-0.977062,-0.070004,2025-02-19T21:45:06Z,-0.874996,0.139608,-0.235671,2025-02-19T21:45:06Z
47,251.175141,0.685297,7.25829,44.939708,278.585141,0.412612,2.009484,3,-93.177169,9.92418,2025-02-19T21:45:08Z,-0.211109,-0.984293,-0.088181,2025-02-19T21:45:07Z,-0.822448,0.056902,-0.309349,2025-02-19T21:45:07Z
48,251.115192,0.671903,7.25851,44.939779,278.525192,0.247196,2.682413,3,-93.177169,8.583286,2025-02-19T21:45:09Z,-0.228842,-0.976516,-0.081676,2025-02-19T21:45:08Z,-0.906006,0.121617,-0.211963,2025-02-19T21:45:08Z
49,250.914025,0.68062,7.256558,44.939846,278.324025,0,2.415477,3,-93.177169,7.602773,2025-02-19T21:45:10Z,-0.247395,-0.973185,-0.083279,2025-02-19T21:45:09Z,-0.983043,0.138425,-0.218252,2025-02-19T21:45:09Z
50,251.081588,0.686536,8.741329,44.939898,278.491588,0.188159,2.295837,3,-93.177166,6.361554,2025-02-19T21:45:11Z,-0.252229,-0.977234,-0.083396,2025-02-19T21:45:10Z,-0.949057,0.087085,-0.239658,2025-02-19T21:45:10Z
51,251.227793,0.692446,11.538525,44.939935,278.637793,0.188159,2.585745,3,-93.177167,4.847791,2025-02-19T21:45:12Z,-0.248771,-0.973836,-0.077271,2025-02-19T21:45:11Z,-0.837985,0.109517,-0.196508,2025-02-19T21:45:11Z
52,251.704058,0.679935,15.676831,44.939961,279.114058,0.188159,2.729766,3,-93.177168,3.463294,2025-02-19T21:45:13Z,-0.260223,-0.974958,-0.085425,2025-02-19T21:45:12Z,-0.945225,0.093892,-0.248751,2025-02-19T21:45:12Z
53,251.592764,0.692253,29.248696,44.939973,279.002764,0.188159,2.608138,3,-93.177168,1.917312,2025-02-19T21:45:14Z,-0.230032,-0.976553,-0.082433,2025-02-19T21:45:13Z,-0.645286,0.075481,-0.176938,2025-02-19T21:45:13Z
54,251.491263,0.885485,52.141164,44.939985,278.901262,0.188159,2.746546,3,-93.177167,1.324793,2025-02-19T21:45:15Z,-0.173258,-0.984475,-0.066948,2025-02-19T21:45:14Z,-0.065306,-0.005187,-0.016239,2025-02-19T21:45:14Z
55,251.730053,0.942661,180,44.939977,279.140053,0.188159,2.653228,3,-93.177171,0.234312,2025-02-19T21:45:16Z,-0.109507,-0.99112,-0.050243,2025-02-19T21:45:15Z,0.485656,-0.058307,0.125948,2025-02-19T21:45:15Z
56,251.564028,3.400472,180,44.939976,278.974028,0.188159,2.905593,3,-93.177173,0.00703,2025-02-19T21:45:17Z,-0.104681,-0.992174,-0.049164,2025-02-19T21:45:16Z,0.418691,-0.048935,0.107385,2025-02-19T21:45:16Z
57,251.710213,3.729077,180,44.939978,279.120213,0.188159,2.968854,3,-93.177175,0.021714,2025-02-19T21:45:18Z,-0.104553,-0.991799,-0.049143,2025-02-19T21:45:17Z,0.323748,-0.029591,0.084175,2025-02-19T21:45:17Z
58,251.592986,3.711314,180,44.939979,279.002986,0.188159,2.968854,3,-93.177176,0.033108,2025-02-19T21:45:19Z,-0.105011,-0.99217,-0.049438,2025-02-19T21:45:18Z,0.248044,-0.020792,0.061723,2025-02-19T21:45:18Z
59,251.636091,3.705646,180,44.939979,279.046091,0.188159,3.111158,3,-93.177177,0.020978,2025-02-19T21:45:20Z,-0.10459,-0.991944,-0.048907,2025-02-19T21:45:19Z,0.190337,-0.011448,0.052047,2025-02-19T21:45:19Z
60,251.651095,3.692515,180,44.939979,279.061095,0.188159,3.074019,3,-93.177178,0.018741,2025-02-19T21:45:21Z,-0.104966,-0.991941,-0.049195,2025-02-19T21:45:20Z,0.14616,-0.005204,0.036694,2025-02-19T21:45:20Z
61,251.720233,3.699309,180,44.93998,279.130233,0.188159,3.126707,3,-93.177177,0.011454,2025-02-19T21:45:22Z,-0.104734,-0.992005,-0.049135,2025-02-19T21:45:21Z,0.112356,-0.001664,0.02844,2025-02-19T21:45:21Z
62,251.717109,3.709979,180,44.939979,279.127109,0.188159,3.105288,3,-93.177177,0,2025-02-19T21:45:23Z,-0.104398,-0.991786,-0.049072,2025-02-19T21:45:22Z,0.088566,0.003972,0.021596,2025-02-19T21:45:22Z
63,251.717109,3.698573,180,44.939979,279.127109,0.188159,3.080929,3,-93.177177,0,2025-02-19T21:45:24Z,-0.10493,-0.992063,-0.04909,2025-02-19T21:45:23Z,0.062739,0.003968,0.015567,2025-02-19T21:45:23Z
64,251.717109,3.689029,180,44.939979,279.127109,0.188159,3.041353,3,-93.177177,0,2025-02-19T21:45:25Z,-0.104656,-0.991971,-0.048949,2025-02-19T21:45:24Z,0.051731,0.007391,0.014208,2025-02-19T21:45:24Z
65,251.717109,3.698409,180,44.939979,279.127109,0.188159,3.061251,3,-93.177177,0,2025-02-19T21:45:26Z,-0.104831,-0.992145,-0.049318,2025-02-19T21:45:25Z,0.036644,0.006936,0.008355,2025-02-19T21:45:25Z
66,251.717109,3.696962,180,44.939979,279.127109,0.188159,3.12933,3,-93.177177,0,2025-02-19T21:45:27Z,-0.104466,-0.991846,-0.048816,2025-02-19T21:45:26Z,0.029728,0.00961,0.011489,2025-02-19T21:45:26Z
67,251.717109,3.692241,180,44.939979,279.127109,0.188159,3.215357,3,-93.177177,0,2025-02-19T21:45:28Z,-0.104727,-0.991934,-0.049266,2025-02-19T21:45:27Z,0.022394,0.010357,0.004203,2025-02-19T21:45:27Z
68,251.717109,3.714717,180,44.939979,279.127109,0.188159,3.264439,3,-93.177177,0,2025-02-19T21:45:29Z,-0.085544,-0.99404,-0.044019,2025-02-19T21:45:28Z,0.190299,-0.007506,0.050324,2025-02-19T21:45:28Z
69,252.713211,3.764139,180,44.939997,280.123211,0.188159,3.279204,3,-93.177186,0.28464,2025-02-19T21:45:30Z,-0.049198,-0.997521,-0.03288,2025-02-19T21:45:29Z,0.46361,-0.031192,0.132581,2025-02-19T21:45:29Z
70,252.765799,3.794147,180,44.940005,280.175799,0.188159,3.272186,3,-93.177186,0.862635,2025-02-19T21:45:31Z,0.010043,-1.006866,-0.016963,2025-02-19T21:45:30Z,0.971478,-0.116432,0.27843,2025-02-19T21:45:30Z
71,252.841032,3.776287,151.309033,44.940026,280.251032,0.188159,3.21288,3,-93.177188,1.974265,2025-02-19T21:45:32Z,0.025863,-1.006861,-0.023213,2025-02-19T21:45:31Z,1.034039,-0.113047,0.239446,2025-02-19T21:45:31Z
72,252.600171,2.475994,64.834211,44.940055,280.010171,0.188159,3.250379,3,-93.177186,3.071585,2025-02-19T21:45:33Z,0.004933,-1.00866,-0.026384,2025-02-19T21:45:32Z,0.73709,-0.119897,0.227354,2025-02-19T21:45:32Z
73,252.541351,2.366199,47.732985,44.940094,279.951351,0.188159,3.18786,3,-93.177186,3.971531,2025-02-19T21:45:34Z,-0.013595,-1.003683,-0.047481,2025-02-19T21:45:33Z,0.426185,-0.066835,0.0894,2025-02-19T21:45:33Z
74,252.471842,2.272054,40.176695,44.940135,279.881842,0.188159,3.177069,3,-93.177186,4.581716,2025-02-19T21:45:35Z,-0.009588,-0.977753,-0.054695,2025-02-19T21:45:34Z,0.522671,0.175708,0.100818,2025-02-19T21:45:34Z
75,252.353573,2.227873,32.901548,44.940185,279.763573,359.867523,3.120487,3,-93.177185,5.360767,2025-02-19T21:45:36Z,-0.030582,-0.997789,-0.052016,2025-02-19T21:45:35Z,0.541655,-0.03401,0.136553,2025-02-19T21:45:35Z
76,252.210507,2.163487,28.724455,44.94024,279.620506,359.867523,3.093934,3,-93.177184,6.009436,2025-02-19T21:45:37Z,-0.041393,-0.996234,-0.035869,2025-02-19T21:45:36Z,0.383358,-0.01426,0.175048,2025-02-19T21:45:36Z
77,251.958332,2.092283,25.327534,44.9403,279.368332,359.867523,3.034068,3,-93.177183,6.61667,2025-02-19T21:45:38Z,-0.040063,-1.003209,-0.049823,2025-02-19T21:45:37Z,0.317704,-0.0651,0.022873,2025-02-19T21:45:37Z
78,251.818231,2.058349,23.001437,44.940365,279.228231,359.867523,2.96622,3,-93.177184,7.167865,2025-02-19T21:45:39Z,-0.049485,-0.996191,-0.033185,2025-02-19T21:45:38Z,0.261515,6.11e-4,0.083918,2025-02-19T21:45:38Z
79,251.715672,1.999175,20.553407,44.940438,279.125672,359.867523,2.799822,3,-93.177184,7.799498,2025-02-19T21:45:40Z,-0.049979,-0.995419,-0.03943,2025-02-19T21:45:39Z,0.220264,0.008594,0.022952,2025-02-19T21:45:39Z
80,251.73531,1.976521,19.058871,44.940515,279.14531,359.867523,2.853694,3,-93.177185,8.343574,2025-02-19T21:45:41Z,-0.049769,-0.998672,-0.041743,2025-02-19T21:45:40Z,0.196719,-0.020081,0.041767,2025-02-19T21:45:40Z
81,251.685669,1.919205,17.385249,44.940597,279.095669,359.867523,3.111218,3,-93.177186,8.911704,2025-02-19T21:45:42Z,-0.06509,-0.997746,-0.04502,2025-02-19T21:45:41Z,-0.01305,-0.006301,8.6e-5,2025-02-19T21:45:41Z
82,251.518827,1.874708,16.2535,44.940683,278.928827,0,2.777087,3,-93.177187,9.321617,2025-02-19T21:45:43Z,-0.081142,-1.000725,-0.043479,2025-02-19T21:45:42Z,-0.180431,-0.037091,-0.105401,2025-02-19T21:45:42Z
83,251.572899,1.866921,15.798403,44.940771,278.982898,0.465089,2.485139,3,-93.177182,9.571082,2025-02-19T21:45:44Z,-0.090365,-0.994038,-0.034789,2025-02-19T21:45:43Z,-0.207569,0.032452,-0.075246,2025-02-19T21:45:43Z
84,251.429221,1.871483,15.515226,44.94086,278.839221,0.465089,3.099271,3,-93.17718,9.76781,2025-02-19T21:45:45Z,-0.106748,-0.98344,-0.021257,2025-02-19T21:45:44Z,-0.363228,0.136315,-0.062493,2025-02-19T21:45:44Z
85,251.274182,1.880135,15.770843,44.940946,278.684182,359.816437,2.680051,3,-93.177176,9.638085,2025-02-19T21:45:46Z,-0.139772,-0.988883,-0.03216,2025-02-19T21:45:45Z,-0.632013,0.076085,-0.161015,2025-02-19T21:45:45Z
86,251.023647,1.895354,16.320208,44.941029,278.433647,359.816467,2.42692,3,-93.177183,9.367458,2025-02-19T21:45:47Z,-0.137096,-0.98915,-0.037722,2025-02-19T21:45:46Z,-0.561504,0.0787,-0.143993,2025-02-19T21:45:46Z
87,250.782833,1.940991,17.41884,44.941106,278.192832,0.800749,3.018227,3,-93.177183,8.961738,2025-02-19T21:45:48Z,-0.164789,-0.985058,-0.059678,2025-02-19T21:45:47Z,-0.826789,0.105083,-0.273229,2025-02-19T21:45:47Z
88,250.422385,1.971732,19.642791,44.941176,277.832385,0.800749,2.98895,3,-93.17718,7.997842,2025-02-19T21:45:49Z,-0.263806,-0.974766,-0.086699,2025-02-19T21:45:48Z,-1.734825,0.214343,-0.555315,2025-02-19T21:45:48Z
89,250.125251,2.090867,23.968825,44.941238,277.535251,0.800749,2.721378,3,-93.177183,6.836089,2025-02-19T21:45:50Z,-0.144724,-0.983073,-0.107536,2025-02-19T21:45:49Z,-0.498461,0.114799,-0.761597,2025-02-19T21:45:49Z
90,249.847714,2.088543,26.681548,44.941294,277.257714,0.800749,2.550775,3,-93.177167,6.315807,2025-02-19T21:45:51Z,-0.12476,-0.972452,-0.349075,2025-02-19T21:45:50Z,-0.343143,0.197846,-2.721597,2025-02-19T21:45:50Z
91,249.59047,2.679503,38.984681,44.941332,277.00047,0.800749,2.44062,3,-93.177126,5.525743,2025-02-19T21:45:52Z,-0.08709,-0.969379,-0.354571,2025-02-19T21:45:51Z,0.00224,0.184705,-2.263595,2025-02-19T21:45:51Z
92,NA,NA,NA,NA,NA,NA,NA,NA,NA,NA,NA,-0.074286,-0.95939700000000006,-0.314899,2025-02-19T21:45:52Z,-0.020498,0.337479,-2.006347,2025-02-19T21:45:52Z
