seconds_elapsed,location_altitude,location_speedAccuracy,location_bearingAccuracy,location_latitude,location_altitudeAboveMeanSeaLevel,location_bearing,location_horizontalAccuracy,location_verticalAccuracy,location_longitude,location_speed,location_local_time,accelerometerUncalibrated_z,accelerometerUncalibrated_y,accelerometerUncalibrated_x,accelerometerUncalibrated_local_time,accelerometer_z,accelerometer_y,accelerometer_x,accelerometer_local_time
0,257.970093,0.86,9.642911,44.941737,285.380093,262.617188,3.535534,3,-93.167233,4.1,2025-02-19T21:56:44Z,-0.204106,-0.961466,-0.22541,2025-02-19T21:56:43Z,0.069299,0.107145,-1.235475,2025-02-19T21:56:43Z
1,258.154602,0.39,5.10396,44.941741,285.564602,282.304688,3.535534,3,-93.167282,5.05,2025-02-19T21:56:45Z,-0.120783,-0.980442,-0.073909,2025-02-19T21:56:44Z,0.996203,-0.098362,0.193463,2025-02-19T21:56:44Z
2,257.852295,0.34,3.674152,44.941701,285.262295,270.292664,3.535534,3,-93.167356,6.03,2025-02-19T21:56:46Z,-0.163022,-0.969356,-0.077407,2025-02-19T21:56:45Z,0.530557,0.013383,0.220299,2025-02-19T21:56:45Z
3,257.853149,0.17,1.612806,44.941701,285.263149,270.292664,3.535534,3,-93.167434,6.03,2025-02-19T21:56:47Z,-0.213266,-0.97829,-0.092458,2025-02-19T21:56:46Z,-0.027834,-0.058039,0.120146,2025-02-19T21:56:46Z
4,257.955078,0.32,3.007018,44.941702,285.365078,270.292664,3.535534,3,-93.167518,6.85,2025-02-19T21:56:48Z,-0.190672,-0.989149,-0.077463,2025-02-19T21:56:47Z,0.073167,-0.127396,0.214088,2025-02-19T21:56:47Z
5,258.473877,0.16,1.475524,44.941702,285.883877,270.292664,3.535534,3,-93.167606,6.98,2025-02-19T21:56:49Z,-0.193145,-0.973762,-0.068835,2025-02-19T21:56:48Z,-0.00356,0.014808,0.188465,2025-02-19T21:56:48Z
6,258.423706,0.67,5.616803,44.941702,285.833706,270.292664,3.535534,3,-93.167701,7.8,2025-02-19T21:56:50Z,-0.193517,-0.979921,-0.070962,2025-02-19T21:56:49Z,-0.025407,-0.020613,0.166702,2025-02-19T21:56:49Z
7,258.317627,0.12,1.000533,44.941703,285.727627,270.292664,3.535534,3,-93.167801,8.25,2025-02-19T21:56:51Z,-0.210079,-0.973243,-0.068458,2025-02-19T21:56:50Z,-0.200925,0.039473,0.23733,2025-02-19T21:56:50Z
8,258.271484,0.1,0.810777,44.941703,285.681484,270.292664,3.535534,3,-93.167907,8.25,2025-02-19T21:56:52Z,-0.220928,-0.968296,-0.085989,2025-02-19T21:56:51Z,-0.329632,0.103607,0.097662,2025-02-19T21:56:51Z
9,258.296631,0.09,0.70287,44.941716,285.706631,270.292664,3.535534,3,-93.168015,8.39,2025-02-19T21:56:53Z,-0.205146,-0.961218,-0.079042,2025-02-19T21:56:52Z,-0.172186,0.148028,0.177016,2025-02-19T21:56:52Z
10,258.296636,0.308016,7.258975,44.941716,285.706636,270.2341,4.748652,4.029364,-93.168121,8.39,2025-02-19T21:56:54Z,-0.213395,-0.976813,-0.073076,2025-02-19T21:56:53Z,-0.257445,0.013583,0.18852,2025-02-19T21:56:53Z
11,258.349981,0.308016,7.258975,44.941714,285.759981,270.2341,4.748652,4.029364,-93.168237,8.57,2025-02-19T21:56:55Z,-0.235164,-0.968314,-0.06705,2025-02-19T21:56:54Z,-0.378206,0.08972,0.099755,2025-02-19T21:56:54Z
12,258.323615,0.308016,7.258975,44.941714,285.733615,270.2341,4.748652,4.029364,-93.168354,8.91,2025-02-19T21:56:56Z,-0.245371,-0.967807,-0.080373,2025-02-19T21:56:55Z,-0.447252,0.093527,-0.05025,2025-02-19T21:56:55Z
13,258.028693,1.66,15.096213,44.941714,285.438693,270.2341,4.748652,4.029364,-93.168467,8.91,2025-02-19T21:56:57Z,-0.232103,-0.96533,-0.067773,2025-02-19T21:56:56Z,-0.335037,0.119792,0.046409,2025-02-19T21:56:56Z
14,257.126837,2.4,21.825851,44.941703,284.536837,270.2341,4.748652,4.029364,-93.168588,8.91,2025-02-19T21:56:58Z,-0.265707,-0.968893,-0.056047,2025-02-19T21:56:57Z,-0.643069,0.07689,0.057343,2025-02-19T21:56:57Z
15,257.988409,2.43,22.580181,44.941705,285.398409,270.2341,4.748652,4.029364,-93.168685,8.72,2025-02-19T21:56:59Z,-0.316107,-0.948153,-0.096018,2025-02-19T21:56:58Z,-1.072794,0.264341,-0.123542,2025-02-19T21:56:58Z
16,257.023199,2.01,18.872215,44.941714,284.433199,270.2341,4.748652,4.029364,-93.168792,8.63,2025-02-19T21:57:00Z,-0.356577,-0.935259,-0.106785,2025-02-19T21:56:59Z,-1.466933,0.386125,-0.191287,2025-02-19T21:56:59Z
17,256.546879,0.75,8.223458,44.941709,283.956879,270.2341,4.748652,4.029364,-93.168873,7.39,2025-02-19T21:57:01Z,-0.403132,-0.928003,-0.121196,2025-02-19T21:57:00Z,-1.796184,0.413987,-0.270159,2025-02-19T21:57:00Z
18,256.355961,0.308016,7.258975,44.941708,283.765961,270.2341,4.748652,4.029364,-93.168962,7.39,2025-02-19T21:57:02Z,-0.409228,-0.930818,-0.122117,2025-02-19T21:57:01Z,-1.694299,0.355449,-0.234702,2025-02-19T21:57:01Z
19,256.317508,0.52,9.057701,44.941708,283.727507,270.2341,4.748652,4.029364,-93.169002,5.85,2025-02-19T21:57:03Z,-0.399027,-0.929028,-0.125959,2025-02-19T21:57:02Z,-1.551676,0.351652,-0.222753,2025-02-19T21:57:02Z
20,255.836671,0.46,15.968144,44.941714,283.246671,270.2341,4.748652,4.029364,-93.16901,3.75,2025-02-19T21:57:04Z,-0.318099,-0.948752,-0.113398,2025-02-19T21:57:03Z,-0.750382,0.157656,-0.091392,2025-02-19T21:57:03Z
21,255.95813,0.59,25.84151,44.941713,283.36813,270.2341,4.748652,4.029364,-93.169007,1.85,2025-02-19T21:57:05Z,-0.156992,-0.982274,-0.08417,2025-02-19T21:57:04Z,0.754816,-0.153437,0.184766,2025-02-19T21:57:04Z
22,255.681763,1.028591,180,44.94171,283.091763,270.2341,4.748652,4.029364,-93.168988,0.41,2025-02-19T21:57:06Z,-0.058261,-1.009706,-0.063047,2025-02-19T21:57:05Z,1.644206,-0.402363,0.384031,2025-02-19T21:57:05Z
23,255.68158,0.93,86.616639,44.941708,283.09158,270.2341,4.748652,4.029364,-93.169013,0.87,2025-02-19T21:57:07Z,-0.070119,-1.002818,-0.075627,2025-02-19T21:57:06Z,1.36219,-0.293249,0.259996,2025-02-19T21:57:06Z
24,255.581543,0.33,30.734937,44.941708,282.991543,268.24218,4.748652,4.029364,-93.169047,0.87,2025-02-19T21:57:08Z,-0.079329,-0.988332,-0.081584,2025-02-19T21:57:07Z,1.301562,-0.176551,0.319065,2025-02-19T21:57:07Z
25,255.356446,0.308016,7.750945,44.941707,282.766446,271.054659,4.748652,4.029364,-93.169124,3.22,2025-02-19T21:57:09Z,-0.058557,-0.997341,-0.078898,2025-02-19T21:57:08Z,1.417648,-0.243602,0.295444,2025-02-19T21:57:08Z
26,255.358767,0.308016,7.258975,44.941706,282.768767,270.351514,4.748652,4.029364,-93.169213,5.45,2025-02-19T21:57:10Z,-0.124116,-0.983169,-0.07371,2025-02-19T21:57:09Z,0.936696,-0.122215,0.224739,2025-02-19T21:57:09Z
27,255.050418,1.2,15.632503,44.941708,282.460418,270.351507,4.748652,4.029364,-93.169294,6.22,2025-02-19T21:57:11Z,-0.139772,-0.99847,-0.05487,2025-02-19T21:57:10Z,0.685406,-0.227542,0.220261,2025-02-19T21:57:10Z
28,255.081363,0.71,9.24923,44.941709,282.491363,269.648382,4.748652,4.029364,-93.169393,6.22,2025-02-19T21:57:12Z,-0.164906,-0.978167,-0.071215,2025-02-19T21:57:11Z,0.281341,0.003225,0.048092,2025-02-19T21:57:11Z
29,254.786382,0.45,7.258975,44.941713,282.196382,270.351491,4.748652,4.029364,-93.169515,8.01,2025-02-19T21:57:13Z,-0.177031,-0.968295,-0.089048,2025-02-19T21:57:12Z,0.154776,0.070736,0.005441,2025-02-19T21:57:12Z
30,255.74209,1.269302,12.153308000000001,44.941716,283.15209,270.189309,2.10217,3,-93.169627,8.459486,2025-02-19T21:57:14Z,-0.223694,-0.976561,-0.094689,2025-02-19T21:57:13Z,-0.377593,0.036694,-0.110472,2025-02-19T21:57:13Z
31,255.55576,1.331916,12.257859,44.941707,282.96576,265.876433,2,3,-93.169744,8.801343,2025-02-19T21:57:15Z,-0.237028,-0.97562,-0.09222,2025-02-19T21:57:14Z,-0.467565,0.01747,0.029231,2025-02-19T21:57:14Z
32,255.411455,1.27595,11.902843,44.94171,282.821455,270.220767,2.082596,3,-93.169857,8.681101,2025-02-19T21:57:16Z,-0.212479,-0.952412,-0.087084,2025-02-19T21:57:15Z,-0.277658,0.264714,-0.071665,2025-02-19T21:57:15Z
33,255.598444,0.653941,7.256587,44.941713,283.008444,270.13382,2.049443,3,-93.169966,8.382517,2025-02-19T21:57:17Z,-0.216018,-0.970489,-0.077912,2025-02-19T21:57:16Z,-0.262994,0.075706,0.032695,2025-02-19T21:57:16Z
34,255.644772,0.660209,7.256582,44.941711,283.054772,270.13382,2.030023,3,-93.170072,8.310651,2025-02-19T21:57:18Z,-0.211768,-0.976781,-0.101815,2025-02-19T21:57:17Z,-0.263311,0.010861,-0.080401,2025-02-19T21:57:17Z
35,256.013014,0.649223,7.258148,44.941713,283.423014,270.13382,2.220356,3,-93.17018,8.417132,2025-02-19T21:57:19Z,-0.222542,-0.967625,-0.105407,2025-02-19T21:57:18Z,-0.343088,0.095638,-0.027705,2025-02-19T21:57:18Z
36,256.241938,0.661725,7.257946,44.941711,283.651938,270.13382,2.472436,3,-93.170287,8.40674,2025-02-19T21:57:20Z,-0.226427,-0.966963,-0.097695,2025-02-19T21:57:19Z,-0.290728,0.084679,-0.038148,2025-02-19T21:57:19Z
37,255.718229,0.646006,7.254205,44.941711,283.128228,270.13382,2.318396,3,-93.170387,8.120253,2025-02-19T21:57:21Z,-0.240419,-0.965287,-0.087605,2025-02-19T21:57:20Z,-0.4161,0.116113,-0.131479,2025-02-19T21:57:20Z
38,255.126819,0.672631,7.243504,44.941716,282.536819,270.13382,2.485797,3,-93.170484,7.907208,2025-02-19T21:57:22Z,-0.296578,-0.950382,-0.104576,2025-02-19T21:57:21Z,-0.921715,0.248111,-0.138149,2025-02-19T21:57:21Z
39,255.347234,0.652961,7.430344,44.941712,282.757234,270.13382,2.365592,3,-93.170571,7.120057,2025-02-19T21:57:23Z,-0.34905,-0.937034,-0.132271,2025-02-19T21:57:22Z,-1.427767,0.352082,-0.257647,2025-02-19T21:57:22Z
40,255.247742,0.664007,8.964451,44.941713,282.657742,270.13382,2.535359,3,-93.170643,6.000927,2025-02-19T21:57:24Z,-0.39038,-0.933736,-0.131823,2025-02-19T21:57:23Z,-1.649195,0.353224,-0.311568,2025-02-19T21:57:23Z
41,255.233694,0.658995,12.560922,44.941715,282.643693,270.13382,2.428288,3,-93.170689,4.251373,2025-02-19T21:57:25Z,-0.392723,-0.92731,-0.137394,2025-02-19T21:57:24Z,-1.580475,0.393213,-0.304837,2025-02-19T21:57:24Z
42,255.19333,0.669769,21.634317,44.941715,282.60333,270.13382,2.495554,3,-93.170713,2.508367,2025-02-19T21:57:26Z,-0.330801,-0.946185,-0.115706,2025-02-19T21:57:25Z,-0.773081,0.156207,-0.123609,2025-02-19T21:57:25Z
43,255.303627,0.834774,130.390141,44.941715,282.713627,270.13382,2.728948,3,-93.170706,0.514479,2025-02-19T21:57:27Z,-0.136591,-0.988049,-0.077159,2025-02-19T21:57:26Z,1.041575,-0.227731,0.213198,2025-02-19T21:57:26Z
44,255.470318,0.966742,80.878644,44.941717,282.880318,270.13382,2.63783,3,-93.170722,0.947278,2025-02-19T21:57:28Z,-0.01848,-1.022064,-0.056375,2025-02-19T21:57:27Z,1.981775,-0.499921,0.360886,2025-02-19T21:57:27Z
45,255.57991,0.666294,18.722833,44.941716,282.98991,270.13382,2.606794,3,-93.170776,2.870529,2025-02-19T21:57:29Z,-0.084699,-1.005662,-0.056921,2025-02-19T21:57:28Z,1.16083,-0.302772,0.298861,2025-02-19T21:57:28Z
46,255.674486,0.653543,13.232886,44.941716,283.084486,270.13382,2.546115,3,-93.170834,4.00183,2025-02-19T21:57:30Z,-0.09376,-0.98425,-0.044518,2025-02-19T21:57:29Z,1.123466,-0.101029,0.388098,2025-02-19T21:57:29Z
47,255.710662,0.642951,10.380847,44.941713,283.120662,270.11441,2.496468,3,-93.170902,5.019343,2025-02-19T21:57:31Z,-0.120196,-0.972282,-0.066148,2025-02-19T21:57:30Z,0.910213,0.009483,0.266972,2025-02-19T21:57:30Z
48,255.722561,0.64127,8.865187,44.941709,283.132561,270.11441,2.455096,3,-93.170982,5.860333,2025-02-19T21:57:32Z,-0.163104,-0.985253,-0.095772,2025-02-19T21:57:31Z,0.390353,-0.103138,0.001893,2025-02-19T21:57:31Z
49,255.764517,0.635873,8.151592,44.941705,283.174517,270.11441,2.41769,3,-93.171065,6.317949,2025-02-19T21:57:33Z,-0.186284,-0.969731,-0.132663,2025-02-19T21:57:32Z,0.166084,0.006702,-0.103573,2025-02-19T21:57:32Z
50,255.816821,0.649143,7.99711,44.941701,283.226821,270.11441,2.374175,3,-93.17115,6.576597,2025-02-19T21:57:34Z,-0.183187,-0.966308,-0.153783,2025-02-19T21:57:33Z,0.155808,0.035058,-0.129637,2025-02-19T21:57:33Z
51,255.639375,0.674148,8.047025,44.941698,283.049375,270.11441,2.349294,3,-93.171237,6.765556,2025-02-19T21:57:35Z,-0.185688,-0.985966,-0.132802,2025-02-19T21:57:34Z,0.019041,-0.122841,-0.012355,2025-02-19T21:57:34Z
52,255.751182,0.657192,7.599691,44.941697,283.161182,270.11441,2.293756,3,-93.171327,7.005266,2025-02-19T21:57:36Z,-0.189493,-0.97342,-0.140897,2025-02-19T21:57:35Z,-0.052672,0.00568,-0.028957,2025-02-19T21:57:35Z
53,255.894241,0.654984,7.463409,44.941695,283.304241,270.11441,2.236606,3,-93.171417,7.112368,2025-02-19T21:57:37Z,-0.174715,-0.963784,-0.15043,2025-02-19T21:57:36Z,0.071588,0.084575,-0.060055,2025-02-19T21:57:36Z
54,255.76486,0.658624,7.476667,44.941693,283.17486,270.11441,2.272748,3,-93.171507,7.135586,2025-02-19T21:57:38Z,-0.183326,-0.962591,-0.145416,2025-02-19T21:57:37Z,0.020917,0.08667,-0.023604,2025-02-19T21:57:37Z
55,255.737395,0.652318,7.28791,44.941693,283.147395,270.11441,2.211863,3,-93.1716,7.250154,2025-02-19T21:57:39Z,-0.178688,-0.974853,-0.158079,2025-02-19T21:57:38Z,0.012558,-0.026937,-0.065209,2025-02-19T21:57:38Z
56,255.783705,0.78824,8.714124,44.941685,283.193705,270.11441,3.076451,3,-93.171693,7.325908,2025-02-19T21:57:40Z,-0.171177,-0.958361,-0.158845,2025-02-19T21:57:39Z,0.12378,0.131917,-0.087203,2025-02-19T21:57:39Z
57,254.688663,0.791338,8.929624,44.941683,282.098662,270.11441,2.81663,3,-93.171778,7.10255,2025-02-19T21:57:41Z,-0.180096,-0.983288,-0.157152,2025-02-19T21:57:40Z,0.030345,-0.10554,-0.141352,2025-02-19T21:57:40Z
58,254.834596,0.667626,7.258969,44.941697,282.244595,270.11441,2.594178,3,-93.171887,7.846621,2025-02-19T21:57:42Z,-0.186889,-0.971935,-0.114504,2025-02-19T21:57:41Z,-0.016765,0.020821,0.155424,2025-02-19T21:57:41Z
59,254.445569,0.657907,7.257183,44.941702,281.855569,270.11441,2.51077,3,-93.171989,8.009074,2025-02-19T21:57:43Z,-0.19165,-0.965912,-0.130658,2025-02-19T21:57:42Z,-0.030944,0.055478,0.078577,2025-02-19T21:57:42Z
60,254.461948,0.654504,7.258339,44.941704,281.871948,270.11441,2.411391,3,-93.172092,8.110116,2025-02-19T21:57:44Z,-0.225149,-0.976132,-0.10774,2025-02-19T21:57:43Z,-0.285878,-0.039127,0.261444,2025-02-19T21:57:43Z
61,254.325146,0.726292,7.723486,44.941695,281.735146,270,2.280087,3,-93.172186,7.609687,2025-02-19T21:57:45Z,-0.214171,-0.961798,-0.151575,2025-02-19T21:57:44Z,-0.308088,0.111077,-0.08589,2025-02-19T21:57:44Z
62,254.312152,0.670153,7.258177,44.9417,281.722152,270.130157,2.187331,3,-93.172296,7.981346,2025-02-19T21:57:46Z,-0.214102,-0.959958,-0.151914,2025-02-19T21:57:45Z,-0.268588,0.113048,-0.083619,2025-02-19T21:57:45Z
63,254.083997,0.673083,7.251562,44.941698,281.493997,270.130157,2.127522,3,-93.172393,7.804058,2025-02-19T21:57:47Z,-0.177152,-0.959162,-0.133935,2025-02-19T21:57:46Z,0.115187,0.119146,0.05927,2025-02-19T21:57:46Z
64,254.103956,0.660272,7.255855,44.941698,281.513956,270.130157,2.087944,3,-93.172491,7.785015,2025-02-19T21:57:48Z,-0.168898,-0.98336,-0.157989,2025-02-19T21:57:47Z,0.148463,-0.105481,-0.091801,2025-02-19T21:57:47Z
65,254.302574,0.643906,7.258903,44.941698,281.712574,270.130157,2.060113,3,-93.172593,7.959814,2025-02-19T21:57:49Z,-0.15766,-0.976659,-0.183818,2025-02-19T21:57:48Z,0.250279,-0.065144,-0.245953,2025-02-19T21:57:48Z
66,254.302942,0.667308,7.258964,44.941697,281.712942,270.130157,2.040428,3,-93.172702,8.416445,2025-02-19T21:57:50Z,-0.161259,-0.970105,-0.133563,2025-02-19T21:57:49Z,0.23779,0.020873,0.082195,2025-02-19T21:57:49Z
67,254.446259,0.656599,7.258832,44.941701,281.856259,270.130157,2.026718,3,-93.172814,8.706854,2025-02-19T21:57:51Z,-0.165831,-0.973532,-0.118666,2025-02-19T21:57:50Z,0.183991,0.009009,0.071631,2025-02-19T21:57:50Z
68,254.476957,0.670883,7.258451,44.941703,281.886957,270.130157,2.169162,3,-93.172935,9.215284,2025-02-19T21:57:52Z,-0.195531,-0.979438,-0.107221,2025-02-19T21:57:51Z,-0.058549,-0.041848,0.071322,2025-02-19T21:57:51Z
69,254.682908,0.659242,7.25673,44.941704,282.092908,270.130157,2.157547,3,-93.173046,9.024189,2025-02-19T21:57:53Z,-0.195062,-0.972084,-0.08146,2025-02-19T21:57:52Z,-0.031814,0.03186,0.189008,2025-02-19T21:57:52Z
70,254.292753,0.659338,7.258895,44.941707,281.702753,270.130157,2.100071,3,-93.173168,9.380793,2025-02-19T21:57:54Z,-0.189184,-0.975989,-0.096595,2025-02-19T21:57:53Z,0.005466,0.007314,0.040648,2025-02-19T21:57:53Z
71,254.026271,0.651542,7.258231,44.941709,281.436271,270.130157,2.0631,3,-93.173287,9.467199,2025-02-19T21:57:55Z,-0.190222,-0.991456,-0.104796,2025-02-19T21:57:54Z,-0.069333,-0.122773,-0.068242,2025-02-19T21:57:54Z
72,253.994875,0.654678,7.258789,44.941708,281.404875,270.130157,2.039504,3,-93.173408,9.590084,2025-02-19T21:57:56Z,-0.188233,-0.944786,-0.069936,2025-02-19T21:57:55Z,0.072386,0.325079,0.01656,2025-02-19T21:57:55Z
73,253.854394,0.64922,7.258547,44.94171,281.264394,271.15921,2.024505,3,-93.173533,9.735246,2025-02-19T21:57:57Z,-0.225267,-0.966769,-0.124277,2025-02-19T21:57:56Z,-0.20069,0.055202,-0.199164,2025-02-19T21:57:56Z
74,253.321064,0.658598,7.251467,44.941713,280.731064,271.15921,2.01506,3,-93.173655,9.644181,2025-02-19T21:57:58Z,-0.246194,-0.966435,-0.100185,2025-02-19T21:57:57Z,-0.422441,0.081643,-2.58e-4,2025-02-19T21:57:57Z
75,253.614993,0.68242,7.258974,44.941714,281.024993,269.529877,2.0481,3,-93.17377,9.292913,2025-02-19T21:57:59Z,-0.283926,-0.960885,-0.119523,2025-02-19T21:57:58Z,-0.789264,0.127152,-0.229154,2025-02-19T21:57:58Z
76,253.761603,0.669108,7.257943,44.941717,281.171603,269.529877,2.030337,3,-93.173882,8.819809,2025-02-19T21:58:00Z,-0.359315,-0.932977,-0.102105,2025-02-19T21:57:59Z,-1.491198,0.397415,-0.017006,2025-02-19T21:57:59Z
77,253.077502,0.661527,7.249721,44.941716,280.487502,268.270508,2.019826,3,-93.173978,7.770324,2025-02-19T21:58:01Z,-0.401938,-0.927601,-0.123253,2025-02-19T21:58:00Z,-1.84235,0.403295,-0.0342,2025-02-19T21:58:00Z
78,253.22052,0.672757,8.968104,44.941711,280.63052,261.262665,2.013956,3,-93.174047,6.061121,2025-02-19T21:58:02Z,-0.398485,-0.927329,-0.141993,2025-02-19T21:58:01Z,-1.616472,0.362459,-0.120277,2025-02-19T21:58:01Z
