seconds_elapsed,location_altitude,location_speedAccuracy,location_bearingAccuracy,location_latitude,location_altitudeAboveMeanSeaLevel,location_bearing,location_horizontalAccuracy,location_verticalAccuracy,location_longitude,location_speed,location_local_time,accelerometerUncalibrated_z,accelerometerUncalibrated_y,accelerometerUncalibrated_x,accelerometerUncalibrated_local_time,accelerometer_z,accelerometer_y,accelerometer_x,accelerometer_local_time
0,NA,NA,NA,NA,NA,NA,NA,NA,NA,NA,NA,-0.131921,-0.995058,-0.154097,2025-03-07T00:50:24Z,1.102062,-0.251778,-1.548417,2025-03-07T00:50:24Z
1,NA,NA,NA,NA,NA,NA,NA,NA,NA,NA,NA,-0.106024,-1.003514,-0.019967,2025-03-07T00:50:25Z,1.111802,-0.275544,-0.364365,2025-03-07T00:50:25Z
2,250.176697,3.1,39.991468,44.934395,277.586697,328.007812,4.155193,3,-93.177244,4.02,2025-03-07T00:50:26Z,-0.122178,-0.995791,0.046929,2025-03-07T00:50:26Z,0.780231,-0.165821,0.31032,2025-03-07T00:50:26Z
3,251.8526,0.95,6.800313,44.934534,279.2626,7.03125,3.535534,3,-93.177203,9.12,2025-03-07T00:50:27Z,-0.090816,-1.006189,0.053697,2025-03-07T00:50:27Z,0.958705,-0.234314,0.409664,2025-03-07T00:50:27Z
4,251.721924,0.09,0.644818,44.934608,279.131924,359.296875,3.535534,3,-93.177206,9.38,2025-03-07T00:50:28Z,-0.175448,-0.980899,0.05709,2025-03-07T00:50:28Z,0.101689,0.016456,0.380987,2025-03-07T00:50:28Z
5,251.825684,0.33,2.113462,44.934692,279.235683,1.054688,3.535534,3,-93.177205,9.38,2025-03-07T00:50:29Z,-0.172218,-0.983588,0.055583,2025-03-07T00:50:29Z,0.099517,-0.007101,0.290543,2025-03-07T00:50:29Z
6,251.737915,0.43,2.585604,44.934789,279.147915,0.351562,3.535534,3,-93.177208,10.19,2025-03-07T00:50:30Z,-0.185899,-0.983641,0.057403,2025-03-07T00:50:30Z,-0.04164,-0.002488,0.28128,2025-03-07T00:50:30Z
7,251.673401,0.68,3.817937,44.934889,279.083401,0.247816,3.535534,3,-93.17721,10.93,2025-03-07T00:50:31Z,-0.20671,-0.972194,0.049714,2025-03-07T00:50:31Z,-0.27436,0.103376,0.148534,2025-03-07T00:50:31Z
8,251.492798,0.47,2.497146,44.934996,278.902798,0.247816,3.535534,3,-93.177203,12.18,2025-03-07T00:50:33Z,-0.228993,-0.964258,0.055242,2025-03-07T00:50:32Z,-0.436662,0.173408,0.129511,2025-03-07T00:50:32Z
9,251.68689,0.44,2.431629,44.935104,279.096889,0.247816,3.535534,3,-93.177199,12.18,2025-03-07T00:50:34Z,-0.241124,-0.993003,0.069319,2025-03-07T00:50:33Z,-0.608225,-0.087349,0.207964,2025-03-07T00:50:33Z
10,251.794434,0.51,2.709783,44.935213,279.204433,0.247816,3.535534,3,-93.177201,12.18,2025-03-07T00:50:35Z,-0.229786,-0.949744,0.016313,2025-03-07T00:50:34Z,-0.438145,0.310766,0.02151,2025-03-07T00:50:34Z
11,251.51001,0.96,4.98516,44.935319,278.92001,0,3.535534,3,-93.177208,11.91,2025-03-07T00:50:36Z,-0.23302,-0.968014,0.032898,2025-03-07T00:50:35Z,-0.406114,0.124255,0.065415,2025-03-07T00:50:35Z
12,251.752258,1.61,5.142439,44.935434,279.162258,0,3.535534,3,-93.177189,12.76,2025-03-07T00:50:37Z,-0.254141,-0.96873,0.039392,2025-03-07T00:50:36Z,-0.581439,0.117176,0.007205,2025-03-07T00:50:36Z
13,251.414307,0.64,3.263379,44.935555,278.824306,0,3.535534,3,-93.177209,12.85,2025-03-07T00:50:38Z,-0.25255,-0.967617,0.054919,2025-03-07T00:50:37Z,-0.493487,0.101931,-0.005152,2025-03-07T00:50:37Z
14,251.334656,0.49,2.507634,44.935669,278.744656,0,3.535534,3,-93.177208,12.77,2025-03-07T00:50:39Z,-0.236244,-0.958371,0.062444,2025-03-07T00:50:38Z,-0.315759,0.182272,0.082005,2025-03-07T00:50:38Z
15,251.334669,0.49,7.258975,44.935784,278.744668,0,4.748652,4.029364,-93.177206,12.77,2025-03-07T00:50:40Z,-0.246116,-0.966186,0.05142,2025-03-07T00:50:39Z,-0.413809,0.115789,0.066049,2025-03-07T00:50:39Z
16,250.971204,1.75,11.104136,44.935898,278.381204,0,4.748652,4.029364,-93.1772,12.77,2025-03-07T00:50:41Z,-0.261618,-0.977906,0.032416,2025-03-07T00:50:40Z,-0.555929,7.17e-4,-0.086668,2025-03-07T00:50:40Z
17,251.534071,1.21,7.438881,44.936024,278.944071,0,4.748652,4.029364,-93.177201,13.18,2025-03-07T00:50:42Z,-0.245833,-0.944788,0.044949,2025-03-07T00:50:41Z,-0.442229,0.327543,0.071057,2025-03-07T00:50:41Z
18,251.450331,0.39,7.258975,44.936137,278.860331,0,4.748652,4.029364,-93.177196,13.18,2025-03-07T00:50:43Z,-0.256995,-0.970652,0.03924,2025-03-07T00:50:42Z,-0.363082,0.052136,0.079744,2025-03-07T00:50:42Z
19,251.768202,0.308016,7.258975,44.936251,279.178201,0.115845,4.748652,4.029364,-93.177194,12.9,2025-03-07T00:50:44Z,-0.258227,-0.962047,0.031601,2025-03-07T00:50:43Z,-0.405213,0.124282,-0.031499,2025-03-07T00:50:43Z
20,251.209485,0.35,7.258975,44.936365,278.619485,0.115845,4.748652,4.029364,-93.177189,12.75,2025-03-07T00:50:45Z,-0.234346,-0.966576,0.044937,2025-03-07T00:50:44Z,-0.154195,0.088765,-0.007176,2025-03-07T00:50:44Z
21,251.578748,0.308016,7.258975,44.936476999999996,278.988748,0.115845,4.748652,4.029364,-93.177194,12.75,2025-03-07T00:50:46Z,-0.22579,-0.982644,0.041542,2025-03-07T00:50:45Z,-0.037508,-0.088984,-0.001509,2025-03-07T00:50:45Z
22,251.317945,0.308016,7.258975,44.936594,278.727945,0.115845,4.748652,4.029364,-93.177197,12.79,2025-03-07T00:50:47Z,-0.238305,-0.960646,0.047453,2025-03-07T00:50:46Z,-0.177808,0.140268,0.09678,2025-03-07T00:50:46Z
23,251.031629,0.308016,7.258975,44.936704,278.441629,0,4.748652,4.029364,-93.177204,12.79,2025-03-07T00:50:47Z,-0.239881,-0.968532,0.047376,2025-03-07T00:50:47Z,-0.192967,0.060178,0.030846,2025-03-07T00:50:47Z
24,250.558973,0.43,7.258975,44.936826,277.968973,0,4.748652,4.029364,-93.177199,12.79,2025-03-07T00:50:48Z,-0.243293,-0.968141,0.037481,2025-03-07T00:50:48Z,-0.250188,0.063572,-0.058764,2025-03-07T00:50:48Z
25,250.886366,1.62,9.944403,44.936958,278.296366,0,4.748652,4.029364,-93.177194,13.2,2025-03-07T00:50:49Z,-0.255922,-0.961242,0.030667,2025-03-07T00:50:49Z,-0.293357,0.11923,-0.101831,2025-03-07T00:50:49Z
26,250.677992,0.8,7.258975,44.937076,278.087992,0,4.748652,4.029364,-93.177194,13.3,2025-03-07T00:50:50Z,-0.244374,-0.966154,0.022131,2025-03-07T00:50:50Z,-0.203419,0.07271,-0.069629,2025-03-07T00:50:50Z
27,250.514784,0.35,7.258975,44.937194,277.924784,0.129609,4.748652,4.029364,-93.177195,13.23,2025-03-07T00:50:51Z,-0.255135,-0.963783,0.029967,2025-03-07T00:50:51Z,-0.277518,0.103862,-0.010787,2025-03-07T00:50:51Z
28,250.347792,0.7,7.258975,44.937306,277.757792,0.129609,4.748652,4.029364,-93.177193,13.23,2025-03-07T00:50:52Z,-0.246772,-0.957317,0.041107,2025-03-07T00:50:52Z,-0.133495,0.132972,0.006146,2025-03-07T00:50:52Z
29,250.456556,0.4,7.258975,44.937421,277.866556,0.129609,4.748652,4.029364,-93.177197,13.05,2025-03-07T00:50:53Z,-0.245576,-0.967569,0.042738,2025-03-07T00:50:53Z,-0.125275,0.046639,0.057044,2025-03-07T00:50:53Z
30,250.337843,0.308016,7.258975,44.937537,277.747843,0.258363,4.748652,4.029364,-93.177195,13.02,2025-03-07T00:50:54Z,-0.259067,-0.963398,0.03647,2025-03-07T00:50:54Z,-0.246036,0.077012,-0.025153,2025-03-07T00:50:54Z
31,250.385267,0.7,7.258975,44.937656,277.795267,0.258363,4.748652,4.029364,-93.177199,13.02,2025-03-07T00:50:55Z,-0.263603,-0.977316,0.027165,2025-03-07T00:50:55Z,-0.278024,-0.062225,-0.149431,2025-03-07T00:50:55Z
32,250.37953,1.48,9.238994,44.937774,277.78953,0.258363,4.748652,4.029364,-93.177193,12.98,2025-03-07T00:50:56Z,-0.238049,-0.948631,0.01871,2025-03-07T00:50:56Z,-0.096415,0.240668,-0.02231,2025-03-07T00:50:56Z
33,250.500013,0.57,7.258975,44.937889,277.910013,0.258363,4.748652,4.029364,-93.177195,12.98,2025-03-07T00:50:57Z,-0.243538,-0.969111,0.043027,2025-03-07T00:50:57Z,-0.003318,0.003608,0.081608,2025-03-07T00:50:57Z
34,250.178358,0.308016,7.258975,44.938002,277.588358,0,4.748652,4.029364,-93.177198,12.81,2025-03-07T00:50:58Z,-0.235213,-0.964056,0.026272,2025-03-07T00:50:58Z,0.080495,0.053145,-0.058025,2025-03-07T00:50:58Z
35,251.815429,1.273928,8.020635,44.938109,279.225429,0,2,3,-93.177182,12.86979,2025-03-07T00:50:59Z,-0.241553,-0.975818,0.029688,2025-03-07T00:50:59Z,-0.012101,-0.056888,-0.041924,2025-03-07T00:50:59Z
36,251.768398,1.27589,7.90815,44.938233,279.178398,0,2.145632,3,-93.177182,13.072563,2025-03-07T00:51:00Z,-0.2364,-0.96218,0.039876,2025-03-07T00:51:00Z,0.050026,0.062195,0.052705,2025-03-07T00:51:00Z
37,251.959916,1.28144,8.050933,44.938346,279.369915,0,2.072816,3,-93.177182,12.896768,2025-03-07T00:51:01Z,-0.25958,-0.968312,0.033548,2025-03-07T00:51:01Z,-0.150251,0.01379,0.003622,2025-03-07T00:51:01Z
38,251.621515,0.682004,7.258113,44.938466,279.031515,0,2.035255,3,-93.177188,13.082043,2025-03-07T00:51:02Z,-0.247234,-0.963983,0.031054,2025-03-07T00:51:02Z,-0.072351,0.067179,-0.035922,2025-03-07T00:51:02Z
39,251.518313,0.682981,7.258548,44.938587,278.928313,0.29064,2.017766,3,-93.177187,13.19033,2025-03-07T00:51:03Z,-0.246648,-0.965915,0.031296,2025-03-07T00:51:03Z,-0.032571,0.040059,-0.017521,2025-03-07T00:51:03Z
40,251.701085,0.677553,7.258975,44.938704,279.111085,0.29064,2.00885,3,-93.177189,13.099165,2025-03-07T00:51:04Z,-0.241169,-0.966626,0.027459,2025-03-07T00:51:04Z,8.99e-4,0.02788,-0.015855,2025-03-07T00:51:04Z
41,251.586298,0.682853,7.258733,44.938822,278.996298,0.29064,2.004407,3,-93.177187,13.179866,2025-03-07T00:51:05Z,-0.239177,-0.979288,0.031443,2025-03-07T00:51:05Z,0.007371,-0.083271,-0.02047,2025-03-07T00:51:05Z
42,251.055187,0.680107,7.256695,44.938943,278.465187,0.29064,2.049909,3,-93.177189,13.300399,2025-03-07T00:51:06Z,-0.22668,-0.949798,0.020479,2025-03-07T00:51:06Z,0.097512,0.196551,-0.064086,2025-03-07T00:51:06Z
43,251.420756,0.680964,7.258955,44.939064,278.830756,0.29064,2.024553,3,-93.17719,13.421084,2025-03-07T00:51:07Z,-0.257175,-0.971665,0.018072,2025-03-07T00:51:07Z,-0.105517,-0.032316,-0.082438,2025-03-07T00:51:07Z
44,250.889424,0.677289,7.257798,44.939184,278.299424,0.307262,2.012043,3,-93.17719,13.407944,2025-03-07T00:51:08Z,-0.244152,-0.963176,0.023622,2025-03-07T00:51:08Z,-0.021642,0.076056,-0.033285,2025-03-07T00:51:08Z
45,251.355749,0.68074,7.258694,44.939302,278.765749,0.307262,2.005966,3,-93.177186,13.303635,2025-03-07T00:51:09Z,-0.267765,-0.965725,0.025816,2025-03-07T00:51:09Z,-0.231455,0.03599,-0.016557,2025-03-07T00:51:09Z
46,251.163697,0.828512,7.258885,44.939412,278.573697,0.307262,2.456405,3,-93.177187,12.733437,2025-03-07T00:51:10Z,-0.339284,-0.942668,0.009021,2025-03-07T00:51:10Z,-0.893024,0.250888,-0.15841,2025-03-07T00:51:10Z
47,249.765041,0.7958,7.247757,44.939526,277.175041,0.307235,2.229053,3,-93.17716,12.558978,2025-03-07T00:51:11Z,-0.429941,-0.921373,-0.023852,2025-03-07T00:51:11Z,-1.721569,0.442709,-0.455092,2025-03-07T00:51:11Z
48,249.859101,0.726857,7.255735,44.939631,277.269101,0,2.116425,3,-93.177176,11.619282,2025-03-07T00:51:12Z,-0.481994,-0.902231,-0.041847,2025-03-07T00:51:12Z,-2.163661,0.624306,-0.505289,2025-03-07T00:51:12Z
49,249.961087,0.708833,7.257937,44.939715,277.371087,0,2.305953,3,-93.177182,10.042225,2025-03-07T00:51:13Z,-0.441048,-0.918427,-0.026073,2025-03-07T00:51:13Z,-1.607331,0.411734,-0.350708,2025-03-07T00:51:13Z
50,249.931681,0.675266,7.258711,44.939774,277.341681,0,2.282683,3,-93.177181,7.863761,2025-03-07T00:51:14Z,-0.398754,-0.928685,-0.014957,2025-03-07T00:51:14Z,-0.98321,0.250864,-0.213969,2025-03-07T00:51:14Z
51,249.938958,0.687004,9.729556,44.939815,277.348958,0,2.183445,3,-93.177179,5.717015,2025-03-07T00:51:15Z,-0.38629,-0.932373,-0.014255,2025-03-07T00:51:15Z,-0.787458,0.1951,-0.190611,2025-03-07T00:51:15Z
52,249.918118,0.698446,13.736766,44.939845,277.328118,0.188147,2.137584,3,-93.177181,4.077296,2025-03-07T00:51:16Z,-0.317424,-0.949477,0.001837,2025-03-07T00:51:16Z,-0.069185,0.01345,-0.025708,2025-03-07T00:51:16Z
53,249.951841,0.701119,18.111061,44.93987,277.361841,0.188147,2.110067,3,-93.17718,3.099636,2025-03-07T00:51:17Z,-0.251828,-0.964323,0.017334,2025-03-07T00:51:17Z,0.589158,-0.143011,0.106314,2025-03-07T00:51:17Z
54,250.032774,0.694053,21.569153,44.939891,277.442774,0.188147,2.097593,3,-93.177182,2.589566,2025-03-07T00:51:18Z,-0.302046,-0.953699,0.011551,2025-03-07T00:51:18Z,0.14022,-0.047259,0.046081,2025-03-07T00:51:18Z
55,249.738082,0.721536,21.687253,44.939916,277.148081,0.188147,2.094029,3,-93.177178,2.398028,2025-03-07T00:51:19Z,-0.311426,-0.950571,9.54e-4,2025-03-07T00:51:19Z,0.016421,-0.008411,-0.054182,2025-03-07T00:51:19Z
56,250.799789,0.792844,16.479469,44.939953,278.209789,0.188147,2.157028,3,-93.177179,3.233864,2025-03-07T00:51:20Z,-0.293142,-0.956214,0.007607,2025-03-07T00:51:20Z,0.179183,-0.058276,0.023277,2025-03-07T00:51:20Z
57,250.790115,0.825029,36.106505,44.939951,278.200115,0.188147,2.380733,3,-93.177178,1.531969,2025-03-07T00:51:21Z,-0.296325,-0.954831,7.41e-4,2025-03-07T00:51:21Z,0.117778,-0.036217,-0.00762,2025-03-07T00:51:21Z
58,250.556218,0.757252,83.98989,44.939951,277.966218,0.188147,2.397354,3,-93.177178,0.60164,2025-03-07T00:51:22Z,-0.292705,-0.955995,3.25e-4,2025-03-07T00:51:22Z,0.136356,-0.037783,0.007473,2025-03-07T00:51:22Z
59,250.674056,0.90866,180,44.939953,278.084056,0.188147,2.565522,3,-93.17718,0.149203,2025-03-07T00:51:23Z,-0.241953,-0.967637,0.012089,2025-03-07T00:51:23Z,0.591717,-0.144028,0.10384,2025-03-07T00:51:23Z
60,250.698346,0.911962,180,44.939955,278.108346,0.188147,2.606555,3,-93.177182,0.042897,2025-03-07T00:51:24Z,-0.244691,-0.967443,0.011575,2025-03-07T00:51:24Z,0.523879,-0.127865,0.09676,2025-03-07T00:51:24Z
61,250.82436,0.917937,180,44.939958,278.23436,0.188147,2.65658,3,-93.177185,0.067404,2025-03-07T00:51:25Z,-0.244555,-0.967574,0.011027,2025-03-07T00:51:25Z,0.498478,-0.118024,0.083073,2025-03-07T00:51:25Z
62,250.845517,0.930647,180,44.939959,278.255517,0.188147,2.818829,3,-93.177188,0.071192,2025-03-07T00:51:26Z,-0.244575,-0.967585,0.011016,2025-03-07T00:51:26Z,0.467311,-0.110248,0.077068,2025-03-07T00:51:26Z
63,250.729684,0.93588,180,44.939958,278.139684,0.188147,2.820741,3,-93.177188,0.046516,2025-03-07T00:51:27Z,-0.24441,-0.967595,0.011132,2025-03-07T00:51:27Z,0.43695,-0.101274,0.071801,2025-03-07T00:51:27Z
64,250.845172,0.916418,180,44.939959,278.255172,0.188147,2.887397,3,-93.177191,0.0176,2025-03-07T00:51:28Z,-0.24464,-0.967578,0.011283,2025-03-07T00:51:28Z,0.404993,-0.092328,0.06459,2025-03-07T00:51:28Z
65,251.094574,1.078753,180,44.939964,278.504574,0.188147,3.096861,3,-93.177193,0.18457200000000001,2025-03-07T00:51:29Z,-0.244926,-0.967493,0.01125,2025-03-07T00:51:29Z,0.37275,-0.080855,0.054332,2025-03-07T00:51:29Z
66,251.115599,0.922242,180,44.939963,278.525598,0.188147,3.160691,3,-93.177194,0,2025-03-07T00:51:30Z,-0.244498,-0.967578,0.010768,2025-03-07T00:51:30Z,0.343744,-0.073963,0.047616,2025-03-07T00:51:30Z
67,251.115599,0.912047,180,44.939963,278.525598,0.188147,3.302529,3,-93.177194,0,2025-03-07T00:51:31Z,-0.244748,-0.967472,0.011353,2025-03-07T00:51:31Z,0.314291,-0.064851,0.047016,2025-03-07T00:51:31Z
68,251.115599,0.94256,180,44.939963,278.525598,0.188147,3.251773,3,-93.177194,0,2025-03-07T00:51:32Z,-0.244543,-0.967665,0.011216,2025-03-07T00:51:32Z,0.289235,-0.058357,0.034475,2025-03-07T00:51:32Z
69,251.115599,0.916424,180,44.939963,278.525598,0.188147,3.408238,3,-93.177194,0,2025-03-07T00:51:33Z,-0.244749,-0.967374,0.01101,2025-03-07T00:51:33Z,0.262541,-0.050645,0.030474,2025-03-07T00:51:33Z
70,251.115599,0.910432,180,44.939963,278.525598,0.188147,3.386154,3,-93.177194,0,2025-03-07T00:51:34Z,-0.244451,-0.967904,0.0114,2025-03-07T00:51:34Z,0.244212,-0.046226,0.025583,2025-03-07T00:51:34Z
71,251.115599,0.915216,180,44.939963,278.525598,0.188147,3.373966,3,-93.177194,0,2025-03-07T00:51:35Z,-0.244821,-0.967467,0.011058,2025-03-07T00:51:35Z,0.218003,-0.036446,0.014992,2025-03-07T00:51:35Z
72,251.115599,0.873098,180,44.939963,278.525598,0.188147,3.470614,3,-93.177194,0,2025-03-07T00:51:36Z,-0.244266,-0.967912,0.010834,2025-03-07T00:51:36Z,0.200794,-0.037076,0.016563,2025-03-07T00:51:36Z
73,251.115599,0.869744,180,44.939963,278.525598,0.188147,3.609302,3,-93.177194,0,2025-03-07T00:51:37Z,-0.244576,-0.967521,0.011187,2025-03-07T00:51:37Z,0.181838,-0.026783,0.011019,2025-03-07T00:51:37Z
74,251.115599,0.871531,180,44.939963,278.525598,0.188147,3.790608,3,-93.177194,0,2025-03-07T00:51:38Z,-0.24473,-0.967483,0.011193,2025-03-07T00:51:38Z,0.161599,-0.023564,0.008535,2025-03-07T00:51:38Z
75,251.115599,0.863747,180,44.939963,278.525598,0.188147,3.95783,3.00594,-93.177194,0,2025-03-07T00:51:39Z,-0.244452,-0.967617,0.01109,2025-03-07T00:51:39Z,0.151906,-0.018864,0.003714,2025-03-07T00:51:39Z
76,251.115599,0.870414,180,44.939963,278.525598,0.188147,3.951818,3,-93.177194,0,2025-03-07T00:51:40Z,-0.24472,-0.967595,0.011093,2025-03-07T00:51:40Z,0.13283,-0.015421,0.002819,2025-03-07T00:51:40Z
77,251.115599,0.869411,180,44.939963,278.525598,0.188147,3.97272,3,-93.177194,0,2025-03-07T00:51:41Z,-0.236284,-0.969344,0.013442,2025-03-07T00:51:41Z,0.202362,-0.02841,0.01898,2025-03-07T00:51:41Z
78,251.115599,0.87039,180,44.939963,278.525598,0.188147,4.059921,3.01839,-93.177194,0,2025-03-07T00:51:42Z,-0.202538,-0.977797,0.019936,2025-03-07T00:51:42Z,0.502945,-0.105653,0.08169,2025-03-07T00:51:42Z
79,251.025925,0.874458,180,44.939974,278.435925,0.188147,4.042572,3.064792,-93.177175,0.303824,2025-03-07T00:51:43Z,-0.197841,-0.977998,0.020935,2025-03-07T00:51:43Z,0.529065,-0.100191,0.086101,2025-03-07T00:51:43Z
80,251.028771,0.650746,180,44.939974,278.438771,0.188147,3.988223,3.070915,-93.177175,0,2025-03-07T00:51:44Z,-0.063612,-1.016642,0.050543,2025-03-07T00:51:44Z,1.739668,-0.453197,0.374626,2025-03-07T00:51:44Z
81,250.978133,0.671927,34.343578,44.939995,278.388133,0.188147,4.018867,3.148139,-93.177175,1.535162,2025-03-07T00:51:45Z,-0.042235,-1.014665,0.045114,2025-03-07T00:51:45Z,1.700677,-0.376047,0.346585,2025-03-07T00:51:45Z
82,251.232788,0.667291,15.940729,44.94003,278.642788,0.188147,3.987202,3.221994,-93.177174,3.383034,2025-03-07T00:51:46Z,-0.084539,-1.003887,0.024633,2025-03-07T00:51:46Z,1.020594,-0.206714,0.147559,2025-03-07T00:51:46Z
83,251.202621,0.663773,10.6591,44.940082,278.61262,0.188147,3.887842,3.200445,-93.177174,5.028675,2025-03-07T00:51:47Z,-0.099914,-0.979312,0.007338,2025-03-07T00:51:47Z,0.831462,0.029648,0.074074,2025-03-07T00:51:47Z
84,251.103132,0.662532,8.626592,44.940142,278.513132,0.188147,3.802961,3.213354,-93.177174,6.22191,2025-03-07T00:51:48Z,-0.144641,-0.996171,0.017976,2025-03-07T00:51:48Z,0.591014,-0.148234,0.120489,2025-03-07T00:51:48Z
85,250.700329,0.662503,7.250293,44.940213,278.110329,0.927606,3.644434,3.090817,-93.1772,7.423994,2025-03-07T00:51:49Z,-0.165217,-0.992284,0.02504,2025-03-07T00:51:49Z,0.326837,-0.139413,0.108242,2025-03-07T00:51:49Z
86,250.556277,0.654056,7.2564,44.940291,277.966277,0.260742,3.333456,3,-93.177199,8.277873,2025-03-07T00:51:50Z,-0.178208,-0.977803,0.038394,2025-03-07T00:51:50Z,0.152567,0.031913,0.131797,2025-03-07T00:51:50Z
87,250.582,0.66159,7.258916,44.940375,277.992,359.46207,3.172858,3,-93.177201,9.116633,2025-03-07T00:51:51Z,-0.191991,-0.979594,0.032877,2025-03-07T00:51:51Z,0.020804,0.006949,0.072761,2025-03-07T00:51:51Z
88,250.505892,0.65973,7.258973,44.940467,277.915891,359.580607,2.769014,3,-93.177201,9.925004,2025-03-07T00:51:52Z,-0.242015,-0.970799,-8.94e-4,2025-03-07T00:51:52Z,-0.490484,0.099782,-0.189945,2025-03-07T00:51:52Z
89,250.286752,0.658337,7.257836,44.940559,277.696752,359.867554,2.647557,3,-93.177176,10.201743,2025-03-07T00:51:53Z,-0.220891,-0.977979,0.004068,2025-03-07T00:51:53Z,-0.322339,0.036317,-0.180526,2025-03-07T00:51:53Z
90,250.014188,0.66077,7.256162,44.94065,277.424188,0,2.390715,3,-93.177175,10.217259,2025-03-07T00:51:54Z,-0.21289,-0.971276,0.014061,2025-03-07T00:51:54Z,-0.213554,0.106833,-0.16665,2025-03-07T00:51:54Z
91,250.120135,0.660909,7.258874,44.940746,277.530135,0,2.331126,3,-93.177175,10.576669,2025-03-07T00:51:55Z,-0.246772,-0.970644,0.01724,2025-03-07T00:51:55Z,-0.511764,0.085749,-0.206249,2025-03-07T00:51:55Z
92,249.896,0.677038,7.258025,44.940838,277.306,359.816467,2.288725,3,-93.177174,10.438192,2025-03-07T00:51:56Z,-0.236505,-0.958718,0.027436,2025-03-07T00:51:56Z,-0.353958,0.19673,-0.118142,2025-03-07T00:51:56Z
93,249.553779,0.668859,7.255791,44.940935,276.963779,359.816467,2.161085,3,-93.177175,10.595851,2025-03-07T00:51:57Z,-0.255885,-0.960756,0.017515,2025-03-07T00:51:57Z,-0.514939,0.174406,-0.214736,2025-03-07T00:51:57Z
94,249.999824,0.684763,7.258335,44.941028,277.409824,359.816467,2.357793,3,-93.177197,10.555269,2025-03-07T00:51:58Z,-0.246155,-0.967535,0.020865,2025-03-07T00:51:58Z,-0.368974,0.09358,-0.135679,2025-03-07T00:51:58Z
95,249.477432,0.685977,7.256951,44.941124,276.887432,0.80077,2.200376,3,-93.177186,10.635664,2025-03-07T00:51:59Z,-0.245477,-0.967986,0.011663,2025-03-07T00:51:59Z,-0.397629,0.109161,-0.23874,2025-03-07T00:51:59Z
96,249.654115,0.698071,7.258884,44.94122,277.064115,0.80077,2.111119,3,-93.177184,10.724848,2025-03-07T00:52:00Z,-0.272031,-0.991548,0.03951,2025-03-07T00:52:00Z,-0.646607,-0.136614,-0.058775,2025-03-07T00:52:00Z
97,249.609099,0.698393,7.258955,44.94131,277.019099,0.80077,2.062479,3,-93.177187,10.370501,2025-03-07T00:52:01Z,-0.225708,-0.946881,0.014423,2025-03-07T00:52:01Z,-0.255291,0.316688,-0.035603,2025-03-07T00:52:01Z
98,249.728425,0.692226,7.258712,44.941404,277.138425,0.80077,2.035022,3,-93.177185,10.373749,2025-03-07T00:52:02Z,-0.24118,-0.958631,0.030523,2025-03-07T00:52:02Z,-0.264221,0.170499,0.124593,2025-03-07T00:52:02Z
99,249.732156,0.683912,7.258974,44.941498,277.142155,0.460405,2.019705,3,-93.177181,10.395772,2025-03-07T00:52:03Z,-0.258954,-0.971778,0.04918,2025-03-07T00:52:03Z,-0.350989,0.02673,0.142589,2025-03-07T00:52:03Z
100,249.507698,0.682385,7.258341,44.941593,276.917698,359.349518,2.011063,3,-93.177182,10.518877,2025-03-07T00:52:04Z,-0.27253,-0.956926,0.036574,2025-03-07T00:52:04Z,-0.523002,0.163438,0.006472,2025-03-07T00:52:04Z
