seconds_elapsed,location_altitude,location_speedAccuracy,location_bearingAccuracy,location_latitude,location_altitudeAboveMeanSeaLevel,location_bearing,location_horizontalAccuracy,location_verticalAccuracy,location_longitude,location_speed,location_local_time,accelerometerUncalibrated_z,accelerometerUncalibrated_y,accelerometerUncalibrated_x,accelerometerUncalibrated_local_time,accelerometer_z,accelerometer_y,accelerometer_x,accelerometer_local_time
0,254.214334,-0.295,7.235477,44.939032,281.624334,2.589844,136.046746,4.25,-93.177149,0.125,2025-03-07T01:08:12Z,-0.258353,-0.97237,-0.12692,2025-03-07T01:08:12Z,0.14501,-0.116255,-1.144837,2025-03-07T01:08:12Z
1,252.885559,1.99,36.272505,44.938965,280.295559,10.546875,6.975187,3,-93.177193,3.5,2025-03-07T01:08:13Z,-0.269088,-0.949655,-0.154878,2025-03-07T01:08:13Z,0.002622,0.113987,-0.979134,2025-03-07T01:08:13Z
2,253.268738,1.03,16.413373,44.938997,280.678738,42.890625,4.08911,3,-93.177124,3.5,2025-03-07T01:08:14Z,-0.267635,-0.973619,-0.118232,2025-03-07T01:08:14Z,-0.378079,-0.019957,-0.564501,2025-03-07T01:08:14Z
3,252.361572,0.99,17.894278,44.939016,279.771572,72.070312,3.653486,3,-93.177073,3.39,2025-03-07T01:08:15Z,-0.118158,-0.993689,-0.040397,2025-03-07T01:08:15Z,0.74829,-0.139815,0.024951,2025-03-07T01:08:15Z
4,250.912415,0.13,2.064237,44.939022,278.322414,90.161156,3.535534,3,-93.177021,4.04,2025-03-07T01:08:16Z,-0.113838,-0.997124,0.026903,2025-03-07T01:08:16Z,0.659313,-0.13246,0.471054,2025-03-07T01:08:16Z
5,251.352417,0.12,1.503795,44.939006,278.762417,90.161156,3.535534,3,-93.176956,5.4,2025-03-07T01:08:17Z,-0.142829,-0.991208,0.044126,2025-03-07T01:08:17Z,0.331234,-0.070163,0.562279,2025-03-07T01:08:17Z
6,251.065552,0.1,1.086898,44.939006,278.475552,90.161156,3.535534,3,-93.17689,5.99,2025-03-07T01:08:19Z,-0.15412,-0.985161,0.071862,2025-03-07T01:08:18Z,0.176451,-0.004193,0.780965,2025-03-07T01:08:18Z
7,250.824585,0.12,1.20477,44.939005,278.234585,90.161156,3.535534,3,-93.176811,5.99,2025-03-07T01:08:20Z,-0.161067,-0.985302,0.061694,2025-03-07T01:08:19Z,0.069674,0.009874,0.724388,2025-03-07T01:08:19Z
8,250.209595,0.13,1.233189,44.939005,277.619595,90.161156,3.535534,3,-93.176728,6.57,2025-03-07T01:08:21Z,-0.16138,-0.982194,0.05049,2025-03-07T01:08:20Z,0.007006,0.051704,0.624413,2025-03-07T01:08:20Z
9,250.522156,0.52,4.439579,44.939005,277.932156,90.161156,3.535534,3,-93.176632,7.63,2025-03-07T01:08:22Z,-0.188131,-0.977799,0.055149,2025-03-07T01:08:21Z,-0.216774,0.072791,0.591566,2025-03-07T01:08:21Z
10,249.619141,1.72,15.763546,44.939005,277.02914,90.161156,3.535534,3,-93.176546,7.63,2025-03-07T01:08:23Z,-0.207101,-0.977999,0.043252,2025-03-07T01:08:22Z,-0.354934,0.066945,0.379057,2025-03-07T01:08:22Z
11,249.483337,2.66,17.07091,44.939006,276.893337,90.161156,3.535534,3,-93.176411,7.63,2025-03-07T01:08:24Z,-0.205278,-0.972702,0.042367,2025-03-07T01:08:23Z,-0.368289,0.135437,0.325858,2025-03-07T01:08:23Z
12,250.151428,1.17,6.885414,44.939015,277.561428,90.161156,3.535534,3,-93.176316,7.43,2025-03-07T01:08:25Z,-0.211727,-0.974403,0.040973,2025-03-07T01:08:24Z,-0.353052,0.094004,0.306491,2025-03-07T01:08:24Z
13,250.151433,1.17,12.75953,44.939016,277.561432,90.161156,4.748652,4.029364,-93.176222,7.43,2025-03-07T01:08:26Z,-0.207086,-0.983229,0.039668,2025-03-07T01:08:25Z,-0.299674,0.01268,0.320344,2025-03-07T01:08:25Z
14,250.007818,0.72,7.258975,44.939018,277.417818,90.075386,4.748652,4.029364,-93.176115,8.11,2025-03-07T01:08:27Z,-0.19546,-0.968631,0.027493,2025-03-07T01:08:26Z,-0.195282,0.150061,0.251336,2025-03-07T01:08:26Z
15,249.942998,0.47,7.258975,44.939017,277.352998,90.075386,4.748652,4.029364,-93.176014,8.11,2025-03-07T01:08:28Z,-0.205374,-0.982937,0.013564,2025-03-07T01:08:27Z,-0.242915,-7.6e-4,0.134483,2025-03-07T01:08:27Z
16,250.114995,0.45,7.258975,44.939021,277.524995,90.075386,4.748652,4.029364,-93.175911,8.11,2025-03-07T01:08:29Z,-0.18804,-0.96934,0.01863,2025-03-07T01:08:28Z,-0.091124,0.146457,0.2076,2025-03-07T01:08:28Z
17,250.304571,0.87,8.303271,44.939004,277.714571,90.075386,4.748652,4.029364,-93.1758,8.49,2025-03-07T01:08:30Z,-0.201377,-0.977611,-7.96e-4,2025-03-07T01:08:29Z,-0.22361,0.05913,0.057768,2025-03-07T01:08:29Z
18,250.344671,0.308016,7.258975,44.939004,277.754671,90.075386,4.748652,4.029364,-93.175688,8.6,2025-03-07T01:08:31Z,-0.230792,-0.978698,-0.009495,2025-03-07T01:08:30Z,-0.428089,0.039263,-0.07017,2025-03-07T01:08:30Z
19,250.394293,0.308016,7.258975,44.939004,277.804293,90.075386,4.748652,4.029364,-93.175576,8.76,2025-03-07T01:08:32Z,-0.218791,-0.961023,0.012042,2025-03-07T01:08:31Z,-0.363144,0.23677,0.034687,2025-03-07T01:08:31Z
20,250.633185,0.33,7.258975,44.939004,278.043185,90.075386,4.748652,4.029364,-93.175463,8.76,2025-03-07T01:08:33Z,-0.235899,-0.970867,0.042381,2025-03-07T01:08:32Z,-0.406434,0.07601,0.252766,2025-03-07T01:08:32Z
21,250.513922,0.6,7.258975,44.939004,277.923922,90.075386,4.748652,4.029364,-93.175357,8.73,2025-03-07T01:08:34Z,-0.22131,-0.982101,0.044129,2025-03-07T01:08:33Z,-0.316141,-0.003891,0.270445,2025-03-07T01:08:33Z
22,250.758917,0.308016,7.258975,44.939003,278.168917,90.075386,4.748652,4.029364,-93.175249,8.6,2025-03-07T01:08:35Z,-0.201223,-0.958938,0.022038,2025-03-07T01:08:34Z,-0.138444,0.231895,0.067583,2025-03-07T01:08:34Z
23,251.036199,0.308016,7.258975,44.939003,278.446199,90,4.748652,4.029364,-93.175148,8.31,2025-03-07T01:08:35Z,-0.230509,-0.971698,0.01777,2025-03-07T01:08:35Z,-0.260694,0.062377,-0.078328,2025-03-07T01:08:35Z
24,251.345159,0.308016,7.258975,44.939003,278.755159,90,4.748652,4.029364,-93.17504,8.43,2025-03-07T01:08:36Z,-0.253653,-0.966492,0.004404,2025-03-07T01:08:36Z,-0.539443,0.14733,-0.113619,2025-03-07T01:08:36Z
25,251.666632,0.42,7.258975,44.939019,279.076631,90,4.748652,4.029364,-93.174932,8.43,2025-03-07T01:08:37Z,-0.271703,-0.943869,0.032121,2025-03-07T01:08:37Z,-0.724943,0.339316,0.131845,2025-03-07T01:08:37Z
26,251.765508,0.47,7.258975,44.939019,279.175508,90,4.748652,4.029364,-93.174837,8.36,2025-03-07T01:08:38Z,-0.279389,-0.962827,0.024661,2025-03-07T01:08:38Z,-0.589227,0.139336,0.031663,2025-03-07T01:08:38Z
27,251.956486,0.308016,7.258975,44.93902,279.366486,90,4.748652,4.029364,-93.174752,7.59,2025-03-07T01:08:39Z,-0.279339,-0.957032,0.008303,2025-03-07T01:08:39Z,-0.520912,0.160532,-0.15781800000000001,2025-03-07T01:08:39Z
28,252.065068,1.69,19.179008,44.93902,279.475067,90,4.748652,4.029364,-93.174676,7.14,2025-03-07T01:08:40Z,-0.312524,-0.954099,0.017367,2025-03-07T01:08:40Z,-0.814667,0.185386,-0.127178,2025-03-07T01:08:40Z
29,252.159061,2.31,29.38395,44.939003,279.569061,90,4.748652,4.029364,-93.174611,6.37,2025-03-07T01:08:41Z,-0.305713,-0.945537,0.015954,2025-03-07T01:08:41Z,-0.719433,0.263489,-0.091284,2025-03-07T01:08:41Z
30,252.095584,1.12,14.246764,44.939012,279.505584,90,4.748652,4.029364,-93.174549,6.37,2025-03-07T01:08:42Z,-0.371298,-0.935832,0.0082,2025-03-07T01:08:42Z,-1.25243,0.325874,-0.182689,2025-03-07T01:08:42Z
31,252.266238,0.308016,7.258975,44.939014,279.676237,90,4.748652,4.029364,-93.174499,5.21,2025-03-07T01:08:43Z,-0.375661,-0.935026,0.009751,2025-03-07T01:08:43Z,-1.25978,0.333556,-0.166388,2025-03-07T01:08:43Z
32,252.408083,0.308016,7.258975,44.939012,279.818082,90,4.748652,4.029364,-93.174459,4.32,2025-03-07T01:08:44Z,-0.275904,-0.956519,0.032608,2025-03-07T01:08:44Z,-0.215308,0.09847,0.002777,2025-03-07T01:08:44Z
33,254.528106,1.269515,51.645981,44.939016,281.938106,90,2.495496,3,-93.174423,1.991788,2025-03-07T01:08:45Z,-0.189137,-0.979807,0.049685,2025-03-07T01:08:45Z,0.664509,-0.13211,0.190919,2025-03-07T01:08:45Z
34,254.111258,1.26696,83.679313,44.939008,281.521258,90,2,3,-93.174419,1.192802,2025-03-07T01:08:46Z,-0.131584,-0.992056,0.069904,2025-03-07T01:08:46Z,1.224538,-0.251746,0.376441,2025-03-07T01:08:46Z
35,254.127643,1.269063,65.661272,44.939008,281.537643,90,2.072943,3,-93.17439,1.555225,2025-03-07T01:08:47Z,-0.121823,-0.995618,0.072695,2025-03-07T01:08:47Z,1.303014,-0.290007,0.390896,2025-03-07T01:08:47Z
36,254.251994,1.272834,40.143674,44.939011,281.661994,90,2.410957,3,-93.174349,2.567047,2025-03-07T01:08:48Z,-0.134877,-0.99158,0.062218,2025-03-07T01:08:48Z,1.135347,-0.234355,0.293175,2025-03-07T01:08:48Z
37,254.498138,0.672626,12.252444,44.939012,281.908138,90,2.678217,3,-93.174296,4.44365,2025-03-07T01:08:49Z,-0.154665,-0.996646,0.033114,2025-03-07T01:08:49Z,0.922775,-0.275525,0.038173,2025-03-07T01:08:49Z
38,254.793135,0.644573,10.017407,44.939016,282.203135,90,2.56211,3,-93.174226,5.202498,2025-03-07T01:08:50Z,-0.189593,-0.962818,0.024857,2025-03-07T01:08:50Z,0.603595,0.043676,-0.066656000000000007,2025-03-07T01:08:50Z
39,254.818816,0.637626,8.883809,44.93902,282.228816,89.69931,2.468425,3,-93.174149,5.815414,2025-03-07T01:08:51Z,-0.206038,-0.975177,0.041454,2025-03-07T01:08:51Z,0.47939,-0.092976,0.01552,2025-03-07T01:08:51Z
40,254.700835,0.654091,8.602546,44.939016,282.110835,89.69931,2.478908,3,-93.174069,6.157613,2025-03-07T01:08:52Z,-0.176923,-0.989512,0.045934,2025-03-07T01:08:52Z,0.76064,-0.226051,0.051185,2025-03-07T01:08:52Z
41,254.71522,0.656843,7.597983,44.939021,282.12522,89.69931,2.407452,3,-93.173976,7.001577,2025-03-07T01:08:53Z,-0.177161,-0.979535,0.053858,2025-03-07T01:08:53Z,0.612579,-0.095643,0.119654,2025-03-07T01:08:53Z
42,254.288974,0.656056,7.242751,44.939009,281.698974,89.69931,2.335373,3,-93.173883,7.373515,2025-03-07T01:08:54Z,-0.223505,-0.970341,0.044081,2025-03-07T01:08:54Z,0.135528,-0.003138,0.076438999999999993,2025-03-07T01:08:54Z
43,253.98225,0.77897400000000006,8.335527,44.939001,281.39225,89.69931,2.659229,3,-93.173787,7.454858,2025-03-07T01:08:55Z,-0.218157,-0.967617,0.013688,2025-03-07T01:08:55Z,0.087274,0.064863,-0.047649,2025-03-07T01:08:55Z
44,254.487904,0.674197,7.258693,44.939015,281.897903,89.69931,2.477515,3,-93.173671,8.280847,2025-03-07T01:08:56Z,-0.215973,-0.975071,0.030326,2025-03-07T01:08:56Z,0.11642,-0.019508,0.121255,2025-03-07T01:08:56Z
45,254.244357,0.663506,7.25238,44.939012,281.654357,89.733643,2.331863,3,-93.173559,8.612332,2025-03-07T01:08:57Z,-0.2127,-0.972838,0.031479,2025-03-07T01:08:57Z,-0.006129,0.036798,0.139257,2025-03-07T01:08:57Z
46,254.408364,0.658673,7.258949,44.939019,281.818363,89.733643,2.218599,3,-93.173448,8.856179,2025-03-07T01:08:58Z,-0.239342,-0.963562,-9e-4,2025-03-07T01:08:58Z,-0.251714,0.132155,-0.094823,2025-03-07T01:08:58Z
47,254.635749,0.641271,7.258264,44.939015,282.045749,89.733643,2.141779,3,-93.173336,8.804258,2025-03-07T01:08:59Z,-0.23503,-0.970144,-0.009018,2025-03-07T01:08:59Z,-0.199179,0.074828,-0.179604,2025-03-07T01:08:59Z
48,254.659474,0.64922,7.258735,44.939017,282.069474,89.733643,2.092011,3,-93.173225,8.759108,2025-03-07T01:09:00Z,-0.260424,-0.978157,4.2e-4,2025-03-07T01:09:00Z,-0.513157,-7.98e-4,-0.119772,2025-03-07T01:09:00Z
49,254.702487,0.655838,7.258376,44.939011,282.112487,90.109154,2.060459,3,-93.173122,8.356662,2025-03-07T01:09:01Z,-0.22399,-0.948749,-0.004176,2025-03-07T01:09:01Z,-0.184629,0.29724,0.039835,2025-03-07T01:09:01Z
50,254.884753,0.657215,7.257168,44.939016,282.294752,90.109154,2.04014,3,-93.173014,8.435335,2025-03-07T01:09:02Z,-0.233927,-0.991055,0.003744,2025-03-07T01:09:02Z,-0.200241,-0.129159,0.021137,2025-03-07T01:09:02Z
51,254.86473,0.644066,7.258705,44.939017,282.27473,90.109154,2.026771,3,-93.172908,8.472629,2025-03-07T01:09:03Z,-0.223145,-0.971059,-0.035338,2025-03-07T01:09:03Z,-0.206885,0.071399,-0.27179,2025-03-07T01:09:03Z
52,255.026315,0.651992,7.258684,44.93901,282.436315,90.109154,2.017719,3,-93.172804,8.214299,2025-03-07T01:09:04Z,-0.218432,-0.962667,-0.007338,2025-03-07T01:09:04Z,-0.141898,0.158814,-0.008776,2025-03-07T01:09:04Z
53,255.105756,0.652626,7.258973,44.939016,282.515756,90.109154,2.011805,3,-93.172699,8.148558,2025-03-07T01:09:05Z,-0.225708,-0.980945,-0.017919,2025-03-07T01:09:05Z,-0.180373,-0.018156,-0.072866,2025-03-07T01:09:05Z
54,255.222884,0.664029,7.258957,44.939017,282.632884,90.109154,2.007917,3,-93.172595,8.171859,2025-03-07T01:09:06Z,-0.21526699999999999,-0.969175,-0.00952,2025-03-07T01:09:06Z,-0.115289,0.092487,0.106749,2025-03-07T01:09:06Z
55,255.377098,0.658691,7.258218,44.939017,282.787098,90.109154,2.00537,3,-93.172495,8.069228,2025-03-07T01:09:07Z,-0.208812,-0.974035,-0.019029,2025-03-07T01:09:07Z,0.008914,0.027004,-0.024105,2025-03-07T01:09:07Z
56,254.98271,0.660442,7.252257,44.939019,282.39271,90.109154,2.003645,3,-93.172395,7.914241,2025-03-07T01:09:08Z,-0.220558,-0.97025,-0.022671,2025-03-07T01:09:08Z,-0.065462,0.035621,-0.072115,2025-03-07T01:09:08Z
57,255.517545,0.655814,7.258867,44.939019,282.927544,89.691193,2.002425,3,-93.172286,8.18208,2025-03-07T01:09:09Z,-0.21661,-0.967457,-0.031137,2025-03-07T01:09:09Z,-0.110745,0.13034,-0.045722,2025-03-07T01:09:09Z
58,254.827997,0.786641,8.117557,44.939021,282.237997,89.691193,2.431664,3,-93.172191,7.776431,2025-03-07T01:09:10Z,-0.220939,-0.978821,-0.050256,2025-03-07T01:09:10Z,-0.124751,-6.83e-4,-0.144709,2025-03-07T01:09:10Z
59,255.518928,0.681545,7.258697,44.939016,282.928928,89.691193,2.2897,3,-93.172085,7.9575379999999996,2025-03-07T01:09:11Z,-0.221512,-0.968313,-0.030342,2025-03-07T01:09:11Z,-0.10574,0.075586,-0.061985,2025-03-07T01:09:11Z
60,255.249096,0.686824,7.251123,44.93902,282.659096,89.691193,2.456453,3,-93.171986,7.767756,2025-03-07T01:09:12Z,-0.216744,-0.950226,-0.002752,2025-03-07T01:09:12Z,-0.075321,0.274933,0.099736,2025-03-07T01:09:12Z
61,255.607435,0.681888,7.258061,44.939022,283.017434,88.184402,2.487061,3,-93.171885,7.805833,2025-03-07T01:09:13Z,-0.231823,-0.990151,-0.038424,2025-03-07T01:09:13Z,-0.144183,-0.145887,-0.074691,2025-03-07T01:09:13Z
62,256.511844,0.66748,7.246996,44.939019,283.921844,87.450706,2.384967,3,-93.17178,7.986273,2025-03-07T01:09:14Z,-0.253547,-0.964106,-0.036596,2025-03-07T01:09:14Z,-0.412486,0.120787,-0.051029,2025-03-07T01:09:14Z
63,256.791346,0.670746,7.251554,44.939026,284.201346,87.450706,2.283012,3,-93.171682,7.8199,2025-03-07T01:09:15Z,-0.25251,-0.959354,-0.038842,2025-03-07T01:09:15Z,-0.439332,0.178151,-0.171973,2025-03-07T01:09:15Z
64,256.605858,0.672932,7.742996,44.939025,284.015858,87.450706,2.482828,3,-93.171597,7.039784,2025-03-07T01:09:16Z,-0.256305,-0.960329,-0.006147,2025-03-07T01:09:16Z,-0.314406,0.149303,-0.009988,2025-03-07T01:09:16Z
65,256.806875,0.676107,8.272778,44.939027,284.216875,87.450706,2.343327,3,-93.171513,6.624289,2025-03-07T01:09:17Z,-0.220431,-0.962716,0.00573,2025-03-07T01:09:17Z,0.120405,0.093721,0.158028,2025-03-07T01:09:17Z
66,256.734397,0.683306,8.395762,44.939028,284.144397,87.450706,2.585062,3,-93.171429,6.578555,2025-03-07T01:09:18Z,-0.221976,-0.973901,-0.022883,2025-03-07T01:09:18Z,0.172889,-0.021973,-0.077881,2025-03-07T01:09:18Z
67,256.587965,0.692818,8.650311,44.93903,283.997965,88.985916,2.710259,3,-93.171347,6.476546,2025-03-07T01:09:19Z,-0.236161,-0.971,-0.017622,2025-03-07T01:09:19Z,-0.058314,0.002375,-0.152256,2025-03-07T01:09:19Z
68,256.708825,0.67969,8.30491,44.939038,284.118825,88.985916,2.53765,3,-93.171257,6.625089,2025-03-07T01:09:20Z,-0.212926,-0.976212,0.007233,2025-03-07T01:09:20Z,0.112314,-0.012181,0.058061,2025-03-07T01:09:20Z
69,257.061068,0.689005,8.338089,44.939023,284.471068,90.505722,2.432211,3,-93.17117,6.69894,2025-03-07T01:09:21Z,-0.193435,-0.987541,-0.001913,2025-03-07T01:09:21Z,0.304007,-0.122569,-0.036968,2025-03-07T01:09:21Z
70,257.007856,0.675754,8.040164,44.939022,284.417856,90.505722,2.330807,3,-93.171083,6.799363,2025-03-07T01:09:22Z,-0.20425,-0.969798,-0.024362,2025-03-07T01:09:22Z,0.214385,0.03797,-0.215065,2025-03-07T01:09:22Z
71,258.100786,0.670884,7.533752,44.939022,285.510786,90.505722,2.603137,3,-93.170985,7.219941,2025-03-07T01:09:23Z,-0.202537,-0.975586,0.009261,2025-03-07T01:09:23Z,0.255949,-0.020041,0.049786,2025-03-07T01:09:23Z
72,257.968291,0.656946,7.257335,44.939034,285.378291,90.505722,2.568557,3,-93.170893,7.346264,2025-03-07T01:09:24Z,-0.205571,-0.959741,0.013475000000000001,2025-03-07T01:09:24Z,0.217896,0.130527,0.131347,2025-03-07T01:09:24Z
73,258.842844,0.663432,7.240952,44.939037,286.252844,90,2.598485,3,-93.170796,7.477145,2025-03-07T01:09:25Z,-0.245522,-0.973586,0.02475,2025-03-07T01:09:25Z,-0.156825,8.53e-4,0.194416,2025-03-07T01:09:25Z
74,257.667602,0.717227,8.513439,44.939027,285.077602,90,2.498475,3,-93.170719,6.727353,2025-03-07T01:09:26Z,-0.229233,-0.966896,-0.002555,2025-03-07T01:09:26Z,-0.002237,0.060966,-0.00838,2025-03-07T01:09:26Z
75,258.533063,0.68162,7.43919,44.939021,285.943063,90,2.372518,3,-93.170611,7.431502,2025-03-07T01:09:27Z,-0.243697,-0.98235,-0.021253,2025-03-07T01:09:27Z,-0.159535,-0.088571,-0.158388,2025-03-07T01:09:27Z
76,258.456547,0.677483,7.762166,44.939029,285.866546,90,2.279132,3,-93.170525,7.073159,2025-03-07T01:09:28Z,-0.232545,-0.967319,-0.031823,2025-03-07T01:09:28Z,-0.084483,0.077464,-0.287713,2025-03-07T01:09:28Z
77,258.600023,0.659552,7.573232,44.939033,286.010023,90,2.208515,3,-93.170433,7.060553,2025-03-07T01:09:29Z,-0.258793,-0.944106,-0.010518,2025-03-07T01:09:29Z,-0.264794,0.278614,-0.110511,2025-03-07T01:09:29Z
78,258.628917,0.669297,7.888285,44.939028,286.038917,90,2.157395,3,-93.170346,6.876668,2025-03-07T01:09:30Z,-0.27387,-0.961864,0.045905,2025-03-07T01:09:30Z,-0.436415,0.108744,0.246307,2025-03-07T01:09:30Z
79,259.03893,0.659612,7.926366,44.939032,286.44893,90,2.119597,3,-93.170261,6.729765,2025-03-07T01:09:31Z,-0.258592,-0.961032,-0.027576,2025-03-07T01:09:31Z,-0.307616,0.126603,-0.267918,2025-03-07T01:09:31Z
80,258.897184,0.657007,8.813515,44.939021,286.307184,90,2.093667,3,-93.170189,6.040081,2025-03-07T01:09:32Z,-0.260945,-0.961413,-0.033329,2025-03-07T01:09:32Z,-0.320068,0.119382,-0.129108,2025-03-07T01:09:32Z
81,258.891789,0.648413,9.378402,44.939021,286.301789,90,2.078056,3,-93.17012,5.601981,2025-03-07T01:09:33Z,-0.256914,-0.9681,-0.033164,2025-03-07T01:09:33Z,-0.19723,0.031194,-0.262292,2025-03-07T01:09:33Z
82,259.129523,0.652733,10.137371,44.93903,286.539523,90,2.066905,3,-93.170057,5.203659,2025-03-07T01:09:34Z,-0.221926,-0.971491,-0.00554,2025-03-07T01:09:34Z,0.123746,0.020527,-0.013075,2025-03-07T01:09:34Z
83,259.260345,0.641066,10.167791,44.93903,286.670344,90,2.058542,3,-93.169993,5.097057,2025-03-07T01:09:35Z,-0.242037,-0.964739,-0.00665,2025-03-07T01:09:35Z,-0.083851,0.062845,-0.089853,2025-03-07T01:09:35Z
84,259.172617,0.659182,10.803662,44.939029,286.582617,90,2.05919,3,-93.169931,4.943368,2025-03-07T01:09:36Z,-0.280564,-0.95848,-0.01084,2025-03-07T01:09:36Z,-0.353261,0.110536,-0.151122,2025-03-07T01:09:36Z
85,259.14422,0.671413,11.892366,44.939029,286.55422,90,2.067045,3,-93.169873,4.568764,2025-03-07T01:09:37Z,-0.278924,-0.961809,-0.01151,2025-03-07T01:09:37Z,-0.365783,0.084238,-0.226944,2025-03-07T01:09:37Z
86,258.87795,0.666286,13.624513,44.939023,286.28795,90,2.06095,3,-93.169828,3.907767,2025-03-07T01:09:38Z,-0.276929,-0.9418,5.12e-4,2025-03-07T01:09:38Z,-0.339866,0.277574,-0.036353,2025-03-07T01:09:38Z
87,NA,NA,NA,NA,NA,NA,NA,NA,NA,NA,NA,-0.320842,-0.985123,-0.013357,2025-03-07T01:09:39Z,-0.600385,-0.186946,-0.070133,2025-03-07T01:09:39Z
