seconds_elapsed,location_altitude,location_speedAccuracy,location_bearingAccuracy,location_latitude,location_altitudeAboveMeanSeaLevel,location_bearing,location_horizontalAccuracy,location_verticalAccuracy,location_longitude,location_speed,location_local_time,accelerometerUncalibrated_z,accelerometerUncalibrated_y,accelerometerUncalibrated_x,accelerometerUncalibrated_local_time,accelerometer_z,accelerometer_y,accelerometer_x,accelerometer_local_time
0,259.422577,0.265,3.037214,44.934299,286.832577,310.605469,3.604351,4.5,-93.166804,5.7,2025-03-07T00:38:19Z,-0.142454,-0.982859,-0.210979,2025-03-07T00:38:19Z,0.837751,-0.102575,-1.583624,2025-03-07T00:38:19Z
1,258.886963,0.85,12.048676,44.934392,286.296963,343.828125,3.651643,3,-93.166957,5.09,2025-03-07T00:38:20Z,-0.155363,-0.993227,-0.098466,2025-03-07T00:38:20Z,0.695577,-0.192373,-0.742349,2025-03-07T00:38:20Z
2,259.079834,0.99,10.995441,44.934448,286.489834,0.150174,3.535534,3,-93.166963,5.09,2025-03-07T00:38:21Z,-0.159569,-0.990051,-0.030299,2025-03-07T00:38:21Z,0.353127,-0.092099,-0.336785,2025-03-07T00:38:21Z
3,258.480225,0.98,8.141395,44.934506,285.890224,0.150174,3.535534,3,-93.166962,5.87,2025-03-07T00:38:22Z,-0.189285,-0.98503,0.036779,2025-03-07T00:38:22Z,0.058683,-0.041769,0.326346,2025-03-07T00:38:22Z
4,258.91095,0.13,1.173505,44.934574,286.32095,0.150174,3.535534,3,-93.166974,7.63,2025-03-07T00:38:23Z,-0.128357,-0.991985,0.043797,2025-03-07T00:38:23Z,0.592222,-0.099934,0.449267,2025-03-07T00:38:23Z
5,259.552307,0.36,2.702649,44.934649,286.962307,359.502319,3.535534,3,-93.166978,8.74,2025-03-07T00:38:24Z,-0.131411,-0.999357,0.031379,2025-03-07T00:38:24Z,0.484637,-0.150289,0.430529,2025-03-07T00:38:24Z
6,259.82251,1.69,12.478448,44.934731,287.23251,359.502319,3.535534,3,-93.166983,8.74,2025-03-07T00:38:25Z,-0.139186,-0.992045,0.01471,2025-03-07T00:38:25Z,0.357762,-0.070886,0.342235,2025-03-07T00:38:25Z
7,260.43103,0.72,4.20881,44.93483,287.84103,0,3.535534,3,-93.16698,8.76,2025-03-07T00:38:26Z,-0.181352,-0.984505,0.002351,2025-03-07T00:38:26Z,-0.094367,-0.004015,0.23842,2025-03-07T00:38:26Z
8,260.530273,0.09,0.576222,44.934927,287.940273,0,3.535534,3,-93.166978,11.03,2025-03-07T00:38:27Z,-0.174166,-0.989415,0.005239,2025-03-07T00:38:27Z,-0.050901,-0.03888,0.251094,2025-03-07T00:38:27Z
9,260.760498,0.06,0.375776,44.935029,288.170498,0,3.535534,3,-93.166978,11.48,2025-03-07T00:38:28Z,-0.185656,-0.983217,0.007681,2025-03-07T00:38:28Z,-0.166622,0.023196,0.205306,2025-03-07T00:38:28Z
10,260.74176,0.07,0.419214,44.935136,288.15176,0,3.535534,3,-93.166975,11.48,2025-03-07T00:38:29Z,-0.208029,-0.97029,0.010999,2025-03-07T00:38:29Z,-0.39878,0.149921,0.24539,2025-03-07T00:38:29Z
11,260.730408,0.06,0.355044,44.935245,288.140408,359.259125,3.535534,3,-93.166976,11.94,2025-03-07T00:38:30Z,-0.203624,-0.96027,0.001442,2025-03-07T00:38:30Z,-0.298253,0.247871,0.129963,2025-03-07T00:38:30Z
12,260.979492,0.3,1.599004,44.935351,288.389492,0,3.535534,3,-93.166972,12.25,2025-03-07T00:38:31Z,-0.235936,-0.998957,0.026568,2025-03-07T00:38:31Z,-0.557305,-0.154593,0.161696,2025-03-07T00:38:31Z
13,260.979504,0.308016,7.258975,44.935462,288.389504,0,4.748652,4.029364,-93.166972,12.25,2025-03-07T00:38:32Z,-0.214392,-0.967639,0.007062,2025-03-07T00:38:32Z,-0.405915,0.166927,0.073058,2025-03-07T00:38:32Z
14,261.15614,0.308016,7.258975,44.935571,288.56614,0,4.748652,4.029364,-93.166973,12.25,2025-03-07T00:38:33Z,-0.219463,-0.97149,0.004182,2025-03-07T00:38:33Z,-0.39823,0.1207,0.071488,2025-03-07T00:38:33Z
15,261.327526,0.308016,7.258975,44.935685,288.737526,0.230505,4.748652,4.029364,-93.166971,12.25,2025-03-07T00:38:34Z,-0.232773,-0.972223,0.005741,2025-03-07T00:38:34Z,-0.482936,0.107444,0.093467,2025-03-07T00:38:34Z
16,261.344373,0.308018,7.258975,44.935802,288.754373,0.230505,4.748652,4.029364,-93.166971,12.54,2025-03-07T00:38:35Z,-0.238136,-0.971634,-0.00338,2025-03-07T00:38:35Z,-0.496423,0.103928,0.023211,2025-03-07T00:38:35Z
17,261.276502,0.42,7.258975,44.935914,288.686502,0.230505,4.748652,4.029364,-93.166977,12.54,2025-03-07T00:38:36Z,-0.237186,-0.970015,0.010724,2025-03-07T00:38:36Z,-0.405922,0.103426,0.04514,2025-03-07T00:38:36Z
18,261.125134,0.308016,7.258975,44.936023,288.535134,0.230505,4.748652,4.029364,-93.166975,12.46,2025-03-07T00:38:37Z,-0.233166,-0.968789,0.005159,2025-03-07T00:38:37Z,-0.39765,0.118269,-0.030907,2025-03-07T00:38:37Z
19,261.080505,0.1,0.564798,44.936134,288.490505,0.230505,3.535534,3,-93.166981,12.42,2025-03-07T00:38:38Z,-0.232571,-0.961914,0.0094,2025-03-07T00:38:38Z,-0.322007,0.17438,0.051115,2025-03-07T00:38:38Z
20,261.080518,0.308016,7.258975,44.936245,288.490517,359.878601,4.748652,4.029364,-93.166981,12.42,2025-03-07T00:38:39Z,-0.238586,-0.979997,0.018531,2025-03-07T00:38:39Z,-0.322645,-0.005808,0.082644,2025-03-07T00:38:39Z
21,261.096191,0.06,0.340066,44.936357,288.506191,359.878601,3.535534,3,-93.166988,12.42,2025-03-07T00:38:40Z,-0.235547,-0.966818,5.58e-4,2025-03-07T00:38:40Z,-0.314019,0.117532,-0.035755,2025-03-07T00:38:40Z
22,261.096204,0.308017,7.258975,44.936468,288.506203,359.878601,4.748652,4.029364,-93.16699,12.42,2025-03-07T00:38:41Z,-0.234922,-0.971415,-0.011832,2025-03-07T00:38:41Z,-0.275317,0.065507,-0.132482,2025-03-07T00:38:41Z
23,261.101086,0.308017,7.258975,44.936581,288.511086,359.878601,4.748652,4.029364,-93.166988,12.42,2025-03-07T00:38:42Z,-0.226495,-0.972935,-0.005452,2025-03-07T00:38:42Z,-0.199084,0.051928,-0.082744,2025-03-07T00:38:42Z
24,261.112683,0.308017,7.258975,44.936692,288.522683,0.133635,4.748652,4.029364,-93.166988,12.36,2025-03-07T00:38:43Z,-0.236259,-0.966515,0.0059,2025-03-07T00:38:43Z,-0.240117,0.111542,0.022264,2025-03-07T00:38:43Z
25,261.062573,0.308016,7.258975,44.936799,288.472573,0.133635,4.748652,4.029364,-93.166987,12.35,2025-03-07T00:38:44Z,-0.237952,-0.973141,0.009072,2025-03-07T00:38:44Z,-0.272866,0.040539,0.069728,2025-03-07T00:38:44Z
26,261.283093,0.308016,7.258975,44.936913,288.693093,0.133635,4.748652,4.029364,-93.166988,12.45,2025-03-07T00:38:45Z,-0.233808,-0.972526,0.007664,2025-03-07T00:38:45Z,-0.241452,0.056283,0.047575,2025-03-07T00:38:45Z
27,261.403088,0.308017,7.258975,44.937027,288.813088,0.679126,4.748652,4.029364,-93.166988,12.45,2025-03-07T00:38:46Z,-0.227895,-0.968764,0.006543,2025-03-07T00:38:46Z,-0.135279,0.083722,0.020922,2025-03-07T00:38:46Z
28,261.719177,0.08,0.453662,44.937136,289.129177,359.884857,3.535534,3,-93.166986,12.25,2025-03-07T00:38:47Z,-0.235656,-0.975636,-0.003703,2025-03-07T00:38:47Z,-0.136793,-0.012528,-0.060463,2025-03-07T00:38:47Z
29,261.866455,0.36,1.93208,44.937246,289.276455,359.884857,3.535534,3,-93.166986,12.26,2025-03-07T00:38:48Z,-0.225947,-0.96884,-0.005547,2025-03-07T00:38:48Z,-0.114281,0.079591,-0.047814,2025-03-07T00:38:48Z
30,261.866467,0.36,7.258975,44.937356,289.276467,359.884857,4.748652,4.029364,-93.166985,12.26,2025-03-07T00:38:49Z,-0.227623,-0.972302,-0.00188,2025-03-07T00:38:49Z,-0.108325,0.043213,-0.011241,2025-03-07T00:38:49Z
31,262.367993,0.55,7.258975,44.937464,289.777993,359.884857,4.748652,4.029364,-93.166987,12.26,2025-03-07T00:38:50Z,-0.223358,-0.97408,0.008546,2025-03-07T00:38:50Z,-0.061577,0.020482,0.007897,2025-03-07T00:38:50Z
32,262.015026,1.95,12.887889,44.937578,289.425026,0.56581,4.748652,4.029364,-93.166972,12.26,2025-03-07T00:38:51Z,-0.227797,-0.96704,0.003009,2025-03-07T00:38:51Z,-0.092913,0.084222,-0.021183,2025-03-07T00:38:51Z
33,264.647945,1.276465,8.354291,44.937672,292.057945,0.56581,2,3,-93.166969,12.378183,2025-03-07T00:38:52Z,-0.227277,-0.976967,0.009302,2025-03-07T00:38:52Z,-0.086361,-0.006297,0.017384,2025-03-07T00:38:52Z
34,264.892941,1.271984,8.35608,44.937784,292.302941,0,2,3,-93.166968,12.331103,2025-03-07T00:38:53Z,-0.243159,-0.964007,0.030406,2025-03-07T00:38:53Z,-0.187541,0.097223,0.174673,2025-03-07T00:38:53Z
35,265.024811,1.168061,7.647949,44.937897,292.434811,0,2.04572,3,-93.166966,12.373014,2025-03-07T00:38:54Z,-0.243778,-0.96176,0.002254,2025-03-07T00:38:54Z,-0.201969,0.12824,0.027654,2025-03-07T00:38:54Z
36,265.02377,1.167731,7.70122,44.938009,292.43377,0,2.023402,3,-93.166974,12.285544,2025-03-07T00:38:55Z,-0.239979,-0.939938,-0.015197,2025-03-07T00:38:55Z,-8.53e-4,0.302727,-0.157215,2025-03-07T00:38:55Z
37,264.95376,1.275601,8.52715,44.938122,292.36376,0,2.239742,3,-93.166975,12.121297,2025-03-07T00:38:56Z,-0.26178,-0.964603,-0.006757,2025-03-07T00:38:56Z,-0.122771,0.037319,-0.074699,2025-03-07T00:38:56Z
38,264.901059,1.271667,8.46322,44.938237,292.311058,0.435847,2.342405,3,-93.166972,12.174761,2025-03-07T00:38:57Z,-0.259968,-0.966507,-6.79e-4,2025-03-07T00:38:57Z,-0.081474,0.015784,-0.085556,2025-03-07T00:38:57Z
39,264.5846,0.695929,7.258484,44.938339,291.9946,0.435847,2.542873,3,-93.166972,12.061819,2025-03-07T00:38:58Z,-0.253048,-0.967024,0.011896,2025-03-07T00:38:58Z,-0.017464,0.002895,-0.038022,2025-03-07T00:38:58Z
40,264.467971,0.690967,7.25832,44.938448,291.877971,0.435847,2.393869,3,-93.166969,12.074838,2025-03-07T00:38:59Z,-0.256276,-0.96398,0.012053,2025-03-07T00:38:59Z,-0.056406,0.037694,-0.014439,2025-03-07T00:38:59Z
41,264.243251,0.678181,7.258202,44.938557,291.653251,0.435847,2.261725,3,-93.166969,12.137684,2025-03-07T00:39:00Z,-0.273982,-0.960797,0.015742,2025-03-07T00:39:00Z,-0.192235,0.064432,0.015272,2025-03-07T00:39:00Z
42,263.36657,0.743302,7.251061,44.93867,290.77657,0.435847,2.98459,3,-93.166964,12.365885,2025-03-07T00:39:01Z,-0.280727,-0.961712,0.008288,2025-03-07T00:39:01Z,-0.288755,0.058408,0.022633,2025-03-07T00:39:01Z
43,263.710633,0.768257,7.257928,44.938774,291.120632,0.435847,2.621267,3,-93.166972,12.008159,2025-03-07T00:39:02Z,-0.297433,-0.95097,-0.017938,2025-03-07T00:39:02Z,-0.434283,0.162059,-0.204558,2025-03-07T00:39:02Z
44,263.74177100000003,0.702166,7.258742,44.938872,291.151771,0.435847,2.5813990000000002,3,-93.166975,11.399636,2025-03-07T00:39:03Z,-0.33231,-0.951968,-0.01438,2025-03-07T00:39:03Z,-0.755933,0.143442,-0.187164,2025-03-07T00:39:03Z
45,263.680588,0.696665,7.258789,44.938964,291.090588,0.283038,2.564058,3,-93.16697,10.659909,2025-03-07T00:39:04Z,-0.325912,-0.950205,-0.021115,2025-03-07T00:39:04Z,-0.734005,0.173139,-0.152668,2025-03-07T00:39:04Z
46,263.628023,0.695474,7.258631,44.939046,291.038023,0.283038,2.61791,3,-93.166968,9.667776,2025-03-07T00:39:05Z,-0.310765,-0.946995,-0.029275,2025-03-07T00:39:05Z,-0.500793,0.181391,-0.126119,2025-03-07T00:39:05Z
47,263.32528,0.7028,7.253935,44.93912,290.73528,0.225612,2.368359,3,-93.166968,8.595094,2025-03-07T00:39:06Z,-0.304388,-0.943147,-0.042999,2025-03-07T00:39:06Z,-0.385281,0.203622,-0.143649,2025-03-07T00:39:06Z
48,263.256666,0.686863,7.252468,44.939195,290.666666,0.225612,2.936422,3,-93.16697,8.158946,2025-03-07T00:39:07Z,-0.32682,-0.948013,-0.046403,2025-03-07T00:39:07Z,-0.546725,0.13993,-0.180323,2025-03-07T00:39:07Z
49,263.180261,0.688009,7.253614,44.939267,290.59026,0.225593,2.94011,3,-93.166967,7.837759,2025-03-07T00:39:08Z,-0.335188,-0.943151,-0.042846,2025-03-07T00:39:08Z,-0.595871,0.178728,-0.163052,2025-03-07T00:39:08Z
50,263.117052,0.687207,7.779446,44.939328,290.527052,0.225593,2.72903,3,-93.166965,7.142122,2025-03-07T00:39:09Z,-0.337333,-0.945787,-0.035845,2025-03-07T00:39:09Z,-0.565051,0.136725,-0.109065,2025-03-07T00:39:09Z
51,263.141572,0.675498,8.748845,44.939379,290.551571,359.584442,2.571341,3,-93.166964,6.25187,2025-03-07T00:39:10Z,-0.34368,-0.94476,-0.035969,2025-03-07T00:39:10Z,-0.569874,0.128589,-0.121529,2025-03-07T00:39:10Z
52,263.108952,0.704411,10.978179,44.93942,290.518952,359.584442,2.654515,3,-93.166964,5.195536,2025-03-07T00:39:11Z,-0.353423,-0.938586,-0.037716,2025-03-07T00:39:11Z,-0.587757,0.167653,-0.134845,2025-03-07T00:39:11Z
53,262.894607,0.70141,13.401621,44.939454,290.304607,359.584442,2.559645,3,-93.166963,4.186821,2025-03-07T00:39:12Z,-0.369564,-0.936448,-0.039778,2025-03-07T00:39:12Z,-0.625662,0.150481,-0.143538,2025-03-07T00:39:12Z
54,263.015321,0.69241,17.899587,44.939478,290.425321,359.584442,2.494671,3,-93.166963,3.12168,2025-03-07T00:39:13Z,-0.361507,-0.936693,-0.037053,2025-03-07T00:39:13Z,-0.530581,0.144738,-0.126702,2025-03-07T00:39:13Z
55,263.207881,0.680456,27.441471,44.939492,290.617881,359.584442,2.581148,3,-93.166961,2.0075,2025-03-07T00:39:14Z,-0.325604,-0.949562,-0.028474,2025-03-07T00:39:14Z,-0.132438,-0.001008,-0.030929,2025-03-07T00:39:14Z
56,263.148754,0.821435,58.473536,44.9395,290.558754,0,2.580439,3,-93.166961,0.845254,2025-03-07T00:39:15Z,-0.310132,-0.953678,-0.027943,2025-03-07T00:39:15Z,0.040454,-0.044784,-0.030239,2025-03-07T00:39:15Z
57,263.144926,0.958662,69.004904,44.939507,290.554926,0,2.538324,3,-93.166964,0.556428,2025-03-07T00:39:16Z,-0.293961,-0.952901,-0.020759,2025-03-07T00:39:16Z,0.1588,-0.021453,0.020941,2025-03-07T00:39:16Z
58,263.389466,0.900807,180,44.93951,290.799466,0,2.67154,3,-93.166962,0.275294,2025-03-07T00:39:17Z,-0.278868,-0.959503,-0.019474,2025-03-07T00:39:17Z,0.287492,-0.084815,0.041836,2025-03-07T00:39:17Z
59,263.593728,0.935697,180,44.939512,291.003728,0,2.685921,3,-93.166962,0.072299,2025-03-07T00:39:18Z,-0.252677,-0.965686,-0.014075,2025-03-07T00:39:18Z,0.527146,-0.138952,0.091584,2025-03-07T00:39:18Z
60,263.524771,0.92682,180,44.939515,290.934771,0,2.70848,3,-93.166965,0.113923,2025-03-07T00:39:19Z,-0.230971,-0.971357,-0.009629,2025-03-07T00:39:19Z,0.697365,-0.180189,0.127155,2025-03-07T00:39:19Z
61,263.182832,0.958355,95.923569,44.939523,290.592832,0,2.657874,3,-93.166973,0.595486,2025-03-07T00:39:20Z,-0.232782,-0.970929,-0.009243,2025-03-07T00:39:20Z,0.629461,-0.158255,0.116121,2025-03-07T00:39:20Z
62,263.527132,0.715885,92.192469,44.939527,290.937131,0,2.614016,3,-93.166969,0.577795,2025-03-07T00:39:21Z,-0.241914,-0.968525,-0.011034,2025-03-07T00:39:21Z,0.507643,-0.126312,0.088792,2025-03-07T00:39:21Z
63,263.686437,0.705186,69.958095,44.939537,291.096436,0,2.57564,3,-93.166968,0.787495,2025-03-07T00:39:22Z,-0.253329,-0.965611,-0.01219,2025-03-07T00:39:22Z,0.367277,-0.087801,0.062084,2025-03-07T00:39:22Z
64,263.82303,0.700796,71.037961,44.939545,291.233029,0,2.565269,3,-93.166969,0.78989,2025-03-07T00:39:23Z,-0.276443,-0.96019,-0.016746,2025-03-07T00:39:23Z,0.131911,-0.032911,0.015253,2025-03-07T00:39:23Z
65,263.856392,0.681081,111.354506,44.939547,291.266392,0,2.533865,3,-93.166968,0.495528,2025-03-07T00:39:24Z,-0.273287,-0.960437,-0.017536,2025-03-07T00:39:24Z,0.148219,-0.030917,0.007822,2025-03-07T00:39:24Z
66,263.81733,0.93192,180,44.939546,291.22733,0,2.539565,3,-93.166967,0.198291,2025-03-07T00:39:25Z,-0.272009,-0.961208,-0.016405,2025-03-07T00:39:25Z,0.139511,-0.030813,0.012269,2025-03-07T00:39:25Z
67,263.807298,0.936906,180,44.939545,291.217297,0,2.595434,3,-93.166967,0,2025-03-07T00:39:26Z,-0.262644,-0.963174,-0.015118,2025-03-07T00:39:26Z,0.214279,-0.045922,0.020164,2025-03-07T00:39:26Z
68,263.782468,0.927894,180,44.939545,291.192468,0,2.687215,3,-93.166969,0.069214,2025-03-07T00:39:27Z,-0.256327,-0.965123,-0.013068,2025-03-07T00:39:27Z,0.256138,-0.058374,0.034685,2025-03-07T00:39:27Z
69,263.759227,0.707283,161.666101,44.939544,291.169227,0,2.85225,3,-93.166968,0,2025-03-07T00:39:28Z,-0.256158,-0.965131,-0.013173,2025-03-07T00:39:28Z,0.241692,-0.053624,0.030033,2025-03-07T00:39:28Z
70,263.759227,0.915408,180,44.939544,291.169227,0,2.870144,3,-93.166968,0,2025-03-07T00:39:29Z,-0.256149,-0.965211,-0.012725,2025-03-07T00:39:29Z,0.222296,-0.048473,0.030398,2025-03-07T00:39:29Z
71,263.759227,0.906765,180,44.939544,291.169227,0,2.890146,3,-93.166968,0,2025-03-07T00:39:30Z,-0.22841,-0.972069,-0.007483,2025-03-07T00:39:30Z,0.471574,-0.108276,0.076325,2025-03-07T00:39:30Z
72,263.921318,0.914813,180,44.93954,291.331318,0,2.929282,3,-93.166969,0.095222,2025-03-07T00:39:31Z,-0.200568,-0.978663,-0.001376,2025-03-07T00:39:31Z,0.704028,-0.16189,0.121914,2025-03-07T00:39:31Z
73,263.885581,0.911415,180,44.939547,291.295581,0,2.909492,3,-93.16697,0.222423,2025-03-07T00:39:32Z,-0.11443300000000001,-0.99857,0.018687,2025-03-07T00:39:32Z,1.472614,-0.338511,0.297389,2025-03-07T00:39:32Z
74,263.928019,0.699187,39.327243,44.939567,291.338019,0,2.864018,3,-93.166967,1.440197,2025-03-07T00:39:33Z,-0.127874,-0.995028,0.016466,2025-03-07T00:39:33Z,1.285682,-0.288142,0.262949,2025-03-07T00:39:33Z
75,263.762705,0.681922,16.302913,44.939607,291.172705,359.69223,2.820817,3,-93.166974,3.355423,2025-03-07T00:39:34Z,-0.149847,-0.991196,0.006626,2025-03-07T00:39:34Z,1.003061,-0.229043,0.153545,2025-03-07T00:39:34Z
76,263.741966,0.685447,11.849633,44.939654,291.151966,359.69223,2.781652,3,-93.166976,4.683173,2025-03-07T00:39:35Z,-0.162214,-0.994132,0.008294,2025-03-07T00:39:35Z,0.784485,-0.230995,0.097474,2025-03-07T00:39:35Z
77,263.676947,0.846367,13.994935,44.939696,291.086947,359.69223,2.814322,3,-93.166982,4.898616,2025-03-07T00:39:36Z,-0.162222,-0.985256,0.015012,2025-03-07T00:39:36Z,0.649609,-0.12291,0.139873,2025-03-07T00:39:36Z
78,263.413354,0.67769,8.547344,44.939765,290.823354,359.69223,2.877266,3,-93.166975,6.40536,2025-03-07T00:39:37Z,-0.168333,-0.985796,0.008274,2025-03-07T00:39:37Z,0.556191,-0.10819,0.066528,2025-03-07T00:39:37Z
79,263.423377,0.680569,7.573634,44.939832,290.833377,0,2.957051,3,-93.16697,7.276353,2025-03-07T00:39:38Z,-0.182144,-0.98194,0.014296,2025-03-07T00:39:38Z,0.408077,-0.072304,0.087487,2025-03-07T00:39:38Z
80,263.190412,0.676633,7.256789,44.939905,290.600412,0,2.83618,3,-93.16697,7.971486,2025-03-07T00:39:39Z,-0.199154,-0.983109,-0.004387,2025-03-07T00:39:39Z,0.131619,-0.060208,-0.016715,2025-03-07T00:39:39Z
81,263.09704,0.671103,7.257842,44.939983,290.50704,0,2.735594,3,-93.166969,8.450028,2025-03-07T00:39:40Z,-0.20969,-0.982923,-0.005446,2025-03-07T00:39:40Z,-0.009096,-0.047986,-0.091287,2025-03-07T00:39:40Z
82,263.033442,0.670609,7.258891,44.940063,290.443442,0,2.609278,3,-93.166967,8.854362,2025-03-07T00:39:41Z,-0.198756,-0.982475,0.009166,2025-03-07T00:39:41Z,-0.047875,-0.010643,0.026861,2025-03-07T00:39:41Z
83,263.076773,0.667891,7.258953,44.940147,290.486773,0,2.395442,3,-93.166966,9.284205,2025-03-07T00:39:42Z,-0.170035,-0.950455,0.00238,2025-03-07T00:39:42Z,0.362656,0.264899,0.082992,2025-03-07T00:39:42Z
84,262.808961,0.665519,7.256901,44.940239,290.21896,0.195503,2.401486,3,-93.166962,9.998099,2025-03-07T00:39:43Z,-0.204346,-0.993186,0.020528,2025-03-07T00:39:43Z,0.128185,-0.169567,0.103258,2025-03-07T00:39:43Z
85,262.572858,0.674255,7.256736,44.940336,289.982858,0.195503,2.746893,3,-93.166965,10.57244,2025-03-07T00:39:44Z,-0.247617,-0.971028,0.006162,2025-03-07T00:39:44Z,-0.391562,0.072794,-0.057668,2025-03-07T00:39:44Z
86,262.469629,0.678031,7.257885,44.940432,289.879629,0.195503,2.507527,3,-93.166968,10.65015,2025-03-07T00:39:45Z,-0.277483,-0.962271,-0.005199,2025-03-07T00:39:45Z,-0.693685,0.15812,-0.147071,2025-03-07T00:39:45Z
87,262.382821,0.672966,7.257582,44.940527,289.792821,0.195503,2.281952,3,-93.166968,10.531983,2025-03-07T00:39:46Z,-0.279576,-0.960627,-0.012913000000000001,2025-03-07T00:39:46Z,-0.680964,0.167603,-0.168853,2025-03-07T00:39:46Z
88,262.411526,0.676241,7.258396,44.94062,289.821526,0.195503,2.702877,3,-93.166965,10.359866,2025-03-07T00:39:47Z,-0.265108,-0.955669,-0.008064,2025-03-07T00:39:47Z,-0.550466,0.218714,-0.14708,2025-03-07T00:39:47Z
89,262.593178,0.677091,7.258962,44.94071,290.003178,359.438293,4.23544,3.591139,-93.166962,10.137197,2025-03-07T00:39:48Z,-0.234007,-0.969541,0.012542,2025-03-07T00:39:48Z,-0.117344,0.064856,-0.090282,2025-03-07T00:39:48Z
90,262.662866,0.681921,7.258934,44.940803,290.072866,359.438293,3.452101,3,-93.166964,10.322802,2025-03-07T00:39:49Z,-0.250393,-0.971734,0.019737,2025-03-07T00:39:49Z,-0.274678,0.005282,-0.041312,2025-03-07T00:39:49Z
91,262.232278,0.673795,7.257136,44.940894,289.642278,359.107178,2.82248,3,-93.166966,10.231705,2025-03-07T00:39:50Z,-0.276419,-0.956306,0.001489,2025-03-07T00:39:50Z,-0.48679,0.169952,-0.13762,2025-03-07T00:39:50Z
92,262.366969,0.667647,7.258974,44.940986,289.776968,359.107178,2.511354,3,-93.166967,10.202047,2025-03-07T00:39:51Z,-0.261284,-0.964877,0.016523,2025-03-07T00:39:51Z,-0.377314,0.099841,-0.08797,2025-03-07T00:39:51Z
93,262.223721,0.667294,7.258639,44.941074,289.63372,0.206405,2.433605,3,-93.166967,10.066451,2025-03-07T00:39:52Z,-0.264438,-0.961032,0.008129,2025-03-07T00:39:52Z,-0.341586,0.112858,-0.165499,2025-03-07T00:39:52Z
94,261.749975,0.675031,7.253146,44.941164,289.159975,0.206405,2.293897,3,-93.166965,9.981131,2025-03-07T00:39:53Z,-0.279794,-0.956349,0.017104,2025-03-07T00:39:53Z,-0.440618,0.144404,-0.149671,2025-03-07T00:39:53Z
95,261.829019,0.676351,7.258851,44.941251,289.239019,0.206405,2.168842,3,-93.166964,9.807833,2025-03-07T00:39:54Z,-0.265368,-0.977775,0.025295,2025-03-07T00:39:54Z,-0.390219,-0.034988,-0.077485,2025-03-07T00:39:54Z
96,261.974411,0.676162,7.258743,44.941336,289.384411,0.206405,2.097575,3,-93.166964,9.579008,2025-03-07T00:39:55Z,-0.235672,-0.957308,0.003969,2025-03-07T00:39:55Z,-0.022219,0.142266,-0.004433,2025-03-07T00:39:55Z
97,261.83054,0.673724,7.258924,44.941423,289.24054,0,2.056814,3,-93.166963,9.683563,2025-03-07T00:39:56Z,-0.209025,-0.978356,0.034996,2025-03-07T00:39:56Z,0.146357,-0.03791,0.15532,2025-03-07T00:39:56Z
98,NA,NA,NA,NA,NA,NA,NA,NA,NA,NA,NA,-0.22044,-0.964782,-0.006846,2025-03-07T00:39:57Z,0.119227,0.069964,-0.027842,2025-03-07T00:39:57Z
