seconds_elapsed,location_altitude,location_speedAccuracy,location_bearingAccuracy,location_latitude,location_altitudeAboveMeanSeaLevel,location_bearing,location_horizontalAccuracy,location_verticalAccuracy,location_longitude,location_speed,location_local_time,accelerometerUncalibrated_z,accelerometerUncalibrated_y,accelerometerUncalibrated_x,accelerometerUncalibrated_local_time,accelerometer_z,accelerometer_y,accelerometer_x,accelerometer_local_time
0,260.053086,0.5475,-1,44.934348,288.403788,-1,170.72631,40.096472,-93.170899,-0.47,2025-03-07T00:20:45Z,-0.275833,-0.956766,-0.120202,2025-03-07T00:20:45Z,-0.395698,0.13386,-1.244847,2025-03-07T00:20:45Z
1,252.97821,5.66,-1,44.934283,280.38821,-1,17.613614,16,-93.170937,1.12,2025-03-07T00:20:46Z,-0.312852,-0.959578,-0.123293,2025-03-07T00:20:46Z,-0.662927,0.071625,-1.37228,2025-03-07T00:20:46Z
2,255.008606,4.19,34.82233,44.934442,282.418606,332.226562,14,3,-93.171088,1.12,2025-03-07T00:20:47Z,-0.270567,-0.969039,-0.139528,2025-03-07T00:20:47Z,-0.506564,0.094092,-1.337138,2025-03-07T00:20:47Z
3,258.612305,1.08,17.039946,44.934376,286.022305,315.351562,14,3,-93.171149,4.11,2025-03-07T00:20:48Z,-0.263281,-0.963852,-0.10692,2025-03-07T00:20:48Z,-0.577592,0.14839,-0.888238,2025-03-07T00:20:48Z
4,257.046143,0.99,16.126761,44.934416,284.456142,344.179688,3.535534,3,-93.171117,4.11,2025-03-07T00:20:50Z,-0.208979,-0.965108,-0.101445,2025-03-07T00:20:49Z,-0.140516,0.144988,-0.659219,2025-03-07T00:20:49Z
5,257.211609,0.99,15.680118,44.934452,284.621609,355.429688,3.535534,3,-93.171118,4.08,2025-03-07T00:20:51Z,-0.182045,-0.987881,-0.040911,2025-03-07T00:20:50Z,0.227187,-0.094352,-0.108566,2025-03-07T00:20:50Z
6,257.26416,1.93,26.403066,44.934492,284.67416,8.085938,3.535534,3,-93.171111,4.6,2025-03-07T00:20:52Z,-0.157254,-0.983676,0.015562,2025-03-07T00:20:51Z,0.435309,-0.039657,0.339763,2025-03-07T00:20:51Z
7,257.936279,2.72,31.795197,44.93454,285.346279,356.132812,3.535534,3,-93.17112,4.6,2025-03-07T00:20:53Z,-0.18616,-0.99298,-0.012452,2025-03-07T00:20:52Z,0.060804,-0.117262,0.142105,2025-03-07T00:20:52Z
8,258.246826,1.05,10.072715,44.934608,285.656826,1.757812,3.535534,3,-93.171127,5.28,2025-03-07T00:20:54Z,-0.193703,-0.965894,-0.011724,2025-03-07T00:20:53Z,-0.011234,0.152373,0.127368,2025-03-07T00:20:53Z
9,258.189819,0.17,1.692402,44.934665,285.599819,1.054688,3.535534,3,-93.171124,6.75,2025-03-07T00:20:55Z,-0.262483,-0.967972,0.001362,2025-03-07T00:20:54Z,-0.631564,0.109627,0.132028,2025-03-07T00:20:54Z
10,258.137573,0.09,0.951917,44.934727,285.547573,360,3.535534,3,-93.171119,6.31,2025-03-07T00:20:56Z,-0.24518,-0.963319,-0.004486,2025-03-07T00:20:55Z,-0.558602,0.169694,0.153824,2025-03-07T00:20:55Z
11,258.137451,0.38,4.097968,44.934783,285.547451,359.296875,3.535534,3,-93.171117,6.31,2025-03-07T00:20:57Z,-0.245012,-0.966841,-0.005021,2025-03-07T00:20:56Z,-0.446525,0.133637,0.117231,2025-03-07T00:20:56Z
12,258.595581,1.86,16.858088,44.93485,286.005581,356.132812,3.535534,3,-93.171123,6.31,2025-03-07T00:20:58Z,-0.239366,-0.974859,0.001014,2025-03-07T00:20:57Z,-0.365935,0.029721,0.186086,2025-03-07T00:20:57Z
13,258.595584,1.86,23.884779,44.934906,286.005584,356.132809,4.748652,4.029364,-93.171128,6.31,2025-03-07T00:20:59Z,-0.211498,-0.985606,-0.003895,2025-03-07T00:20:58Z,-0.158898,-0.030197,-0.057551,2025-03-07T00:20:58Z
14,258.481937,1.23,15.720034,44.934969,285.891937,3.515628,4.748652,4.029364,-93.17111,6.34,2025-03-07T00:21:00Z,-0.24081,-0.955953,0.014358,2025-03-07T00:20:59Z,-0.377181,0.218374,-0.009757,2025-03-07T00:20:59Z
15,259.035648,0.54,7.258975,44.935031,286.445648,1.054689,4.748652,4.029364,-93.171108,6.54,2025-03-07T00:21:01Z,-0.222183,-0.956213,0.022273,2025-03-07T00:21:00Z,-0.155894,0.227947,0.078333,2025-03-07T00:21:00Z
16,259.153201,0.68,9.077324,44.935085,286.563201,1.406251,4.748652,4.029364,-93.171108,6.07,2025-03-07T00:21:02Z,-0.22936,-0.976431,-0.009287,2025-03-07T00:21:01Z,-0.120372,-0.002919,-0.019035,2025-03-07T00:21:01Z
17,259.191593,0.74,8.96279,44.935151,286.601593,1.757814,4.748652,4.029364,-93.171102,6.69,2025-03-07T00:21:03Z,-0.24622,-0.963038,0.029157,2025-03-07T00:21:02Z,-0.289918,0.125785,0.24861,2025-03-07T00:21:02Z
18,259.606876,0.308016,7.258975,44.935208,287.016876,2.812503,4.748652,4.029364,-93.171097,6.69,2025-03-07T00:21:04Z,-0.296334,-0.960463,-0.002324,2025-03-07T00:21:03Z,-0.679084,0.135786,-0.010651,2025-03-07T00:21:03Z
19,259.771305,0.308016,7.258975,44.935269,287.181305,359.648437,4.748652,4.029364,-93.1711,6.69,2025-03-07T00:21:05Z,-0.301005,-0.938097,-0.012515,2025-03-07T00:21:04Z,-0.694518,0.339893,-0.14219,2025-03-07T00:21:04Z
20,259.997135,0.308016,7.258975,44.935324,287.407135,1.054689,4.748652,4.029364,-93.171097,6.68,2025-03-07T00:21:06Z,-0.269403,-0.953759,0.029647,2025-03-07T00:21:05Z,-0.331671,0.181216,0.305772,2025-03-07T00:21:05Z
21,259.998477,0.308016,7.258975,44.935365,287.408476,360,4.748652,4.029364,-93.171098,5.56,2025-03-07T00:21:07Z,-0.23744,-0.964884,0.02442,2025-03-07T00:21:06Z,-0.044488,0.066881,0.230913,2025-03-07T00:21:06Z
22,260.033572,0.308016,7.258975,44.935421,287.443572,357.187497,4.748652,4.029364,-93.171103,5.99,2025-03-07T00:21:08Z,-0.234835,-0.982835,-0.007188,2025-03-07T00:21:07Z,0.095802,-0.129832,0.031862,2025-03-07T00:21:07Z
23,260.22687,0.39,7.258975,44.93547,287.63687,355.078121,4.748652,4.029364,-93.17111,5.79,2025-03-07T00:21:09Z,-0.220695,-0.951002,9.85e-4,2025-03-07T00:21:08Z,0.248805,0.141775,0.159123,2025-03-07T00:21:08Z
24,259.918948,0.6,8.116375,44.935528,287.328948,357.187497,4.748652,4.029364,-93.171109,5.99,2025-03-07T00:21:10Z,-0.229504,-0.97968,-0.017472,2025-03-07T00:21:09Z,0.017353,-0.034083,0.029997,2025-03-07T00:21:09Z
25,260.408817,2.19,27.901312,44.935589,287.818817,355.781246,4.748652,4.029364,-93.171118,6.36,2025-03-07T00:21:11Z,-0.24723,-0.974342,-0.042557,2025-03-07T00:21:10Z,-0.134569,-0.068503,-0.140849,2025-03-07T00:21:10Z
26,260.826114,2.95,38.062735000000004,44.93564,288.236114,350.15624,4.748652,4.029364,-93.17114,6.28,2025-03-07T00:21:12Z,-0.278202,-0.94726,-0.062447,2025-03-07T00:21:11Z,-0.372706,0.25943,-0.269306,2025-03-07T00:21:11Z
27,260.516239,1.57,20.002311,44.935702,287.926238,358.945311,4.748652,4.029364,-93.171132,6.36,2025-03-07T00:21:13Z,-0.364581,-0.925378,0.005582,2025-03-07T00:21:12Z,-1.162754,0.393088,0.280039,2025-03-07T00:21:12Z
28,260.598148,0.57,7.261985,44.93577,288.008148,2.46094,4.748652,4.029364,-93.171116,6.36,2025-03-07T00:21:14Z,-0.277085,-0.967157,-0.058137,2025-03-07T00:21:13Z,-0.214087,0.027476,-0.289313,2025-03-07T00:21:13Z
29,260.702396,0.58,7.389388,44.93582,288.112396,355.07812,4.748652,4.029364,-93.171127,6.36,2025-03-07T00:21:15Z,-0.208697,-0.974904,-0.02312,2025-03-07T00:21:14Z,0.356148,-0.038801,-0.042256,2025-03-07T00:21:14Z
30,260.752322,0.308016,7.258975,44.935867,288.162322,358.593749,4.748652,4.029364,-93.171123,5.39,2025-03-07T00:21:16Z,-0.194194,-0.983744,-0.031285,2025-03-07T00:21:15Z,0.568625,-0.169647,-0.051304,2025-03-07T00:21:15Z
31,261.026309,0.308016,7.258975,44.93593,288.436309,358.242186,4.748652,4.029364,-93.171132,6.29,2025-03-07T00:21:17Z,-0.23917,-0.971089,-0.015459,2025-03-07T00:21:16Z,0.06926,-0.029579,0.164158,2025-03-07T00:21:16Z
32,260.789066,0.34,7.258975,44.935994,288.199066,0.703126,4.748652,4.029364,-93.171129,6.78,2025-03-07T00:21:18Z,-0.296546,-0.93368,-0.048182,2025-03-07T00:21:17Z,-0.457059,0.333132,-0.166294,2025-03-07T00:21:17Z
33,260.092319,1.28601,16.389082,44.936056,287.502319,359.787764,2,3,-93.171132,6.351259,2025-03-07T00:21:19Z,-0.33114,-0.961187,-0.059832,2025-03-07T00:21:18Z,-0.807599,0.066341,-0.328624,2025-03-07T00:21:18Z
34,259.95952,1.317992,16.256229,44.936117,287.36952,9.575159,3.549186,3,-93.171105,6.563774,2025-03-07T00:21:20Z,-0.306649,-0.947213,-0.03543,2025-03-07T00:21:19Z,-0.510062,0.188782,-0.159586,2025-03-07T00:21:19Z
35,259.927842,1.394729,21.251023,44.93615,287.337842,344.97049,4.790502,3,-93.171147,5.31494,2025-03-07T00:21:21Z,-0.281673,-0.936697,-0.004998,2025-03-07T00:21:20Z,-0.285572,0.308977,0.118333,2025-03-07T00:21:20Z
36,259.65674,1.180152,19.299416,44.936197,287.06674,3.864327,3.984714,3,-93.171123,4.943551,2025-03-07T00:21:22Z,-0.303946,-0.966956,-0.02502,2025-03-07T00:21:21Z,-0.405796,-0.012979,0.009597,2025-03-07T00:21:21Z
37,258.782837,0.764723,15.935532,44.936215,286.192837,358.113958,3.556321,3,-93.171112,3.618053,2025-03-07T00:21:23Z,-0.293784,-0.929783,-0.022985,2025-03-07T00:21:22Z,-0.366456,0.345309,0.067017,2025-03-07T00:21:22Z
38,258.852111,0.750474,15.074976,44.936256,286.262111,357.919376,3.247714,3,-93.171116,3.810548,2025-03-07T00:21:24Z,-0.282453,-0.972565,-0.07647,2025-03-07T00:21:23Z,-0.220606,-0.097099,-0.28448,2025-03-07T00:21:23Z
39,259.398442,0.700301,15.214161,44.936291,286.808442,353.301365,3.244806,3,-93.171123,3.728815,2025-03-07T00:21:25Z,-0.268041,-0.958862,-0.050437,2025-03-07T00:21:24Z,-0.04737,0.053729,-0.007011,2025-03-07T00:21:24Z
40,259.037527,0.743552,16.892022,44.936323,286.447526,358.927447,3.066976,3,-93.171117,3.43269,2025-03-07T00:21:26Z,-0.271843,-0.955825,-0.043414,2025-03-07T00:21:25Z,-0.115562,0.11461,-0.012395,2025-03-07T00:21:25Z
41,258.952426,0.73012,17.667139,44.936352,286.362426,359.485131,3.023424,3,-93.171118,3.195573,2025-03-07T00:21:27Z,-0.286916,-0.95683,-0.028335,2025-03-07T00:21:26Z,-0.121667,0.016385,0.086904,2025-03-07T00:21:26Z
42,259.28039,0.796993,20.794031,44.93638,286.69039,3.248313,2.90971,3,-93.171112,3.105263,2025-03-07T00:21:28Z,-0.293814,-0.954096,0.008529,2025-03-07T00:21:27Z,-0.159725,0.075637,0.344278,2025-03-07T00:21:27Z
43,260.428844,0.829896,18.262425,44.936408,287.838844,355.808711,2.96216,3,-93.171121,3.128099,2025-03-07T00:21:29Z,-0.287916,-0.95085,0.019409,2025-03-07T00:21:28Z,-0.155776,0.094824,0.448972,2025-03-07T00:21:28Z
44,259.808691,0.711448,20.166102,44.936436,287.218691,347.188957,2.942433,3,-93.171133,2.855738,2025-03-07T00:21:30Z,-0.302931,-0.94542,0.026427,2025-03-07T00:21:29Z,-0.292418,0.155365,0.638998,2025-03-07T00:21:29Z
45,259.912587,0.69965,19.265819,44.93646,287.322587,334.266309,2.863897,3,-93.171155,2.942591,2025-03-07T00:21:31Z,-0.30244,-0.962413,0.02818,2025-03-07T00:21:30Z,-0.194835,-0.034247,0.549542,2025-03-07T00:21:30Z
46,259.736621,0.858316,21.338428,44.936482,287.14662,323.326743,2.857682,3,-93.171185,3.254878,2025-03-07T00:21:32Z,-0.296887,-0.956004,0.03515,2025-03-07T00:21:31Z,-0.308898,0.073853,0.465688,2025-03-07T00:21:31Z
47,259.987529,0.696729,19.568629,44.93648,287.397529,297.500511,2.814887,3,-93.171222,2.885481,2025-03-07T00:21:33Z,-0.240221,-0.967931,0.023574,2025-03-07T00:21:32Z,0.189695,-0.018993,0.241738,2025-03-07T00:21:32Z
48,259.580341,0.70549,21.054211,44.936481,286.990341,287.004428,2.760561,3,-93.171253,2.610826,2025-03-07T00:21:34Z,-0.220639,-0.9698,0.044105,2025-03-07T00:21:33Z,0.445006,-0.056103,0.208195,2025-03-07T00:21:33Z
49,259.495012,0.69691,16.706806,44.936485,286.905012,280.266714,2.748375,3,-93.171301,3.266023,2025-03-07T00:21:35Z,-0.239315,-0.960748,0.024115,2025-03-07T00:21:34Z,0.325267,0.013573,0.028602,2025-03-07T00:21:34Z
50,259.355514,0.702616,13.694855,44.936493,286.765514,279.466155,2.750343,3,-93.17136,4.066224,2025-03-07T00:21:36Z,-0.244697,-0.969166,0.017341,2025-03-07T00:21:35Z,0.239259,-0.071858,-0.046992,2025-03-07T00:21:35Z
51,259.450011,0.691579,11.880763,44.9365,286.860011,279.27991,2.708657,3,-93.171422,4.698094,2025-03-07T00:21:37Z,-0.258305,-0.967713,0.009895,2025-03-07T00:21:36Z,0.061899,-0.036602,-0.157505,2025-03-07T00:21:36Z
52,259.588756,0.70382,11.502146,44.936503,286.998756,277.776059,2.67536,3,-93.171484,4.95864,2025-03-07T00:21:38Z,-0.207529,-0.972789,0.031793,2025-03-07T00:21:37Z,0.534906,-0.078014,-0.008529,2025-03-07T00:21:37Z
53,259.599476,0.681139,11.653886,44.936502,287.009476,273.004846,2.641592,3,-93.171543,4.735685,2025-03-07T00:21:39Z,-0.249127,-0.967065,0.040808,2025-03-07T00:21:38Z,0.135917,-0.046409,0.007215,2025-03-07T00:21:38Z
54,258.960297,0.832116,16.692798,44.936494,286.370297,266.395166,2.740985,3,-93.171589,3.990371,2025-03-07T00:21:40Z,-0.302816,-0.952432,0.018846,2025-03-07T00:21:39Z,-0.421072,0.132728,-0.284197,2025-03-07T00:21:39Z
55,258.633194,0.953995,26.482653,44.936493,286.043194,267.528564,2.856543,3,-93.171615,2.830393,2025-03-07T00:21:41Z,-0.260668,-0.950986,0.024746,2025-03-07T00:21:40Z,0.019382,0.136809,-0.24313,2025-03-07T00:21:40Z
56,257.322867,0.738766,9.411885,44.93649,284.732866,267.914208,2.760544,3,-93.171747,5.590242,2025-03-07T00:21:42Z,-0.310557,-0.949286,0.014763,2025-03-07T00:21:41Z,-0.495429,0.125921,-0.417646,2025-03-07T00:21:41Z
57,257.279518,0.708429,8.879847,44.936493,284.689518,269.674793,2.740208,3,-93.171831,6.19985,2025-03-07T00:21:43Z,-0.29429,-0.974916,7.01e-4,2025-03-07T00:21:42Z,-0.313642,-0.100223,-0.330582,2025-03-07T00:21:42Z
58,258.070503,0.688111,9.28479,44.936494,285.480503,269.441796,2.639448,3,-93.171906,6.005296,2025-03-07T00:21:44Z,-0.34208,-0.924649,-0.02745,2025-03-07T00:21:43Z,-0.779532,0.392343,-0.581018,2025-03-07T00:21:43Z
59,257.739991,0.682831,9.332366,44.936497,285.149991,271.090051,2.599222,3,-93.171982,5.918648,2025-03-07T00:21:45Z,-0.284939,-0.96076,0.011162,2025-03-07T00:21:44Z,-0.22427,0.032388,-0.338405,2025-03-07T00:21:44Z
60,257.753711,0.678367,13.615396,44.936502,285.163711,273.386743,2.558571,3,-93.172022,4.030892,2025-03-07T00:21:46Z,-0.235985,-0.955816,0.040567,2025-03-07T00:21:45Z,0.300991,0.066661,0.005156,2025-03-07T00:21:45Z
61,257.253882,0.722739,13.581495,44.936504,284.663882,270.774385,2.539216,3,-93.172086,4.028732,2025-03-07T00:21:47Z,-0.279356,-0.969465,0.02572,2025-03-07T00:21:46Z,-0.105597,-0.06431,-0.092792,2025-03-07T00:21:46Z
62,256.473956,0.85874,15.017267,44.93651,283.883956,274.366703,2.622251,3,-93.172137,3.60905,2025-03-07T00:21:48Z,-0.308952,-0.945335,0.014908,2025-03-07T00:21:47Z,-0.396296,0.167012,-0.204247,2025-03-07T00:21:47Z
63,257.355636,0.722077,9.585527,44.936508,284.765636,271.707968,2.564972,3,-93.172254,5.993347,2025-03-07T00:21:49Z,-0.371321,-0.932791,-0.006427,2025-03-07T00:21:48Z,-0.976151,0.286682,-0.413705,2025-03-07T00:21:48Z
64,257.568614,0.706698,10.330741,44.936512,284.978614,275.05642,2.502197,3,-93.172317,5.539541,2025-03-07T00:21:50Z,-0.413028,-0.91942,-0.017299,2025-03-07T00:21:49Z,-1.333174,0.397617,-0.479449,2025-03-07T00:21:49Z
65,257.233687,0.686276,14.227401,44.936505,284.643687,269.154653,2.558077,3,-93.172355,3.883376,2025-03-07T00:21:51Z,-0.43106,-0.916527,-0.025008,2025-03-07T00:21:50Z,-1.428037,0.405534,-0.510758,2025-03-07T00:21:50Z
66,257.210374,0.685803,28.570049,44.936506,284.620374,267.426169,2.507343,3,-93.172367,1.923794,2025-03-07T00:21:52Z,-0.274881,-0.959783,0.013361,2025-03-07T00:21:51Z,0.092172,-0.005426,-0.116216,2025-03-07T00:21:51Z
67,257.514208,0.74104,37.357228,44.936505,284.924208,264.072653,2.559425,3,-93.172388,1.560015,2025-03-07T00:21:53Z,-0.18587,-0.982107,0.016555,2025-03-07T00:21:52Z,0.860473,-0.205189,-0.053272,2025-03-07T00:21:52Z
68,256.983927,0.756372,26.199019,44.93651,284.393927,269.551951,2.7072,3,-93.172417,1.917227,2025-03-07T00:21:54Z,-0.226501,-0.970974,-0.051343,2025-03-07T00:21:53Z,0.420853,-0.050506,-0.503157,2025-03-07T00:21:53Z
69,257.211968,0.707161,24.685538,44.936516,284.621968,276.648042,2.819014,3,-93.172453,2.253479,2025-03-07T00:21:55Z,-0.271742,-0.959978,-0.143237,2025-03-07T00:21:54Z,0.005174,-0.011601,-1.217832,2025-03-07T00:21:54Z
70,257.206994,0.71332,23.533080000000002,44.93653,284.616994,292.857079,2.884781,3,-93.17249,2.388076,2025-03-07T00:21:56Z,-0.303316,-0.945147,-0.105292,2025-03-07T00:21:55Z,-0.273845,0.15788,-0.984602,2025-03-07T00:21:55Z
71,257.064857,0.881425,31.168089,44.936544,284.474857,299.763219,2.885853,3,-93.172518,2.173977,2025-03-07T00:21:57Z,-0.233616,-0.968379,-0.128225,2025-03-07T00:21:56Z,0.32735,-0.042341,-1.191005,2025-03-07T00:21:56Z
72,257.865258,0.718262,25.267728,44.936571,285.275258,326.065605,2.913541,3,-93.172526,2.179408,2025-03-07T00:21:57Z,-0.253954,-0.9713,-0.142925,2025-03-07T00:21:57Z,0.030728,-0.049569,-1.212239,2025-03-07T00:21:57Z
73,258.36309,0.82941,25.959664,44.936595,285.77309,352.071103,2.862789,3,-93.172518,1.929669,2025-03-07T00:21:58Z,-0.230128,-0.96873,-0.123876,2025-03-07T00:21:58Z,0.039093,0.028545,-1.059178,2025-03-07T00:21:58Z
74,257.890213,0.708728,21.132277,44.93663,285.300213,18.547653,2.817379,3,-93.172491,2.685047,2025-03-07T00:21:59Z,-0.225539,-0.980698,-0.052017,2025-03-07T00:21:59Z,-0.004541,-0.06711,-0.509886,2025-03-07T00:21:59Z
75,257.37715,0.718113,17.464961,44.936653,284.78715,40.139295,2.781281,3,-93.172447,3.310124,2025-03-07T00:22:00Z,-0.190701,-0.979212,0.036001,2025-03-07T00:22:00Z,0.240214,-0.024675,0.182027,2025-03-07T00:22:00Z
76,257.08553,0.742609,13.960239,44.936672,284.49553,53.711661,2.881535,3,-93.172393,4.233259,2025-03-07T00:22:01Z,-0.20291,-0.979688,0.047362,2025-03-07T00:22:01Z,8.53e-4,-0.001879,0.287332,2025-03-07T00:22:01Z
77,257.057575,0.683203,12.088823,44.9367,284.467575,52.043905,2.837458,3,-93.172347,4.518739,2025-03-07T00:22:02Z,-0.200788,-0.964705,0.033626,2025-03-07T00:22:02Z,0.053303,0.120999,0.306978,2025-03-07T00:22:02Z
78,256.776022,0.722411,11.115972,44.936733,284.186022,51.965699,2.812135,3,-93.172294,5.110542,2025-03-07T00:22:03Z,-0.229935,-0.982508,0.05125,2025-03-07T00:22:03Z,-0.196751,-0.041524,0.384565,2025-03-07T00:22:03Z
79,257.367569,0.713597,10.373322,44.936768,284.777569,51.715305,2.796338,3,-93.172236,5.573916,2025-03-07T00:22:04Z,-0.227102,-0.971069,0.064058,2025-03-07T00:22:04Z,-0.165179,0.076936,0.395162,2025-03-07T00:22:04Z
80,256.761712,0.721956,10.28717,44.936803,284.171712,49.717115,2.7565210000000002,3,-93.172183,5.634697,2025-03-07T00:22:05Z,-0.224368,-0.972839,0.051392,2025-03-07T00:22:05Z,-0.202184,0.047382,0.435777,2025-03-07T00:22:05Z
81,257.299163,0.716487,9.234972,44.93685,284.709163,45.3799,2.702941,3,-93.172123,6.2865780000000004,2025-03-07T00:22:06Z,-0.276726,-0.947583,0.033803,2025-03-07T00:22:06Z,-0.640798,0.294377,0.255908,2025-03-07T00:22:06Z
82,257.423251,0.704672,9.060076,44.936891,284.833251,43.372898,2.640745,3,-93.172068,6.303067,2025-03-07T00:22:07Z,-0.256487,-0.975175,0.053219,2025-03-07T00:22:07Z,-0.401835,0.01512,0.280788,2025-03-07T00:22:07Z
83,257.247174,0.721703,9.485381,44.936933,284.657174,41.994484,2.750375,3,-93.172017,6.160689,2025-03-07T00:22:08Z,-0.246817,-0.957625,0.080366,2025-03-07T00:22:08Z,-0.276541,0.173828,0.595977,2025-03-07T00:22:08Z
84,257.730451,0.736898,9.201935,44.936981,285.140451,39.612184,2.674357,3,-93.171963,6.492109,2025-03-07T00:22:09Z,-0.261655,-0.960593,0.075629,2025-03-07T00:22:09Z,-0.509646,0.160012,0.589621,2025-03-07T00:22:09Z
85,257.684603,0.924631,12.780876,44.937023,285.094603,34.100301,2.618094,3,-93.171929,5.862652,2025-03-07T00:22:10Z,-0.253792,-0.947183,0.027532,2025-03-07T00:22:10Z,-0.397248,0.299862,0.322707,2025-03-07T00:22:10Z
86,257.480083,0.772737,10.178237,44.937076,284.890083,31.706567,2.532445,3,-93.171883,6.132103,2025-03-07T00:22:11Z,-0.258195,-0.984024,0.003353,2025-03-07T00:22:11Z,-0.372097,-0.097583,0.194808,2025-03-07T00:22:11Z
87,257.197774,0.824619,10.963152,44.937126,284.607773,29.345162,2.47014,3,-93.171847,6.034987,2025-03-07T00:22:12Z,-0.258671,-0.946469,-0.061083,2025-03-07T00:22:12Z,-0.431529,0.29831,-0.279091,2025-03-07T00:22:12Z
88,257.542518,0.759493,9.892684,44.93718,284.952518,29.265447,2.466017,3,-93.171805,6.213537,2025-03-07T00:22:13Z,-0.25902,-0.975167,-0.019536,2025-03-07T00:22:13Z,-0.464391,0.017485,0.084736,2025-03-07T00:22:13Z
89,257.811953,0.764569,10.224527,44.93723,285.221952,29.881593,2.615249,3,-93.171766,6.060353,2025-03-07T00:22:14Z,-0.22886600000000001,-0.970028,-0.019103,2025-03-07T00:22:14Z,-0.099698,0.049521,0.073563,2025-03-07T00:22:14Z
90,257.910476,0.723642,9.388098,44.937282,285.320476,28.222211,2.725774,3,-93.17173,6.245986,2025-03-07T00:22:15Z,-0.27923,-0.952363,-0.032103,2025-03-07T00:22:15Z,-0.502268,0.190593,-0.092296,2025-03-07T00:22:15Z
91,258.016339,0.745908,9.960906,44.93733,285.426339,28.69247,2.897158,3,-93.171693,6.067133,2025-03-07T00:22:16Z,-0.294638,-0.947226,-0.01108,2025-03-07T00:22:16Z,-0.673658,0.276456,0.044349,2025-03-07T00:22:16Z
92,257.711513,0.767543,11.122417,44.93738,285.121513,20.788721,2.984791,3,-93.17168,5.546165,2025-03-07T00:22:17Z,-0.212559,-0.984238,0.001001,2025-03-07T00:22:17Z,0.154978,-0.11264,0.187753,2025-03-07T00:22:17Z
93,257.753199,0.7273,10.881394,44.937415,285.163199,26.131381,2.924233,3,-93.171642,5.413472,2025-03-07T00:22:18Z,-0.237393,-0.961155,0.016427,2025-03-07T00:22:18Z,-0.08683,0.127135,0.326393,2025-03-07T00:22:18Z
94,257.886943,0.718293,9.882872,44.937465,285.296943,26.145175,2.821541,3,-93.171608,5.887315,2025-03-07T00:22:19Z,-0.254463,-0.972503,0.008559,2025-03-07T00:22:19Z,-0.242391,-0.009313,0.191435,2025-03-07T00:22:19Z
95,257.694229,0.681369,8.992672,44.93752,285.104229,20.132628,2.810658,3,-93.171585,6.135374,2025-03-07T00:22:20Z,-0.201316,-0.972145,0.018302,2025-03-07T00:22:20Z,0.279776,0.023513,0.279714,2025-03-07T00:22:20Z
96,258.186321,0.68761,8.791052,44.937572,285.59632,18.753912,2.746416,3,-93.171559,6.331445,2025-03-07T00:22:21Z,-0.239374,-0.968349,0.015439,2025-03-07T00:22:21Z,-0.016981,0.02105,0.221633,2025-03-07T00:22:21Z
97,258.512713,0.714521,8.810532,44.937629,285.922713,17.561274,2.736654,3,-93.171533,6.557431,2025-03-07T00:22:22Z,-0.279256,-0.960738,-8.32e-4,2025-03-07T00:22:22Z,-0.455922,0.115482,0.067851,2025-03-07T00:22:22Z
98,258.333859,0.70043,8.918512,44.937685,285.743859,15.150537,2.715457,3,-93.171513,6.361146,2025-03-07T00:22:23Z,-0.215576,-0.972806,3.9e-4,2025-03-07T00:22:23Z,0.133377,0.01438,0.083486,2025-03-07T00:22:23Z
99,258.140548,0.695749,8.297836,44.937743,285.550548,17.138832,2.610591,3,-93.171483,6.792347,2025-03-07T00:22:24Z,-0.188625,-0.97493,0.041813,2025-03-07T00:22:24Z,0.387405,-0.016234,0.389834,2025-03-07T00:22:24Z
100,258.615626,0.721706,8.492753,44.937804,286.025626,9.931874,2.51293,3,-93.171477,6.884079,2025-03-07T00:22:25Z,-0.228299,-0.973142,0.031213,2025-03-07T00:22:25Z,0.111219,-0.016005,0.328694,2025-03-07T00:22:25Z
101,258.411351,0.712215,7.885088,44.937871,285.82135,7.862985,2.411243,3,-93.171462,7.318597,2025-03-07T00:22:26Z,-0.265365,-0.962253,0.044635,2025-03-07T00:22:26Z,-0.257045,0.082111,0.321591,2025-03-07T00:22:26Z
102,258.551926,0.707688,7.673759,44.93794,285.961925,5.742987,2.31252,3,-93.171453,7.47326,2025-03-07T00:22:27Z,-0.246172,-0.962337,0.016998,2025-03-07T00:22:27Z,-0.078596,0.078904,0.096673,2025-03-07T00:22:27Z
103,258.281535,0.715329,7.67051,44.938009,285.691535,1.461502,2.229394,3,-93.171454,7.552025,2025-03-07T00:22:28Z,-0.258396,-0.966938,0.014847,2025-03-07T00:22:28Z,-0.248819,0.073686,0.11192,2025-03-07T00:22:28Z
104,258.4978,0.708803,7.572878,44.938078,285.9078,359.645104,2.167206,3,-93.171457,7.584614,2025-03-07T00:22:29Z,-0.271112,-0.944337,-0.002662,2025-03-07T00:22:29Z,-0.254584,0.223878,-0.099608,2025-03-07T00:22:29Z
105,258.915152,0.709965,7.788792,44.938144,286.325152,0.05874,2.122922,3,-93.171456,7.381328,2025-03-07T00:22:30Z,-0.28485,-0.954589,0.00332,2025-03-07T00:22:30Z,-0.310226,0.130794,-0.011402,2025-03-07T00:22:30Z
106,258.326153,0.749902,9.059495,44.938197,285.736153,357.859909,2.094746,3,-93.171463,6.676128,2025-03-07T00:22:31Z,-0.281217,-0.937388,0.006982,2025-03-07T00:22:31Z,-0.127433,0.249371,0.021633,2025-03-07T00:22:31Z
107,258.111986,0.734266,8.211914,44.938268,285.521985,356.62702,2.070142,3,-93.171469,7.193151,2025-03-07T00:22:32Z,-0.227747,-0.979016,2.67e-4,2025-03-07T00:22:32Z,0.380658,-0.149676,-0.004977,2025-03-07T00:22:32Z
108,258.586018,0.750424,8.34398,44.938332,285.996018,357.661455,2.053276,3,-93.171473,7.284239,2025-03-07T00:22:33Z,-0.265793,-0.95939700000000006,-0.012048,2025-03-07T00:22:33Z,-0.022753,0.044726,-0.098883,2025-03-07T00:22:33Z
109,258.080601,0.723783,7.337518,44.938409,285.490601,355.653859,2.038094,3,-93.171485,7.961447,2025-03-07T00:22:34Z,-0.276883,-0.961143,-0.041379,2025-03-07T00:22:34Z,-0.122356,0.034339,-0.271814,2025-03-07T00:22:34Z
110,257.789831,0.696769,7.244771,44.938481,285.199831,355.818703,2.027216,3,-93.171491,7.94159,2025-03-07T00:22:35Z,-0.25945,-0.953343,-0.014651,2025-03-07T00:22:35Z,0.055336,0.09836,-0.132493,2025-03-07T00:22:35Z
111,257.645668,0.711022,7.24652,44.938554,285.055668,356.175235,2.181843,3,-93.171497,8.028864,2025-03-07T00:22:36Z,-0.284827,-0.968482,-0.011986,2025-03-07T00:22:36Z,-0.112954,-0.057691,-0.131508,2025-03-07T00:22:36Z
112,257.856983,0.721088,7.35814,44.938626,285.266983,356.47211,2.127914,3,-93.171503,7.931973,2025-03-07T00:22:37Z,-0.275247,-0.95761,-0.022367,2025-03-07T00:22:37Z,-0.09942,0.076091,-0.252609,2025-03-07T00:22:37Z
113,257.804978,0.733403,7.286193,44.938703,285.214978,355.881254,2.085289,3,-93.17151,8.13968,2025-03-07T00:22:38Z,-0.297578,-0.954573,-0.021329999999999998,2025-03-07T00:22:38Z,-0.291002,0.066804,-0.212016,2025-03-07T00:22:38Z
114,257.975769,0.720642,7.273228,44.938775,285.385769,355.694385,2.057447,3,-93.171518,8.02901,2025-03-07T00:22:39Z,-0.295756,-0.938167,-0.04574,2025-03-07T00:22:39Z,-0.175168,0.225256,-0.413733,2025-03-07T00:22:39Z
115,257.035234,0.907325,9.466826,44.938841,284.445234,355.291539,2.039602,3,-93.171527,7.652847,2025-03-07T00:22:40Z,-0.296193,-0.960869,-0.03658,2025-03-07T00:22:40Z,-0.207068,0.013976,-0.317176,2025-03-07T00:22:40Z
116,257.496421,0.772754,8.532524,44.938905,284.90642,353.792184,2.288839,3,-93.171538,7.326675,2025-03-07T00:22:41Z,-0.29653,-0.955115,-0.006781,2025-03-07T00:22:41Z,-0.09703,0.06105,-0.089071,2025-03-07T00:22:41Z
117,256.732765,0.73641,7.910898,44.938975,284.142765,0.878892,2.199283,3,-93.171523,7.476692,2025-03-07T00:22:42Z,-0.294646,-0.946872,-0.022237,2025-03-07T00:22:42Z,-0.387665,0.161412,-0.176598,2025-03-07T00:22:42Z
118,257.299638,0.736721,8.380794,44.93904,284.709637,0.865459,2.138736,3,-93.171523,7.121091,2025-03-07T00:22:43Z,-0.283413,-0.954344,-0.027347,2025-03-07T00:22:43Z,-0.077728,0.079867,-0.283718,2025-03-07T00:22:43Z
119,257.748664,0.731644,8.159055,44.939107,285.158664,0.641494,2.097299,3,-93.171525,7.237514,2025-03-07T00:22:44Z,-0.27236,-0.967088,0.002984,2025-03-07T00:22:44Z,0.07289,-0.094981,-0.126926,2025-03-07T00:22:44Z
120,257.258586,0.716114,8.05771,44.939172,284.668586,359.461928,2.130414,3,-93.171527,7.19885,2025-03-07T00:22:45Z,-0.232025,-0.958076,0.004848,2025-03-07T00:22:45Z,0.412538,0.050676,-0.07303,2025-03-07T00:22:45Z
121,256.922142,0.728845,8.145432,44.939236,284.332142,359.918927,2.20783,3,-93.171526,7.21132,2025-03-07T00:22:46Z,-0.259261,-0.965469,0.035916,2025-03-07T00:22:46Z,0.211829,-0.071023,0.089365,2025-03-07T00:22:46Z
122,256.743856,0.727573,7.647351,44.939307,284.153856,357.944162,2.395833,3,-93.171532,7.674867,2025-03-07T00:22:47Z,-0.276467,-0.965239,0.025103,2025-03-07T00:22:47Z,-0.034221,-0.033422,-0.013414,2025-03-07T00:22:47Z
123,256.804915,0.720223,7.595714,44.939376,284.214915,357.825968,2.443665,3,-93.171534,7.669088,2025-03-07T00:22:48Z,-0.311444,-0.938794,0.018813,2025-03-07T00:22:48Z,-0.374239,0.224332,-0.027274,2025-03-07T00:22:48Z
124,257.1617,0.733075,7.577107,44.939451,284.5717,0.623192,2.298349,3,-93.171527,7.84074,2025-03-07T00:22:49Z,-0.308347,-0.952176,-0.009492,2025-03-07T00:22:49Z,-0.340622,0.098766,-0.202179,2025-03-07T00:22:49Z
125,257.03643,0.724689,7.8125,44.939517,284.44643,0.396496,2.206415,3,-93.171526,7.513005,2025-03-07T00:22:50Z,-0.308283,-0.95486,0.001686,2025-03-07T00:22:50Z,-0.356372,0.071384,-0.116786,2025-03-07T00:22:50Z
126,257.005465,0.756216,8.536558,44.93958,284.415465,359.737126,2.144483,3,-93.171527,7.158946,2025-03-07T00:22:51Z,-0.285202,-0.938,-0.034024,2025-03-07T00:22:51Z,-0.156073,0.237114,-0.368679,2025-03-07T00:22:51Z
127,257.336053,0.734138,8.702972,44.93964,284.746053,0,3.073846,3,-93.17148,6.835966,2025-03-07T00:22:52Z,-0.307899,-0.95988,0.003835,2025-03-07T00:22:52Z,-0.303296,0.00737,-0.018796,2025-03-07T00:22:52Z
128,257.366541,0.717047,9.115081,44.939696,284.776541,0,2.827049,3,-93.17148,6.374272,2025-03-07T00:22:53Z,-0.299508,-0.945681,-0.008745,2025-03-07T00:22:53Z,-0.238554,0.167858,-0.142851,2025-03-07T00:22:53Z
129,257.316314,0.702033,9.179009,44.939753,284.726314,0,2.643342,3,-93.17148,6.196643,2025-03-07T00:22:54Z,-0.309012,-0.950919,-0.016647,2025-03-07T00:22:54Z,-0.326622,0.086961,-0.191421,2025-03-07T00:22:54Z
130,257.194903,0.709343,9.894983,44.939806,284.604903,0,2.587808,3,-93.17148,5.806236,2025-03-07T00:22:55Z,-0.33249,-0.945144,-0.019299,2025-03-07T00:22:55Z,-0.547708,0.160646,-0.202531,2025-03-07T00:22:55Z
131,257.035687,0.709677,11.124057,44.93985,284.445687,0.766429,2.503835,3,-93.17148,5.156663,2025-03-07T00:22:56Z,-0.359207,-0.935474,-0.026032,2025-03-07T00:22:56Z,-0.788818,0.245156,-0.207147,2025-03-07T00:22:56Z
132,256.781319,0.702507,12.472667,44.939887,284.191319,0.766429,2.440856,3,-93.171479,4.527945,2025-03-07T00:22:58Z,-0.353074,-0.93699,-0.022272,2025-03-07T00:22:57Z,-0.668574,0.21145,-0.206574,2025-03-07T00:22:57Z
133,257.098256,0.698061,15.472876,44.939919,284.508256,0.766429,2.391872,3,-93.171478,3.6556670000000002,2025-03-07T00:22:59Z,-0.309361,-0.945442,-0.011001,2025-03-07T00:22:58Z,-0.210239,0.126604,-0.045049,2025-03-07T00:22:58Z
134,257.08274,0.701362,19.923877,44.93994,284.49274,0.766429,2.396906,3,-93.171478,2.794814,2025-03-07T00:23:00Z,-0.343222,-0.943875,-0.027597,2025-03-07T00:22:59Z,-0.444961,0.098834,-0.156934,2025-03-07T00:22:59Z
135,257.04676,0.907468,28.172325,44.939966,284.45676,0.766429,2.609186,3,-93.171477,2.525352,2025-03-07T00:23:01Z,-0.318898,-0.946947,-0.026247,2025-03-07T00:23:00Z,-0.26359900000000003,0.092591,-0.096258,2025-03-07T00:23:00Z
136,256.976866,0.747023,29.21008,44.939983,284.386866,0.766429,2.719241,3,-93.171477,1.982312,2025-03-07T00:23:02Z,-0.319926,-0.942609,-0.032552,2025-03-07T00:23:01Z,-0.254243,0.124107,-0.103875,2025-03-07T00:23:01Z
137,257.040639,0.76256,44.349753,44.939993,284.450638,0.766429,2.682665,3,-93.171477,1.23716,2025-03-07T00:23:03Z,-0.315428,-0.952569,-0.033626,2025-03-07T00:23:02Z,-0.149328,0.011501,-0.082659,2025-03-07T00:23:02Z
138,257.32826,0.756427,62.673748,44.940005,284.73826,0.766429,2.667599,3,-93.171477,0.902451,2025-03-07T00:23:04Z,-0.305545,-0.950532,-0.031795,2025-03-07T00:23:03Z,-0.043203,0.02578,-0.037815,2025-03-07T00:23:03Z
139,257.389425,0.809653,106.826547,44.940009,284.799425,0.766429,2.663799,3,-93.171477,0.4881,2025-03-07T00:23:05Z,-0.302212,-0.950832,-0.03065,2025-03-07T00:23:04Z,1.8e-4,0.019738,-0.022262,2025-03-07T00:23:04Z
140,257.363437,0.945104,180,44.940009,284.773437,0.766429,2.62567,3,-93.171477,0.010807,2025-03-07T00:23:06Z,-0.268564,-0.960564,-0.022543,2025-03-07T00:23:05Z,0.332964,-0.077137,0.055812,2025-03-07T00:23:05Z
141,257.260768,0.953979,180,44.940009,284.670768,0.766429,2.621275,3,-93.171477,0.028775,2025-03-07T00:23:07Z,-0.268957,-0.960592,-0.023149,2025-03-07T00:23:06Z,0.329312,-0.077521,0.050465,2025-03-07T00:23:06Z
142,257.202158,0.954611,180,44.94001,284.612158,0.766429,2.630649,3,-93.171477,0.032805,2025-03-07T00:23:08Z,-0.268935,-0.960414,-0.022315,2025-03-07T00:23:07Z,0.318441,-0.073719,0.052,2025-03-07T00:23:07Z
143,257.151378,0.95393,180,44.940011,284.561378,0.766429,2.654374,3,-93.171477,0.104114,2025-03-07T00:23:09Z,-0.26955,-0.960322,-0.022853,2025-03-07T00:23:08Z,0.307261,-0.069073,0.052093,2025-03-07T00:23:08Z
144,257.06979,0.948179,180,44.940012,284.47979,0.766429,2.621655,3,-93.171477,0.043439,2025-03-07T00:23:10Z,-0.269128,-0.960708,-0.023373,2025-03-07T00:23:09Z,0.297297,-0.067933,0.042172,2025-03-07T00:23:09Z
145,256.890448,1.113832,180,44.940013,284.300448,0.766429,2.634093,3,-93.171477,0.076738,2025-03-07T00:23:11Z,-0.269322,-0.96061,-0.022164,2025-03-07T00:23:10Z,0.278507,-0.06182,0.041976,2025-03-07T00:23:10Z
146,256.978312,0.948221,180,44.940012,284.388312,0.766429,2.627479,3,-93.171477,0,2025-03-07T00:23:12Z,-0.269055,-0.96069,-0.022987,2025-03-07T00:23:11Z,0.261913,-0.05703,0.031043,2025-03-07T00:23:11Z
147,256.978312,0.952615,180,44.940012,284.388312,0.766429,2.693232,3,-93.171477,0,2025-03-07T00:23:13Z,-0.269398,-0.960451,-0.022684,2025-03-07T00:23:12Z,0.248448,-0.050935,0.03847,2025-03-07T00:23:12Z
148,256.978312,0.955803,180,44.940012,284.388312,0.766429,2.678587,3,-93.171477,0,2025-03-07T00:23:14Z,-0.269382,-0.960847,-0.023369,2025-03-07T00:23:13Z,0.230706,-0.048176,0.02127,2025-03-07T00:23:13Z
149,256.978312,0.942876,180,44.940012,284.388312,0.766429,2.644658,3,-93.171477,0,2025-03-07T00:23:15Z,-0.258849,-0.963345,-0.019936,2025-03-07T00:23:14Z,0.31136200000000003,-0.068866,0.047792,2025-03-07T00:23:14Z
150,257.210532,0.962758,180,44.940018,284.620532,0.766429,2.643914,3,-93.171476,0.030043,2025-03-07T00:23:16Z,-0.267527,-0.961183,-0.02143,2025-03-07T00:23:15Z,0.213996,-0.042238,0.022713,2025-03-07T00:23:15Z
151,257.262577,0.950968,180,44.940022,284.672577,0.766429,2.690115,3,-93.171476,0.209733,2025-03-07T00:23:17Z,-0.254849,-0.96479,-0.017494,2025-03-07T00:23:16Z,0.316589,-0.070573,0.058541,2025-03-07T00:23:16Z
152,257.127701,0.960262,180,44.940023,284.537701,0.766429,2.734772,3,-93.171476,0.331162,2025-03-07T00:23:18Z,-0.2433,-0.96777,-0.017209,2025-03-07T00:23:17Z,0.407712,-0.092474,0.05953,2025-03-07T00:23:17Z
153,257.100201,0.973983,180,44.940028,284.510201,0.766429,2.698033,3,-93.171476,0.403944,2025-03-07T00:23:19Z,-0.264661,-0.961516,-0.016022,2025-03-07T00:23:18Z,0.163235,-0.020391,0.015383,2025-03-07T00:23:18Z
154,257.062746,0.94487,169.576969,44.940033,284.472746,0.766429,2.663132,3,-93.171476,0.443911,2025-03-07T00:23:20Z,-0.156567,-0.995425,0.019456,2025-03-07T00:23:19Z,1.09198,-0.313939,0.302334,2025-03-07T00:23:19Z
155,256.830014,0.907988,81.019457,44.94004,284.240014,0.766429,2.666041,3,-93.171476,0.865605,2025-03-07T00:23:21Z,-0.02969,-1.025448,0.095457,2025-03-07T00:23:20Z,2.106773,-0.551539,0.997801,2025-03-07T00:23:20Z
156,257.348692,0.712842,17.111682,44.940084,284.758692,0.766429,2.692731,3,-93.171475,3.32476,2025-03-07T00:23:22Z,-0.127408,-0.988536,0.029076,2025-03-07T00:23:21Z,0.950823,-0.141596,0.384241,2025-03-07T00:23:21Z
157,257.362866,0.69108,12.047525,44.940131,284.772866,0.766429,2.658094,3,-93.171474,4.641866,2025-03-07T00:23:23Z,-0.158145,-0.966843,-0.020943,2025-03-07T00:23:22Z,0.898004,0.004141,-0.167043,2025-03-07T00:23:22Z
158,256.83815,0.705476,10.176214,44.940185,284.24815,0.792692,6.261798,3,-93.171473,5.538672,2025-03-07T00:23:24Z,-0.257502,-0.988131,-0.096912,2025-03-07T00:23:23Z,0.086196,-0.216853,-0.724981,2025-03-07T00:23:23Z
159,256.819605,0.69454,9.27193,44.940242,284.229605,0.792692,6.591531,3,-93.171472,6.067204,2025-03-07T00:23:25Z,-0.266908,-0.956712,-0.058356,2025-03-07T00:23:24Z,-0.357146,0.17036,-0.483603,2025-03-07T00:23:24Z
160,256.887704,0.688658,9.184672,44.940296,284.297704,2.715435,6.658728,3,-93.171468,6.074775,2025-03-07T00:23:26Z,-0.197033,-0.965938,-0.067819,2025-03-07T00:23:25Z,0.247073,0.0686,-0.430637,2025-03-07T00:23:25Z
161,256.861461,0.698121,8.984024,44.940344,284.271461,8.837941,6.946258,3,-93.171456,6.296434,2025-03-07T00:23:27Z,-0.215934,-0.972635,-0.08484,2025-03-07T00:23:26Z,0.090285,0.009542,-0.5301,2025-03-07T00:23:26Z
162,256.920189,0.691411,8.279601,44.940399,284.330189,14.105566,7.237889,3,-93.171437,6.766456,2025-03-07T00:23:28Z,-0.235396,-0.961676,-0.130021,2025-03-07T00:23:27Z,-0.092433,0.117888,-0.928425,2025-03-07T00:23:27Z
163,257.20755,0.693782,8.432926,44.940449,284.617549,18.48765,6.839829,3,-93.171413,6.668789,2025-03-07T00:23:29Z,-0.250718,-0.952439,-0.091018,2025-03-07T00:23:28Z,-0.143655,0.186242,-0.731384,2025-03-07T00:23:28Z
164,257.70566,0.679433,8.904712,44.940489,285.11566,24.198774,6.576395,3,-93.171388,6.163702,2025-03-07T00:23:30Z,-0.255815,-0.974754,-0.10737,2025-03-07T00:23:29Z,-0.174069,-0.032415,-0.934572,2025-03-07T00:23:29Z
165,257.806126,0.687919,8.492637,44.940542,285.216126,26.62233,6.492916,3,-93.17135,6.547532,2025-03-07T00:23:31Z,-0.26545,-0.958972,-0.08096,2025-03-07T00:23:30Z,-0.303625,0.119418,-0.679851,2025-03-07T00:23:30Z
166,257.70905,0.684618,8.316346,44.94059,285.11905,30.511116,5.62439,3,-93.171308,6.66757,2025-03-07T00:23:32Z,-0.246013,-0.956488,-0.061599,2025-03-07T00:23:31Z,-0.133598,0.1656,-0.53141,2025-03-07T00:23:31Z
167,257.388739,2.088223,26.129765,44.94063,284.798739,38.756004,5.003149,3,-93.171269,6.466478,2025-03-07T00:23:33Z,-0.169632,-0.989618,-0.057141,2025-03-07T00:23:32Z,-0.356211,-3.98e-4,-0.534432,2025-03-07T00:23:32Z
168,257.461713,2.145482,28.516731,44.940667,284.871713,43.928776,4.889032,3,-93.171223,6.09028,2025-03-07T00:23:34Z,-0.217245,-0.974393,-0.064515,2025-03-07T00:23:33Z,-0.177308,0.072459,-0.550053,2025-03-07T00:23:33Z
169,257.100924,2.161315,28.877873,44.940698,284.510924,51.639294,5.443579,3,-93.171172,5.946398,2025-03-07T00:23:35Z,-0.212446,-0.972019,-0.043145,2025-03-07T00:23:34Z,-0.12684,0.060367,-0.373476,2025-03-07T00:23:34Z
170,257.200414,2.132301,28.694308,44.940729,284.610413,56.093258,5.711526,3,-93.17111,6.002161,2025-03-07T00:23:36Z,-0.251858,-0.960362,-0.021192,2025-03-07T00:23:35Z,-0.407925,0.16991,-0.105713,2025-03-07T00:23:35Z
171,257.144056,2.15972,29.842715,44.940759,284.554056,56.093258,5.949154,3,-93.171046,5.843457,2025-03-07T00:23:37Z,-0.239931,-0.966891,-0.012904,2025-03-07T00:23:36Z,-0.208367,0.081513,0.054783,2025-03-07T00:23:36Z
172,256.998717,2.182778,30.521244,44.94079,284.408717,53.994457,6.014859,3,-93.170985,5.697562,2025-03-07T00:23:38Z,-0.19973,-0.970098,0.010814,2025-03-07T00:23:37Z,0.202122,0.030454,0.193197,2025-03-07T00:23:37Z
173,257.121498,2.123448,27.864436,44.940824,284.531498,53.994457,6.340343,3,-93.17092,6.141921,2025-03-07T00:23:39Z,-0.240005,-0.969672,0.013518,2025-03-07T00:23:38Z,-0.146447,0.058472,0.344576,2025-03-07T00:23:38Z
174,257.128285,2.099172,27.095922,44.940866,284.538285,47.671082,6.854345,3,-93.170852,6.277034,2025-03-07T00:23:40Z,-0.243376,-0.967513,-0.010546,2025-03-07T00:23:39Z,-0.186108,0.066054,0.174354,2025-03-07T00:23:39Z
175,257.157157,2.111422,27.761919,44.940907,284.567156,44.543129,6.805004,3,-93.170793,6.156005,2025-03-07T00:23:41Z,-0.271338,-0.954287,0.021323,2025-03-07T00:23:40Z,-0.418357,0.183081,0.419053,2025-03-07T00:23:40Z
176,257.03256,2.103712,27.717926,44.940949,284.442559,44.543129,6.404864,3,-93.170734,6.149639,2025-03-07T00:23:42Z,-0.273546,-0.963823,0.005803,2025-03-07T00:23:41Z,-0.419452,0.08144,0.262803,2025-03-07T00:23:41Z
177,256.811062,2.104751,28.201914,44.940995,284.221061,39.291294,5.700601,3,-93.170683,6.043205,2025-03-07T00:23:43Z,-0.271575,-0.966559,-0.002264,2025-03-07T00:23:42Z,-0.415529,0.07196,0.079319,2025-03-07T00:23:42Z
178,256.62769,2.149795,29.811833,44.941042,284.037689,35.530865,5.345031,3,-93.170637,5.84312,2025-03-07T00:23:43Z,-0.285092,-0.954147,0.008635,2025-03-07T00:23:43Z,-0.539708,0.185027,0.232687,2025-03-07T00:23:43Z
179,256.593692,2.157579,32.364603,44.94108,284.003692,35.530865,4.99818,3,-93.170599,5.398812,2025-03-07T00:23:44Z,-0.278662,-0.95866,0.022204,2025-03-07T00:23:44Z,-0.442844,0.131435,0.395373,2025-03-07T00:23:44Z
180,256.578261,2.183071,34.244018,44.941118,283.98826,35.098392,4.801753,3,-93.170561,5.162947,2025-03-07T00:23:45Z,-0.277342,-0.963594,0.010272,2025-03-07T00:23:45Z,-0.429332,0.078748,0.2673,2025-03-07T00:23:45Z
181,256.816448,2.233276,36.578275,44.941165,284.226448,24.61635,4.209232,3,-93.170531,4.921748,2025-03-07T00:23:46Z,-0.274593,-0.954656,0.018186,2025-03-07T00:23:46Z,-0.390224,0.195451,0.318678,2025-03-07T00:23:46Z
182,256.377978,2.267382,39.708922,44.941201,283.787978,24.61635,4.200928,3,-93.170508,4.607466,2025-03-07T00:23:47Z,-0.278531,-0.954445,0.025023,2025-03-07T00:23:47Z,-0.291341,0.121333,0.338349,2025-03-07T00:23:47Z
183,256.495346,2.272659,41.784332,44.941243,283.905346,19.460459,4.311093,3,-93.170489,4.398071,2025-03-07T00:23:48Z,-0.267516,-0.954705,0.035403,2025-03-07T00:23:48Z,-0.212264,0.139657,0.263111,2025-03-07T00:23:48Z
184,256.493415,2.309212,43.55006,44.94128,283.903415,19.460459,4.812593,3,-93.170471,4.265214,2025-03-07T00:23:49Z,-0.262701,-0.968865,-0.018313,2025-03-07T00:23:49Z,-0.058157,-0.014348,-0.099916,2025-03-07T00:23:49Z
185,256.617832,2.313901,44.403484,44.941314,284.027832,19.460459,5.850859,3,-93.170454,4.220233,2025-03-07T00:23:50Z,-0.293719,-0.957102,-0.01219,2025-03-07T00:23:50Z,-0.443346,0.107635,-0.089747,2025-03-07T00:23:50Z
186,256.424241,2.347809,49.893178,44.941344,283.834241,19.460459,6.481022,3,-93.170439,3.811573,2025-03-07T00:23:51Z,-0.338085,-0.94259,-0.018772,2025-03-07T00:23:51Z,-0.778781,0.233568,-0.179021,2025-03-07T00:23:51Z
187,NA,NA,NA,NA,NA,NA,NA,NA,NA,NA,NA,-0.319595,-0.937991,-0.085657,2025-03-07T00:23:52Z,-0.496623,0.223392,-0.806974,2025-03-07T00:23:52Z
