seconds_elapsed,location_altitude,location_speedAccuracy,location_bearingAccuracy,location_latitude,location_altitudeAboveMeanSeaLevel,location_bearing,location_horizontalAccuracy,location_verticalAccuracy,location_longitude,location_speed,location_local_time,accelerometerUncalibrated_z,accelerometerUncalibrated_y,accelerometerUncalibrated_x,accelerometerUncalibrated_local_time,accelerometer_z,accelerometer_y,accelerometer_x,accelerometer_local_time
0,252.217752,-1,-1,44.941638,279.627752,-1,281.304687,3,-93.175516,-1,2025-03-07T00:24:47Z,-0.343792,-0.933647,0.160561,2025-03-07T00:24:47Z,-0.630661,0.23903,0.848243,2025-03-07T00:24:47Z
1,249.07135,1.9,7.812163,44.941645,276.48135,270.351562,14,6,-93.17752,12.78,2025-03-07T00:24:48Z,-0.343,-0.940733,0.086959,2025-03-07T00:24:48Z,-0.809683,0.19459,-0.088084,2025-03-07T00:24:48Z
2,249.624634,3.74,23.915083,44.941628,277.034634,270.1698,11.580401,4,-93.177542,12.71,2025-03-07T00:24:49Z,-0.299131,-0.953644,0.048061,2025-03-07T00:24:49Z,-0.518766,0.104267,-0.483014,2025-03-07T00:24:49Z
3,249.674683,3.62,41.836712,44.941628,277.084682,270.1698,10.741225,4,-93.177523,9.91,2025-03-07T00:24:50Z,-0.11358,-0.99896,0.080888,2025-03-07T00:24:50Z,1.174848,-0.304351,-0.187692,2025-03-07T00:24:50Z
4,249.523621,1.02,8.174034,44.941611,276.93362,149.414062,17.428865,3,-93.17737,8.08,2025-03-07T00:24:51Z,-0.131788,-0.990362,0.056798,2025-03-07T00:24:51Z,0.921716,-0.209925,-0.352794,2025-03-07T00:24:51Z
5,248.372131,0.07,0.815576,44.941389,275.782131,177.1875,4.212569,3,-93.17733,6.11,2025-03-07T00:24:52Z,-0.141832,-0.989301,0.041553,2025-03-07T00:24:52Z,0.853226,-0.211633,-0.495163,2025-03-07T00:24:52Z
6,248.104858,0.07,0.709752,44.94132,275.514858,177.890625,3.535534,3,-93.177314,7.1,2025-03-07T00:24:54Z,-0.147315,-0.998924,0.041585,2025-03-07T00:24:53Z,0.729677,-0.281186,-0.488793,2025-03-07T00:24:53Z
7,247.807434,0.07,0.607906,44.94125,275.217434,177.890625,3.535534,3,-93.177299,7.1,2025-03-07T00:24:55Z,-0.148916,-0.983616,0.070835,2025-03-07T00:24:54Z,0.646731,-0.114538,-0.456067,2025-03-07T00:24:54Z
8,247.306274,0.34,2.485574,44.941178,274.716274,179.648438,3.535534,3,-93.177299,8.03,2025-03-07T00:24:56Z,-0.156646,-0.994236,0.059156,2025-03-07T00:24:55Z,0.484638,-0.240029,-0.605419,2025-03-07T00:24:55Z
9,247.360168,0.23,1.531713,44.941088,274.770168,179.648438,3.535534,3,-93.177294,10.03,2025-03-07T00:24:57Z,-0.178797,-0.977731,0.058401,2025-03-07T00:24:56Z,0.222339,-0.037557,-0.427852,2025-03-07T00:24:56Z
10,247.235107,0.14,0.898296,44.940999,274.645107,179.648438,3.535534,3,-93.177284,10.57,2025-03-07T00:24:58Z,-0.20187,-0.972737,0.051443,2025-03-07T00:24:57Z,0.023066,0.0049,-0.533857,2025-03-07T00:24:57Z
11,247.203979,0.14,0.852733,44.940901,274.613979,180.703125,3.535534,3,-93.177281,10.57,2025-03-07T00:24:59Z,-0.216206,-0.969099,0.052301,2025-03-07T00:24:58Z,-0.141721,0.047944,-0.477813,2025-03-07T00:24:58Z
12,247.198242,0.54,3.22018,44.940802,274.608242,181.40625,3.535534,3,-93.177283,10.97,2025-03-07T00:25:00Z,-0.260935,-0.967817,0.051264,2025-03-07T00:24:59Z,-0.612302,0.072077,-0.403073,2025-03-07T00:24:59Z
13,247.198252,0.54,7.258975,44.940703,274.608252,181.406248,4.748652,4.029364,-93.177286,10.97,2025-03-07T00:25:01Z,-0.251815,-0.959744,0.052763,2025-03-07T00:25:00Z,-0.473119,0.15515,-0.334645,2025-03-07T00:25:00Z
14,247.183115,0.32,7.258975,44.940598,274.593115,180.465073,4.748652,4.029364,-93.177277,11.08,2025-03-07T00:25:02Z,-0.260713,-0.965211,0.038495,2025-03-07T00:25:01Z,-0.560123,0.107015,-0.350657,2025-03-07T00:25:01Z
15,247.187143,0.53,7.258975,44.9405,274.597143,180.465073,4.748652,4.029364,-93.177279,10.95,2025-03-07T00:25:03Z,-0.23784,-0.965963,0.031254,2025-03-07T00:25:02Z,-0.361929,0.11375,-0.352848,2025-03-07T00:25:02Z
16,247.364145,0.308016,7.258975,44.940401,274.774145,179.867538,4.748652,4.029364,-93.177272,10.99,2025-03-07T00:25:04Z,-0.242837,-0.972904,0.025066,2025-03-07T00:25:03Z,-0.388427,0.040433,-0.369478,2025-03-07T00:25:03Z
17,247.307383,0.308016,7.258975,44.9403,274.717382,179.867538,4.748652,4.029364,-93.17727,10.95,2025-03-07T00:25:05Z,-0.24197,-0.970564,0.018807,2025-03-07T00:25:04Z,-0.384876,0.067051,-0.390384,2025-03-07T00:25:04Z
18,247.494699,1.42,10.546327,44.940202,274.904699,179.867538,4.748652,4.029364,-93.177268,10.91,2025-03-07T00:25:06Z,-0.243758,-0.969316,0.009654,2025-03-07T00:25:05Z,-0.407029,0.092956,-0.385001,2025-03-07T00:25:05Z
19,247.93696,2.18,16.19084,44.940098,275.34696,179.867538,4.748652,4.029364,-93.177279,10.91,2025-03-07T00:25:07Z,-0.226745,-0.927368,0.00909,2025-03-07T00:25:06Z,-0.007118,0.442365,-0.229864,2025-03-07T00:25:06Z
20,248.926032,1.32,11.805472,44.940038,276.336032,180.188156,4.748652,4.029364,-93.177275,9.06,2025-03-07T00:25:08Z,-0.247868,-0.98577,0.037553,2025-03-07T00:25:07Z,-0.231178,-0.107491,-0.105472,2025-03-07T00:25:07Z
21,249.061473,0.57,7.258975,44.939905,276.471473,180.188156,4.748652,4.029364,-93.177267,11.77,2025-03-07T00:25:09Z,-0.247057,-0.975768,0.039076,2025-03-07T00:25:08Z,-0.296421,-0.041573,-0.239856,2025-03-07T00:25:08Z
22,249.130198,0.42,7.258975,44.939807,276.540197,180,4.748652,4.029364,-93.177269,11,2025-03-07T00:25:10Z,-0.233699,-0.97164,0.035338,2025-03-07T00:25:09Z,-0.10192,0.019984,-0.267189,2025-03-07T00:25:09Z
23,248.772043,1.56,11.49131,44.93971,276.182043,176.132819,4.748652,4.029364,-93.177248,11,2025-03-07T00:25:11Z,-0.230509,-0.971675,0.033607,2025-03-07T00:25:10Z,-0.114736,0.014221,-0.212323,2025-03-07T00:25:10Z
24,248.753061,0.89,7.258975,44.939607,276.163061,179.296876,4.748652,4.029364,-93.177258,11,2025-03-07T00:25:12Z,-0.233128,-0.972514,0.037606,2025-03-07T00:25:11Z,-0.119964,0.013273,-0.220958,2025-03-07T00:25:11Z
25,248.565684,0.37,7.258975,44.939506,275.975684,180.351562,4.748652,4.029364,-93.177264,11.21,2025-03-07T00:25:13Z,-0.215315,-0.971694,0.046008,2025-03-07T00:25:12Z,0.057847,0.012135,-0.204829,2025-03-07T00:25:12Z
26,248.645762,0.308016,7.258975,44.939402,276.055762,180.307236,4.748652,4.029364,-93.177268,11.41,2025-03-07T00:25:14Z,-0.21521,-0.970287,0.053078,2025-03-07T00:25:13Z,0.076689,0.020237,-0.116271,2025-03-07T00:25:13Z
27,248.816783,0.66,7.258975,44.939299,276.226783,180.307236,4.748652,4.029364,-93.177262,11.41,2025-03-07T00:25:15Z,-0.224711,-0.970123,0.05477,2025-03-07T00:25:14Z,0.021869,0.01789,-0.071003,2025-03-07T00:25:14Z
28,248.187571,1.87,13.279863,44.939198,275.597571,180.307236,4.748652,4.029364,-93.177268,11.41,2025-03-07T00:25:16Z,-0.233691,-0.979881,0.043934,2025-03-07T00:25:15Z,-0.134845,-0.06348,-0.099036,2025-03-07T00:25:15Z
29,248.187022,1.52,10.728508,44.939089,275.597022,180.307236,4.748652,4.029364,-93.177247,11.48,2025-03-07T00:25:17Z,-0.241846,-0.951246,0.029105,2025-03-07T00:25:16Z,-0.138524,0.211786,-0.173847,2025-03-07T00:25:16Z
30,248.186168,1.61,11.121555,44.938978,275.596168,180.307236,4.748652,4.029364,-93.177259,11.73,2025-03-07T00:25:18Z,-0.24637,-0.976875,0.062737,2025-03-07T00:25:17Z,-0.127882,-0.053577,0.043275,2025-03-07T00:25:17Z
31,248.454847,0.53,7.258975,44.938854,275.864846,180.290619,4.748652,4.029364,-93.177263,12.65,2025-03-07T00:25:19Z,-0.236207,-0.963736,0.043731,2025-03-07T00:25:18Z,-0.116592,0.089456,-0.091977,2025-03-07T00:25:18Z
32,248.714978,0.308016,7.258975,44.938741,276.124978,180.290619,4.748652,4.029364,-93.177265,12.55,2025-03-07T00:25:20Z,-0.236215,-0.968971,0.03716,2025-03-07T00:25:19Z,-0.084534,0.03564,-0.171747,2025-03-07T00:25:19Z
33,251.014808,1.47853,10.788043,44.938631,278.424808,180.290619,3.543376,3,-93.177267,11.105189,2025-03-07T00:25:21Z,-0.242268,-0.965787,0.04791,2025-03-07T00:25:20Z,-0.107908,0.056595,-0.115885,2025-03-07T00:25:20Z
34,251.221619,1.371329,9.151946,44.938514,278.631619,180.290619,2.213485,3,-93.177255,12.141033,2025-03-07T00:25:22Z,-0.234548,-0.9711,0.044158,2025-03-07T00:25:21Z,-0.055004,-0.002888,-0.096666,2025-03-07T00:25:21Z
35,251.324795,1.281208,8.293151,44.938399,278.734795,180.290619,2.106742,3,-93.177253,12.518339,2025-03-07T00:25:23Z,-0.239364,-0.9634,0.051351,2025-03-07T00:25:22Z,-0.098481,0.085876,-0.045077,2025-03-07T00:25:22Z
36,251.609509,1.277169,8.143772,44.938278,279.019509,180,2.276278,3,-93.177255,12.70721,2025-03-07T00:25:24Z,-0.245768,-0.964342,0.045853,2025-03-07T00:25:23Z,-0.143385,0.07593,-0.062977,2025-03-07T00:25:23Z
37,251.772052,1.276134,8.142576,44.938163,279.182052,180,3.07216,3,-93.177249,12.698864,2025-03-07T00:25:25Z,-0.248928,-0.9647,0.04522,2025-03-07T00:25:24Z,-0.157695,0.05404,-0.123186,2025-03-07T00:25:24Z
38,251.932059,1.274274,8.10151,44.938047,279.342058,180,2.578357,3,-93.177246,12.744434,2025-03-07T00:25:26Z,-0.251139,-0.981056,0.049619,2025-03-07T00:25:25Z,-0.213407,-0.092354,-0.113298,2025-03-07T00:25:25Z
39,252.11151,1.276112,8.100808,44.937932000000004,279.52151,180,2.2931,3,-93.177241,12.763898,2025-03-07T00:25:27Z,-0.243646,-0.945766,0.024862,2025-03-07T00:25:26Z,-0.149162,0.261839,-0.160042,2025-03-07T00:25:26Z
40,252.365096,1.274372,8.068579,44.937816,279.775096,180,2.603017,3,-93.17724,12.797063,2025-03-07T00:25:28Z,-0.254645,-0.966449,0.040833,2025-03-07T00:25:27Z,-0.088888,0.018422,-0.110526,2025-03-07T00:25:27Z
41,252.524812,1.277727,8.358025,44.937705,279.934812,180.258347,2.622329,3,-93.177245,12.386877,2025-03-07T00:25:29Z,-0.241235,-0.970383,0.058313,2025-03-07T00:25:28Z,-0.037705,-0.010371,0.005301,2025-03-07T00:25:28Z
42,252.610452,0.717016,7.258443,44.937593,280.020452,180.258347,2.316273,3,-93.177254,12.228388,2025-03-07T00:25:30Z,-0.232181,-0.966158,0.043033,2025-03-07T00:25:29Z,0.061545,0.037758,-0.112682,2025-03-07T00:25:29Z
43,253.071238,0.710556,7.257455,44.937474,280.481238,180.258347,2.413211,3,-93.177253,12.64513,2025-03-07T00:25:31Z,-0.241893,-0.965778,0.050435,2025-03-07T00:25:30Z,-0.030072,0.027194,-0.070979,2025-03-07T00:25:30Z
44,252.869462,0.704568,7.258938,44.937358,280.279462,180.129593,2.611213,3,-93.17725,12.790619,2025-03-07T00:25:32Z,-0.247889,-0.966574,0.047108,2025-03-07T00:25:31Z,-0.070689,0.028099,-0.024493,2025-03-07T00:25:31Z
45,252.408145,0.683764,7.257778,44.937242,279.818145,180.129593,2.713547,3,-93.177254,12.922173,2025-03-07T00:25:33Z,-0.256578,-0.961993,0.039562,2025-03-07T00:25:32Z,-0.175126,0.078249,-0.06977,2025-03-07T00:25:32Z
46,253.006671,0.685551,7.2582700000000004,44.937123,280.416671,180.129593,2.354699,3,-93.177256,13.123252,2025-03-07T00:25:34Z,-0.261841,-0.958621,0.046722,2025-03-07T00:25:33Z,-0.222771,0.112882,-0.034181,2025-03-07T00:25:33Z
47,252.640904,0.687005,7.258917,44.93701,280.050904,180.129593,2.242365,3,-93.177255,12.990847,2025-03-07T00:25:35Z,-0.251563,-0.955686,0.022048,2025-03-07T00:25:34Z,-0.068642,0.124591,-0.079341,2025-03-07T00:25:34Z
48,252.701918,0.696126,7.258949,44.9369,280.111918,180,2.122929,3,-93.177257,12.589211,2025-03-07T00:25:36Z,-0.247431,-0.980082,0.042845,2025-03-07T00:25:35Z,-0.024772,-0.103398,-0.007214,2025-03-07T00:25:35Z
49,252.846354,0.688287,7.258788,44.936787,280.256354,180,2.062337,3,-93.177259,12.391713,2025-03-07T00:25:37Z,-0.236481,-0.966836,0.03893,2025-03-07T00:25:36Z,0.034073,0.017704,-0.044512,2025-03-07T00:25:36Z
50,252.71112,0.681571,7.258901,44.936671,280.12112,180,2.277655,3,-93.177256,12.607339,2025-03-07T00:25:38Z,-0.23702,-0.96428,0.032786,2025-03-07T00:25:37Z,0.046005,0.056008,-0.06254,2025-03-07T00:25:37Z
51,252.768817,0.718177,7.258927,44.936557,280.178817,180,2.141213,3,-93.177257,12.553145,2025-03-07T00:25:39Z,-0.254983,-0.976686,0.025657,2025-03-07T00:25:38Z,-0.203844,-0.054939,-0.084371,2025-03-07T00:25:38Z
52,252.695586,0.683266,7.258911,44.936439,280.105585,180.115829,2.070984,3,-93.177258,12.886141,2025-03-07T00:25:40Z,-0.270099,-0.94254,0.031539,2025-03-07T00:25:39Z,-0.280722,0.258802,-0.020185,2025-03-07T00:25:39Z
53,253.13812,0.865057,7.257633,44.936325,280.54812,180.115829,2.172942,3,-93.177262,12.88758,2025-03-07T00:25:41Z,-0.24554,-0.977608,0.028206,2025-03-07T00:25:40Z,-0.101779,-0.05132,-0.054257,2025-03-07T00:25:40Z
54,252.88739,0.713829,7.258966,44.936215,280.29739,180.115829,2.541556,3,-93.177262,12.644627,2025-03-07T00:25:42Z,-0.252657,-0.968411,0.020041,2025-03-07T00:25:41Z,-0.143098,0.02345,-0.082749,2025-03-07T00:25:41Z
55,253.1572,0.691567,7.258309,44.936106,280.5672,180.115829,2.456602,3,-93.177258,12.182797,2025-03-07T00:25:43Z,-0.235756,-0.943053,0.018751,2025-03-07T00:25:42Z,0.120658,0.236466,-0.141283,2025-03-07T00:25:42Z
56,253.343497,0.690459,7.258705,44.935993,280.753497,180,2.550714,3,-93.177255,12.206674,2025-03-07T00:25:43Z,-0.261611,-0.990865,0.048767,2025-03-07T00:25:43Z,-0.10602,-0.215644,-0.02031,2025-03-07T00:25:43Z
57,253.156061,0.695222,7.25895,44.93588,280.566061,180,2.489357,3,-93.177258,12.292836,2025-03-07T00:25:44Z,-0.242014,-0.965236,0.027318,2025-03-07T00:25:44Z,-0.049224,0.051786,-0.037038,2025-03-07T00:25:44Z
58,252.824721,0.724098,7.258123,44.935769,280.234721,180,2.830207,3,-93.177264,12.374449,2025-03-07T00:25:45Z,-0.25711,-0.962708,0.027951,2025-03-07T00:25:45Z,-0.141492,0.067049,-0.002315,2025-03-07T00:25:45Z
59,252.965656,0.705135,7.258891,44.935658,280.375656,180,2.630388,3,-93.177261,12.384894,2025-03-07T00:25:46Z,-0.256262,-0.964124,0.027229,2025-03-07T00:25:46Z,-0.151926,0.051353,-8.68e-4,2025-03-07T00:25:46Z
60,253.146869,0.688445,7.258972,44.935547,280.556869,180,2.340593,3,-93.177268,12.370742,2025-03-07T00:25:47Z,-0.262744,-0.959075,0.029153,2025-03-07T00:25:47Z,-0.200556,0.117233,0.003977,2025-03-07T00:25:47Z
61,252.934669,0.685125,7.258638,44.935439,280.344669,180,2.175923,3,-93.177267,12.149497,2025-03-07T00:25:48Z,-0.269736,-0.961562,0.021595,2025-03-07T00:25:48Z,-0.266665,0.075453,-0.069799,2025-03-07T00:25:48Z
62,252.895549,0.681351,7.258774,44.935336,280.305549,180,2.092945,3,-93.177264,11.765931,2025-03-07T00:25:49Z,-0.274451,-0.967709,0.025395,2025-03-07T00:25:49Z,-0.32621,0.024367,-0.06494,2025-03-07T00:25:49Z
63,253.175231,0.678842,7.258668,44.935235,280.585231,180,2.049576,3,-93.177263,11.364681,2025-03-07T00:25:50Z,-0.260895,-0.944128,0.012058,2025-03-07T00:25:50Z,-0.172236,0.245241,-0.109813,2025-03-07T00:25:50Z
64,253.250447,0.685948,7.258867,44.935134,280.660446,180.247803,2.026669,3,-93.177267,11.230991,2025-03-07T00:25:51Z,-0.273832,-0.962861,0.024353,2025-03-07T00:25:51Z,-0.148726,0.030344,-0.08942,2025-03-07T00:25:51Z
65,252.96523,0.677502,7.256648,44.935039,280.37523,180.247803,2.01456,3,-93.177271,10.738983,2025-03-07T00:25:52Z,-0.284853,-0.963832,0.02374,2025-03-07T00:25:52Z,-0.312632,0.027308,-0.105592,2025-03-07T00:25:52Z
66,253.424959,0.679334,7.258316,44.934942,280.834959,180.247803,2.008012,3,-93.17726,10.626934,2025-03-07T00:25:53Z,-0.300432,-0.945929,0.040904,2025-03-07T00:25:53Z,-0.435962,0.203957,0.072437,2025-03-07T00:25:53Z
67,253.989181,0.680705,7.256272,44.934844,281.399181,180.247803,2.00441,3,-93.177258,10.700933,2025-03-07T00:25:54Z,-0.336203,-0.947165,0.036703,2025-03-07T00:25:54Z,-0.780149,0.179179,0.045982,2025-03-07T00:25:54Z
68,253.770126,0.675096,7.258887,44.934762,281.180126,180.247803,2.002515,3,-93.177254,9.835203,2025-03-07T00:25:55Z,-0.355876,-0.941255,0.018415,2025-03-07T00:25:55Z,-0.949338,0.240184,-0.096191,2025-03-07T00:25:55Z
69,253.508126,0.671854,7.258635,44.934688,280.918126,180.247803,2.136508,3,-93.177245,8.832432,2025-03-07T00:25:56Z,-0.363907,-0.934066,-0.01356,2025-03-07T00:25:56Z,-0.997107,0.294781,-0.36438,2025-03-07T00:25:56Z
70,253.850955,0.68508,7.322849,44.934623,281.260954,180.247803,2.303358,3,-93.177235,7.582998,2025-03-07T00:25:57Z,-0.336294,-0.945472,-0.012875,2025-03-07T00:25:57Z,-0.660673,0.174993,-0.301338,2025-03-07T00:25:57Z
71,254.163126,0.678205,8.778521,44.934569,281.573126,180.247803,2.267033,3,-93.177234,6.255829,2025-03-07T00:25:58Z,-0.311932,-0.95193,-0.011032,2025-03-07T00:25:58Z,-0.377785,0.097625,-0.214875,2025-03-07T00:25:58Z
72,254.119405,0.694932,10.606058,44.934523,281.529405,180.247803,2.231632,3,-93.177233,5.309239,2025-03-07T00:25:59Z,-0.312656,-0.951683,-0.01403,2025-03-07T00:25:59Z,-0.368902,0.09237,-0.186537,2025-03-07T00:25:59Z
73,254.581588,0.665243,11.483038,44.934481,281.991588,180.247803,2.318786,3,-93.177229,4.659784,2025-03-07T00:26:00Z,-0.35995,-0.93931,-0.029508,2025-03-07T00:26:00Z,-0.802593,0.206615,-0.263635,2025-03-07T00:26:00Z
74,254.114143,0.662561,14.088415,44.93445,281.524143,180.247803,2.489714,3,-93.177228,3.783784,2025-03-07T00:26:01Z,-0.324945,-0.946184,-0.017626,2025-03-07T00:26:01Z,-0.410956,0.126557,-0.119946,2025-03-07T00:26:01Z
75,254.471224,0.689512,20.010111,44.934427,281.881224,180.247803,2.513204,3,-93.177224,2.737085,2025-03-07T00:26:02Z,-0.263338,-0.963519,-0.006803,2025-03-07T00:26:02Z,0.226573,-0.052969,0.021594,2025-03-07T00:26:02Z
