seconds_elapsed,location_altitude,location_speedAccuracy,location_bearingAccuracy,location_latitude,location_altitudeAboveMeanSeaLevel,location_bearing,location_horizontalAccuracy,location_verticalAccuracy,location_longitude,location_speed,location_local_time,accelerometerUncalibrated_z,accelerometerUncalibrated_y,accelerometerUncalibrated_x,accelerometerUncalibrated_local_time,accelerometer_z,accelerometer_y,accelerometer_x,accelerometer_local_time
0,262.454531,0.694015,11.413836,44.934308,289.864531,188.482103,2.122964,3,-93.167139,4.928496,2025-03-07T00:49:03Z,-0.241836,-0.970806,-0.18285,2025-03-07T00:49:03Z,0.276468,-0.087289,-1.779381,2025-03-07T00:49:03Z
1,262.627176,0.690374,12.255917,44.934274,290.037175,201.192604,2.112717,3,-93.167163,4.567444,2025-03-07T00:49:04Z,-0.191487,-0.982588,-0.166726,2025-03-07T00:49:04Z,0.518428,-0.133948,-1.247046,2025-03-07T00:49:04Z
2,262.57596,0.65601,11.678165,44.93426,289.98596,236.500497,2.104047,3,-93.167227,4.551221,2025-03-07T00:49:05Z,-0.112869,-0.998328,-0.085297,2025-03-07T00:49:05Z,1.000503,-0.231213,-0.28922,2025-03-07T00:49:05Z
3,262.523686,0.663562,10.799128,44.934258,289.933686,259.272377,2.096615,3,-93.167295,4.973794,2025-03-07T00:49:06Z,-0.128706,-1.000654,-0.050671,2025-03-07T00:49:06Z,0.676296,-0.211893,-0.034024,2025-03-07T00:49:06Z
4,262.610081,0.661814,8.490083,44.934276,290.020081,270.332489,2.138602,3,-93.167387,6.317781,2025-03-07T00:49:07Z,-0.147415,-0.990339,0.020676,2025-03-07T00:49:07Z,0.381843,-0.08566,0.596062,2025-03-07T00:49:07Z
5,262.220203,0.646303,7.257783,44.934277,289.630203,270.332489,2.122423,3,-93.167489,7.428035,2025-03-07T00:49:08Z,-0.155696,-0.988338,0.020814,2025-03-07T00:49:08Z,0.264569,-0.062414,0.538608,2025-03-07T00:49:08Z
6,262.226817,0.650104,7.258556,44.934277,289.636817,270.332489,2.097542,3,-93.167602,8.443461,2025-03-07T00:49:09Z,-0.179626,-0.984584,0.025355,2025-03-07T00:49:09Z,0.014283,-0.009425,0.518979,2025-03-07T00:49:09Z
7,262.076317,0.651957,7.258416,44.934278,289.486317,270.332489,2.302215,3,-93.167725,9.30863,2025-03-07T00:49:10Z,-0.179749,-0.979271,0.016462,2025-03-07T00:49:10Z,-0.027167,0.048226,0.41188,2025-03-07T00:49:10Z
8,261.962875,0.648592,7.258563,44.934278,289.372875,270.332489,2.264182,3,-93.167854,9.898733,2025-03-07T00:49:11Z,-0.190284,-0.984863,0.016284,2025-03-07T00:49:11Z,-0.130273,-0.010827,0.37194,2025-03-07T00:49:11Z
9,261.994907,0.667366,7.258947,44.934264,289.404906,270.332489,2.158771,3,-93.167992,10.541659,2025-03-07T00:49:12Z,-0.212007,-0.97447,0.019063,2025-03-07T00:49:12Z,-0.365525,0.09926,0.309411,2025-03-07T00:49:12Z
10,261.663678,0.644362,7.258604,44.934271,289.073678,270.332489,2.091274,3,-93.168136,11.014948,2025-03-07T00:49:13Z,-0.236612,-0.972878,0.009753,2025-03-07T00:49:13Z,-0.563818,0.109052,0.188483,2025-03-07T00:49:13Z
11,261.535406,0.644174,7.258742,44.934272,288.945406,270.332489,2.341174,3,-93.168281,11.219174,2025-03-07T00:49:14Z,-0.234995,-0.963497,0.024264,2025-03-07T00:49:14Z,-0.485964,0.193498,0.231429,2025-03-07T00:49:14Z
12,261.409716,0.654583,7.258643,44.934274,288.819716,270.332489,2.372703,3,-93.168428,11.439398,2025-03-07T00:49:15Z,-0.24568,-0.968834,0.004637,2025-03-07T00:49:15Z,-0.616774,0.125396,0.092382,2025-03-07T00:49:15Z
13,261.464873,0.653678,7.258975,44.934272,288.874873,270.313019,2.1989899999999998,3,-93.168576,11.52136,2025-03-07T00:49:16Z,-0.237378,-0.96332,0.044488,2025-03-07T00:49:16Z,-0.458163,0.191394,0.424091,2025-03-07T00:49:16Z
14,261.249815,0.651238,7.258687,44.934271,288.659815,270.313019,2.10635,3,-93.168723,11.564606,2025-03-07T00:49:17Z,-0.226988,-0.966869,0.026324,2025-03-07T00:49:17Z,-0.344895,0.136146,0.210652,2025-03-07T00:49:17Z
15,261.182942,0.651867,7.258806,44.934274,288.592942,270.313019,2.340049,3,-93.168873,11.655428,2025-03-07T00:49:18Z,-0.230987,-0.972499,0.01346,2025-03-07T00:49:18Z,-0.368156,0.088872,0.086147,2025-03-07T00:49:18Z
16,261.149763,0.652541,7.258903,44.934274,288.559763,270.313019,2.306097,3,-93.169022,11.728343,2025-03-07T00:49:19Z,-0.243001,-0.965311,0.005341,2025-03-07T00:49:19Z,-0.436899,0.14223,-0.021207,2025-03-07T00:49:19Z
17,261.233565,0.650219,7.258974,44.934273,288.643565,270.364532,2.161328,3,-93.169174,11.819142,2025-03-07T00:49:20Z,-0.246573,-0.971478,0.018137,2025-03-07T00:49:20Z,-0.430708,0.076447,0.041535999999999997,2025-03-07T00:49:20Z
18,260.985556,0.65136,7.258435,44.934273,288.395555,270.364532,2.08478,3,-93.169327,11.958007,2025-03-07T00:49:21Z,-0.247281,-0.965022,0.019605,2025-03-07T00:49:21Z,-0.418224,0.133318,0.051513,2025-03-07T00:49:21Z
19,261.006057,0.650826,7.258944,44.934273,288.416057,270.364532,2.044517,3,-93.169478,11.942811,2025-03-07T00:49:22Z,-0.245751,-0.975596,0.021739,2025-03-07T00:49:22Z,-0.390002,0.029725,0.082591,2025-03-07T00:49:22Z
20,260.83126,0.648046,7.258778,44.934275,288.24126,270.364532,2.023363,3,-93.169629,11.881273,2025-03-07T00:49:23Z,-0.246151,-0.952152,0.020518,2025-03-07T00:49:23Z,-0.373467,0.26156,0.203257,2025-03-07T00:49:23Z
21,260.854114,0.647511,7.258889,44.934277,288.264114,270.248383,2.012279,3,-93.169778,11.776345,2025-03-07T00:49:24Z,-0.24137,-0.962724,0.009412,2025-03-07T00:49:24Z,-0.208116,0.120832,0.080594,2025-03-07T00:49:24Z
22,260.866652,0.650282,7.25883,44.934275,288.276652,270.248383,2.006487,3,-93.169929,11.852088,2025-03-07T00:49:25Z,-0.237699,-0.96963,0.011691,2025-03-07T00:49:25Z,-0.182841,0.063515,0.071461,2025-03-07T00:49:25Z
23,260.312093,0.653583,7.255749,44.934272,287.722093,270.248383,2.003438,3,-93.170077,11.804049,2025-03-07T00:49:26Z,-0.236692,-0.968977,0.012518,2025-03-07T00:49:26Z,-0.125078,0.0505,0.076731,2025-03-07T00:49:26Z
24,260.401184,0.651925,7.25824,44.934274,287.811183,270.248383,2.30225,3,-93.170236,12.175428,2025-03-07T00:49:27Z,-0.231021,-0.961758,0.01614,2025-03-07T00:49:27Z,-0.034542,0.108073,0.136514,2025-03-07T00:49:27Z
25,260.175659,0.64867,7.257811,44.934276,287.585659,270.303314,2.186535,3,-93.170391,12.289219,2025-03-07T00:49:28Z,-0.230978,-0.976674,0.003011,2025-03-07T00:49:28Z,-0.061173,-0.015654,-0.010411,2025-03-07T00:49:28Z
26,260.102243,0.650861,7.258327,44.934274,287.512243,270.303314,2.096322,3,-93.170549,12.460624,2025-03-07T00:49:29Z,-0.243835,-0.97082,0.002956,2025-03-07T00:49:29Z,-0.188972,0.04564,-0.020145,2025-03-07T00:49:29Z
27,260.15769,0.654601,7.258828,44.934289,287.567689,270.303314,2.745179,3,-93.170715,12.726566,2025-03-07T00:49:30Z,-0.261935,-0.961214,0.011678,2025-03-07T00:49:30Z,-0.282072,0.09844,0.011843,2025-03-07T00:49:30Z
28,259.965414,0.654383,7.258684,44.934279,287.375414,270.303314,2.614819,3,-93.170875,12.651589,2025-03-07T00:49:31Z,-0.2624,-0.966165,0.018347,2025-03-07T00:49:31Z,-0.318812,0.069957,0.026734,2025-03-07T00:49:31Z
29,259.869254,0.649822,7.25894,44.934277,287.279254,270.303314,2.310331,3,-93.171037,12.657812,2025-03-07T00:49:32Z,-0.247658,-0.95909199999999994,-0.008717,2025-03-07T00:49:32Z,-0.170337,0.140442,-0.049356,2025-03-07T00:49:32Z
30,259.782407,0.652524,7.258916,44.934282,287.192407,270.288544,2.157926,3,-93.171197,12.608794,2025-03-07T00:49:33Z,-0.258182,-0.964338,1.9e-5,2025-03-07T00:49:33Z,-0.221079,0.073602,0.011617,2025-03-07T00:49:33Z
31,259.357229,0.6514,7.257788,44.934281,286.767229,270.288544,2.080002,3,-93.171358,12.635854,2025-03-07T00:49:34Z,-0.233419,-0.973039,0.003281,2025-03-07T00:49:34Z,0.042199,-0.019748,0.019799,2025-03-07T00:49:34Z
32,259.128076,0.650245,7.257737,44.934283,286.538076,270.288544,2.040709,3,-93.171518,12.660068,2025-03-07T00:49:35Z,-0.230787,-0.963983,0.019911,2025-03-07T00:49:35Z,0.084968,0.074636,0.130758,2025-03-07T00:49:35Z
33,258.87899,0.647222,7.257769,44.934286,286.28899,270.288544,2.029024,3,-93.171682,12.819104,2025-03-07T00:49:36Z,-0.234249,-0.973735,0.010125,2025-03-07T00:49:36Z,0.053768,-0.031289,0.088846,2025-03-07T00:49:36Z
34,258.449337,0.652376,7.256497,44.934284,285.859337,270.288544,2.014542,3,-93.17185,13.081658,2025-03-07T00:49:37Z,-0.223909,-0.965226,0.018365,2025-03-07T00:49:37Z,0.134069,0.055588,0.148811,2025-03-07T00:49:37Z
35,258.241776,0.649349,7.257641,44.934283,285.651775,270.288544,2.007174,3,-93.172023,13.447886,2025-03-07T00:49:38Z,-0.252854,-0.96795,0.016258,2025-03-07T00:49:38Z,-0.157447,0.056243,0.043681,2025-03-07T00:49:38Z
36,258.165688,0.646669,7.258351,44.934288,285.575687,270.310272,2.003503,3,-93.172196,13.566229,2025-03-07T00:49:39Z,-0.255858,-0.959307,-0.003545,2025-03-07T00:49:39Z,-0.128373,0.083994,-0.178226,2025-03-07T00:49:39Z
37,257.781155,0.77575,7.257462,44.934284,285.191155,270.310272,2.053737,3,-93.172358,13.026544,2025-03-07T00:49:40Z,-0.259914,-0.972669,-0.001615,2025-03-07T00:49:40Z,-0.184877,-0.02107,-0.097733,2025-03-07T00:49:40Z
38,257.513107,0.697581,7.257869,44.934288,284.923107,270.310272,2.50214,3,-93.172542000000007,13.653502,2025-03-07T00:49:41Z,-0.246515,-0.970305,0.009639,2025-03-07T00:49:41Z,-0.088016,0.013632,0.035794,2025-03-07T00:49:41Z
39,257.219723,0.664144,7.257757,44.934285,284.629723,270.310272,2.24323,3,-93.172715,13.683755,2025-03-07T00:49:42Z,-0.248228,-0.96148,0.015378,2025-03-07T00:49:42Z,-0.107415,0.096109,0.012665,2025-03-07T00:49:42Z
40,257.287358,0.674309,7.258783,44.93429,284.697358,270.310272,2.209459,3,-93.172888,13.639419,2025-03-07T00:49:43Z,-0.263057,-0.962412,0.016332,2025-03-07T00:49:43Z,-0.159325,0.06297,-0.003827,2025-03-07T00:49:43Z
41,256.8945,0.661788,7.257583,44.934285,284.3045,270.310272,2.510817,3,-93.173063,13.74975,2025-03-07T00:49:44Z,-0.257095,-0.966675,0.019988,2025-03-07T00:49:44Z,-0.122542,0.025546,-0.107242,2025-03-07T00:49:44Z
42,256.668478,0.664183,7.2578,44.934288,284.078478,270.310272,2.246337,3,-93.173237,13.749366,2025-03-07T00:49:46Z,-0.263379,-0.983623,0.032442,2025-03-07T00:49:45Z,-0.258385,-0.120526,-0.014466,2025-03-07T00:49:45Z
43,256.949233,0.659239,7.258962,44.934293,284.359232,270.231781,2.118596,3,-93.173409,13.606622,2025-03-07T00:49:47Z,-0.271518,-0.942147,0.019857,2025-03-07T00:49:46Z,-0.273385,0.265816,-0.062114,2025-03-07T00:49:46Z
44,256.658192,0.654727,7.258626,44.934288,284.068192,270.231781,2.057644,3,-93.173581,13.501106,2025-03-07T00:49:48Z,-0.264259,-0.96493,0.031131,2025-03-07T00:49:47Z,-0.185553,0.032895,-0.039292,2025-03-07T00:49:47Z
45,256.222334,0.662098,7.257893,44.934293,283.632334,270.231781,2.554861,3,-93.173748,13.330367,2025-03-07T00:49:49Z,-0.246875,-0.965789,0.025637,2025-03-07T00:49:48Z,-0.011983,0.034573,-0.056459,2025-03-07T00:49:48Z
46,256.185516,0.654632,7.258603,44.934293,283.595515,270.231781,2.274015,3,-93.173914,13.1765,2025-03-07T00:49:50Z,-0.24523,-0.966394,0.042482,2025-03-07T00:49:49Z,0.021513,0.016739,0.114481,2025-03-07T00:49:49Z
47,255.925604,0.650792,7.258261,44.934295,283.335604,270.231781,2.1351,3,-93.174082,13.188064,2025-03-07T00:49:51Z,-0.26645,-0.964572,0.038966,2025-03-07T00:49:50Z,-0.209609,0.040062,0.067329,2025-03-07T00:49:50Z
48,255.967159,0.655297,7.258941,44.934296,283.377159,270.231781,2.066075,3,-93.174257,13.459534,2025-03-07T00:49:52Z,-0.289184,-0.95652,0.019567,2025-03-07T00:49:51Z,-0.440122,0.130351,-0.066781,2025-03-07T00:49:51Z
49,255.705036,0.6573,7.258653,44.934295,283.115036,270.231781,2.223709,3,-93.174422,13.203258,2025-03-07T00:49:53Z,-0.281008,-0.964593,0.01066,2025-03-07T00:49:52Z,-0.36102,0.04809,-0.14042,2025-03-07T00:49:52Z
50,255.88208,0.651607,7.258972,44.934296,283.29208,270.231781,2.110552,3,-93.174584,12.779182,2025-03-07T00:49:54Z,-0.277771,-0.96756,-0.006532,2025-03-07T00:49:53Z,-0.325078,0.010067,-0.283442,2025-03-07T00:49:53Z
51,255.71994,0.655306,7.258842,44.934294,283.12994,270.408142,2.464409,3,-93.174741,12.408951,2025-03-07T00:49:55Z,-0.289256,-0.954688,0.024424,2025-03-07T00:49:54Z,-0.350524,0.121607,-0.054968,2025-03-07T00:49:54Z
52,255.739319,0.65527,7.258972,44.934294,283.149319,270.408142,2.239649,3,-93.174893,12.142378,2025-03-07T00:49:56Z,-0.273781,-0.954875,0.01403,2025-03-07T00:49:55Z,-0.213874,0.125997,-0.083597,2025-03-07T00:49:55Z
53,255.101318,0.746434,7.255944,44.934291,282.511318,270.408142,2.158039,3,-93.175035,11.527332,2025-03-07T00:49:57Z,-0.260151,-0.966782,-0.011016,2025-03-07T00:49:56Z,-0.077914,0.010212,-0.120242,2025-03-07T00:49:56Z
54,255.207478,0.682569,7.25829,44.934295,282.617478,270,2.532095,3,-93.17518,11.432755,2025-03-07T00:49:58Z,-0.266809,-0.952818,0.017023,2025-03-07T00:49:57Z,-0.145666,0.13806,0.077418,2025-03-07T00:49:57Z
55,255.508536,0.661455,7.258974,44.9343,282.918536,270,2.652795,3,-93.175321,11.218015,2025-03-07T00:49:59Z,-0.272413,-0.959222,0.014536,2025-03-07T00:49:58Z,-0.134656,0.071744,-0.008821,2025-03-07T00:49:58Z
56,255.77245,0.658875,7.258736,44.934296,283.182449,270.199402,2.356124,3,-93.175456,10.795048,2025-03-07T00:50:00Z,-0.278159,-0.96416,0.0234,2025-03-07T00:49:59Z,-0.189675,0.017055,0.057904,2025-03-07T00:49:59Z
57,255.5313,0.660852,7.258631,44.934297,282.9413,270.199402,2.196618,3,-93.175592,10.704191,2025-03-07T00:50:01Z,-0.278592,-0.955316,0.006671,2025-03-07T00:50:00Z,-0.186318,0.10086,-0.099332,2025-03-07T00:50:00Z
58,255.391534,0.653519,7.258479,44.934294,282.801534,270.199402,2.624738,3,-93.175724,10.495375,2025-03-07T00:50:01Z,-0.292854,-0.957113,0.002959,2025-03-07T00:50:01Z,-0.30173,0.075971,-0.126329,2025-03-07T00:50:01Z
59,255.287239,0.660137,7.258566,44.934291,282.697239,270.199402,2.472411,3,-93.17585,10.116862,2025-03-07T00:50:02Z,-0.287828,-0.954762,0.006532,2025-03-07T00:50:02Z,-0.248232,0.101073,-0.045684,2025-03-07T00:50:02Z
60,255.467481,0.65569,7.258974,44.934306,282.877481,270.199402,2.586211,3,-93.17597,9.60498,2025-03-07T00:50:03Z,-0.2791,-0.962565,0.004868,2025-03-07T00:50:03Z,-0.145204,0.013617,-0.073028,2025-03-07T00:50:03Z
61,255.519651,0.648895,7.258916,44.934292,282.929651,270.199402,2.342972,3,-93.176082,9.057299,2025-03-07T00:50:04Z,-0.277138,-0.956366,0.01368,2025-03-07T00:50:04Z,-0.100296,0.071471,-0.065622,2025-03-07T00:50:04Z
62,255.542928,0.650064,7.258967,44.93429,282.952928,270.358215,2.203736,3,-93.176194,8.815012,2025-03-07T00:50:05Z,-0.277798,-0.962451,0.013892,2025-03-07T00:50:05Z,-0.05838,-0.005932,-0.08394,2025-03-07T00:50:05Z
63,255.422065,0.653116,7.257918,44.934292,282.832065,270.358215,2.122295,3,-93.176301,8.55377,2025-03-07T00:50:06Z,-0.271463,-0.95762100000000006,0.015273,2025-03-07T00:50:06Z,-0.023962,0.05582,-0.029109,2025-03-07T00:50:06Z
64,255.722108,0.658431,7.258258,44.934292,283.132107,270.358215,2.081152,3,-93.176403,8.168179,2025-03-07T00:50:07Z,-0.287254,-0.958721,0.006963,2025-03-07T00:50:07Z,-0.189011,0.043422,-0.04294,2025-03-07T00:50:07Z
65,255.379906,0.65661,7.25696,44.934292,282.789906,270.358215,2.084631,3,-93.176506,8.053331,2025-03-07T00:50:08Z,-0.325871,-0.943585,0.004931,2025-03-07T00:50:08Z,-0.52787,0.192158,-0.122181,2025-03-07T00:50:08Z
66,255.256773,0.659499,7.256672,44.934295,282.666772,270.358215,2.057834,3,-93.176599,7.501781,2025-03-07T00:50:09Z,-0.361376,-0.943533,0.001787,2025-03-07T00:50:09Z,-0.815399,0.159014,-0.136035,2025-03-07T00:50:09Z
67,254.752474,0.733697,9.08886,44.934306,282.162474,270.358215,2.041115,3,-93.176674,6.461577,2025-03-07T00:50:10Z,-0.379351,-0.931144,-0.008783,2025-03-07T00:50:10Z,-0.953514,0.269983,-0.224177,2025-03-07T00:50:10Z
68,255.03024,0.664751,9.61577,44.934298,282.44024,270.358215,2.413806,3,-93.176743,5.598371,2025-03-07T00:50:11Z,-0.32199,-0.947901,-0.021919,2025-03-07T00:50:11Z,-0.302656,0.09087,-0.324695,2025-03-07T00:50:11Z
69,255.145643,0.672721,12.687402,44.934298,282.555643,270.358215,2.331045,3,-93.17679,4.294814,2025-03-07T00:50:12Z,-0.251426,-0.96673,-0.054633,2025-03-07T00:50:12Z,0.413665,-0.10401,-0.535113,2025-03-07T00:50:12Z
70,255.218621,0.674484,15.337649,44.934302,282.628621,273.700102,2.27587,3,-93.176829,3.564511,2025-03-07T00:50:13Z,-0.26046,-0.963241,0.042332,2025-03-07T00:50:13Z,0.334277,-0.077499,0.419229,2025-03-07T00:50:13Z
71,255.106033,0.660429,15.460841,44.934309,282.516033,279.452825,2.23646,3,-93.176871,3.460436,2025-03-07T00:50:14Z,-0.259019,-0.963553,0.050976,2025-03-07T00:50:14Z,0.339799,-0.076917,0.420911,2025-03-07T00:50:14Z
72,255.044011,0.675928,16.074821,44.934317,282.454011,281.767675,2.206903,3,-93.176914,3.407394,2025-03-07T00:50:15Z,-0.26584,-0.961113,0.063725,2025-03-07T00:50:15Z,0.269469,-0.051458,0.468947,2025-03-07T00:50:15Z
73,255.135631,2.413666,57.967865,44.934323,282.545631,280.649112,2.183914,3,-93.176957,3.364826,2025-03-07T00:50:16Z,-0.273325,-0.959824,0.045498,2025-03-07T00:50:16Z,0.143867,-0.022753,0.245979,2025-03-07T00:50:16Z
74,254.904103,2.529993,58.58256,44.934324,282.314103,277.483248,2.174541,3,-93.176999,3.276244,2025-03-07T00:50:17Z,-0.298354,-0.95471,0.036216,2025-03-07T00:50:17Z,-0.118696,0.030045,0.109117,2025-03-07T00:50:17Z
