seconds_elapsed,location_altitude,location_speedAccuracy,location_bearingAccuracy,location_latitude,location_altitudeAboveMeanSeaLevel,location_bearing,location_horizontalAccuracy,location_verticalAccuracy,location_longitude,location_speed,location_local_time,accelerometerUncalibrated_z,accelerometerUncalibrated_y,accelerometerUncalibrated_x,accelerometerUncalibrated_local_time,accelerometer_z,accelerometer_y,accelerometer_x,accelerometer_local_time
0,259.073682,-1,-1,44.941493,286.483681,-1,484.722026,3,-93.166835,-1,2025-03-07T00:42:10Z,-0.232429,-0.961231,-0.131489,2025-03-07T00:42:10Z,0.204459,0.060957,-1.162789,2025-03-07T00:42:10Z
1,256.9646,2.99,37.452588,44.941679,284.374599,151.171875,6.784499,8,-93.167136,4.78,2025-03-07T00:42:11Z,-0.1481,-0.978431,-0.060893,2025-03-07T00:42:11Z,1.023761,-0.137295,-0.271239,2025-03-07T00:42:11Z
2,260.124756,0.99,12.896376,44.941682,287.534756,270.292633,3.535534,3,-93.167292,4.78,2025-03-07T00:42:12Z,-0.164234,-0.982242,-0.045134,2025-03-07T00:42:12Z,1.017602,-0.172369,-0.012658,2025-03-07T00:42:12Z
3,259.352478,0.09,0.911619,44.941689,286.762478,274.21875,3.535534,3,-93.167369,4.97,2025-03-07T00:42:13Z,-0.226898,-0.980895,0.007458,2025-03-07T00:42:13Z,0.342726,-0.180052,0.459686,2025-03-07T00:42:13Z
4,259.495361,0.51,4.700592,44.941689,286.905361,273.515625,3.535534,3,-93.167463,7.1,2025-03-07T00:42:14Z,-0.228472,-0.961927,-0.026782,2025-03-07T00:42:14Z,0.239374,0.050834,0.230694,2025-03-07T00:42:14Z
5,259.148682,0.27,2.414678,44.94169,286.558681,268.59375,3.535534,3,-93.167562,7.38,2025-03-07T00:42:15Z,-0.220562,-0.983963,0.01631,2025-03-07T00:42:15Z,0.209347,-0.13529,0.44119,2025-03-07T00:42:15Z
6,258.697754,0.14,1.133425,44.941694,286.107754,268.945312,3.535534,3,-93.167663,7.38,2025-03-07T00:42:17Z,-0.23073,-0.964611,0.00825,2025-03-07T00:42:16Z,0.015987,0.072515,0.313125,2025-03-07T00:42:16Z
7,258.162537,0.18,1.495451,44.941693,285.572536,269.296875,3.535534,3,-93.167762,7.84,2025-03-07T00:42:18Z,-0.270322,-0.961159,-0.016797,2025-03-07T00:42:17Z,-0.389213,0.106097,0.186456,2025-03-07T00:42:17Z
8,257.302856,1.82,17.077882,44.941692,284.712856,270.351562,3.535534,3,-93.167856,6.88,2025-03-07T00:42:19Z,-0.2293,-0.968883,-0.013974,2025-03-07T00:42:18Z,-0.011479,0.063756,0.133063,2025-03-07T00:42:18Z
9,257.763916,2.16,16.964814,44.941693,285.173916,271.40625,3.535534,3,-93.167966,8.18,2025-03-07T00:42:20Z,-0.254955,-0.972867,-0.032274,2025-03-07T00:42:19Z,-0.30471,-0.002889,0.104989,2025-03-07T00:42:19Z
10,256.745239,2.09,15.474195,44.941674,284.155239,260.15625,3.535534,3,-93.168069,8.18,2025-03-07T00:42:21Z,-0.263492,-0.945376,-0.041154,2025-03-07T00:42:20Z,-0.336826,0.26385,-0.005649,2025-03-07T00:42:20Z
11,255.884033,0.8,6.460479,44.941683,283.294033,270,3.535534,3,-93.168175,8.18,2025-03-07T00:42:22Z,-0.273457,-0.9678,-0.014388,2025-03-07T00:42:21Z,-0.498152,0.088998,0.208441,2025-03-07T00:42:21Z
12,255.884038,0.8,7.924544,44.941683,283.294038,269.999927,4.748652,4.029364,-93.168279,8.18,2025-03-07T00:42:23Z,-0.30081,-0.945147,-0.008922,2025-03-07T00:42:22Z,-0.645783,0.205902,0.112828,2025-03-07T00:42:22Z
13,255.683843,0.308016,7.258975,44.941681,283.093843,269.296801,4.748652,4.029364,-93.168388,8.27,2025-03-07T00:42:24Z,-0.286136,-0.962721,-0.015364,2025-03-07T00:42:23Z,-0.46913,0.113817,0.09895,2025-03-07T00:42:23Z
14,255.576787,0.62,7.258975,44.94168,282.986787,269.296805,4.748652,4.029364,-93.168479,7.81,2025-03-07T00:42:25Z,-0.275139,-0.957056,-0.039635,2025-03-07T00:42:24Z,-0.351278,0.126723,-0.189336,2025-03-07T00:42:24Z
15,255.051091,0.308016,7.258975,44.941679,282.461091,269.648366,4.748652,4.029364,-93.168583,7.95,2025-03-07T00:42:26Z,-0.283183,-0.950909,-0.024908,2025-03-07T00:42:25Z,-0.469025,0.197369,-0.009464,2025-03-07T00:42:25Z
16,254.567144,0.308016,7.258975,44.941682,281.977143,271.406179,4.748652,4.029364,-93.168686,7.9,2025-03-07T00:42:27Z,-0.333204,-0.945017,-0.012689,2025-03-07T00:42:26Z,-0.79786,0.254147,0.011824,2025-03-07T00:42:26Z
17,254.505681,0.308016,7.258975,44.941681,281.915681,269.999929,4.748652,4.029364,-93.168783,7.9,2025-03-07T00:42:28Z,-0.355302,-0.948988,-0.04323,2025-03-07T00:42:27Z,-1.06931,0.174415,-0.194727,2025-03-07T00:42:27Z
18,254.711979,0.308016,7.258975,44.941683,282.121979,270.703061,4.748652,4.029364,-93.168855,7.2,2025-03-07T00:42:29Z,-0.369347,-0.928116,-0.036072,2025-03-07T00:42:28Z,-1.183379,0.388688,-0.142521,2025-03-07T00:42:28Z
19,254.604616,0.308016,7.258975,44.941678,282.014616,268.945266,4.748652,4.029364,-93.168903,5.16,2025-03-07T00:42:30Z,-0.371796,-0.933512,-0.053886,2025-03-07T00:42:29Z,-1.084743,0.305532,-0.183189,2025-03-07T00:42:29Z
20,254.186098,0.308016,7.258975,44.941682,281.596098,272.460891,4.748652,4.029364,-93.168963,5.16,2025-03-07T00:42:31Z,-0.412888,-0.923066,-0.064667,2025-03-07T00:42:30Z,-1.431502,0.385924,-0.273129,2025-03-07T00:42:30Z
21,254.183351,1.58,31.074026,44.94167,281.593351,263.320276,4.748652,4.029364,-93.169006,4.12,2025-03-07T00:42:32Z,-0.393629,-0.934762,-0.054081,2025-03-07T00:42:31Z,-1.070983,0.235776,-0.156881,2025-03-07T00:42:31Z
22,253.965089,1.91,58.828337,44.941676,281.375089,271.054651,4.748652,4.029364,-93.169019,4.03,2025-03-07T00:42:33Z,-0.282748,-0.952194,-0.043462,2025-03-07T00:42:32Z,0.022546,0.052462,0.00553,2025-03-07T00:42:32Z
23,254.475281,1.92,116.100487,44.94168,281.885281,271.054676,4.748652,4.029364,-93.168991,1.34,2025-03-07T00:42:34Z,-0.187659,-0.983212,-0.024451,2025-03-07T00:42:33Z,0.940826,-0.248709,0.21987400000000001,2025-03-07T00:42:33Z
24,254.229492,0.6,32.628915,44.941677,281.639492,261.210924,4.748652,4.029364,-93.169019,1.49,2025-03-07T00:42:35Z,-0.161452,-0.994261,-0.009839,2025-03-07T00:42:34Z,1.065531,-0.311168,0.337419,2025-03-07T00:42:34Z
25,254.044617,0.308016,11.608391,44.941684,281.454617,272.812481,4.748652,4.029364,-93.169058,2.15,2025-03-07T00:42:36Z,-0.172749,-0.983584,-0.030172,2025-03-07T00:42:35Z,0.785083,-0.17916,0.088165,2025-03-07T00:42:35Z
26,254.398499,0.72,27.135115,44.941684,281.808499,270.703106,4.748652,4.029364,-93.169095,2.15,2025-03-07T00:42:37Z,-0.171036,-0.993205,-0.00154,2025-03-07T00:42:36Z,0.8011,-0.2618,0.357633,2025-03-07T00:42:36Z
27,254.63501,0.308016,8.636,44.941684,282.04501,270.2341,4.748652,4.029364,-93.169144,2.89,2025-03-07T00:42:38Z,-0.147367,-0.976174,-0.015181,2025-03-07T00:42:37Z,1.019452,-0.081574,0.173756,2025-03-07T00:42:37Z
28,254.712892,0.308016,7.258975,44.941686,282.122892,269.648405,4.748652,4.029364,-93.169203,3.66,2025-03-07T00:42:39Z,-0.191157,-0.969648,-0.023427,2025-03-07T00:42:38Z,0.582849,-0.047113,0.101237,2025-03-07T00:42:38Z
29,254.729861,0.308016,7.258975,44.941685,282.13986,268.945266,4.748652,4.029364,-93.169283,5.17,2025-03-07T00:42:40Z,-0.210054,-0.964647,-0.009335,2025-03-07T00:42:39Z,0.585991,-0.011234,0.08196,2025-03-07T00:42:39Z
30,254.490725,0.308016,7.258975,44.941684,281.900725,271.054637,4.748652,4.029364,-93.169357,5.59,2025-03-07T00:42:41Z,-0.247045,-0.980151,-0.016585,2025-03-07T00:42:40Z,0.051455,-0.122799,2.49e-4,2025-03-07T00:42:40Z
31,254.584902,0.308016,7.258975,44.941684,281.994902,270.351512,4.748652,4.029364,-93.169429,5.59,2025-03-07T00:42:42Z,-0.248021,-0.967876,0.004877,2025-03-07T00:42:41Z,-0.024365,0.012244,0.207261,2025-03-07T00:42:41Z
32,255.900643,1.270012,18.131498,44.941682,283.310643,268.591881,2,3,-93.169488,5.673441,2025-03-07T00:42:43Z,-0.254892,-0.955402,-0.02431,2025-03-07T00:42:42Z,-0.137434,0.159207,0.039491,2025-03-07T00:42:42Z
33,255.889286,1.268755,18.134548,44.94168,283.299285,267.711669,3.214406,3,-93.169559,5.668509,2025-03-07T00:42:44Z,-0.255928,-0.960078,-0.048815,2025-03-07T00:42:43Z,-0.164309,0.09032,-0.100261,2025-03-07T00:42:43Z
34,255.918138,1.272817,18.539038,44.941679,283.328138,268.396823,3.316044,3,-93.169628,5.562973,2025-03-07T00:42:45Z,-0.225166,-0.976337,-0.038405,2025-03-07T00:42:44Z,0.13333,-0.043476,-0.003635,2025-03-07T00:42:44Z
35,256.0715,1.275809,18.812697,44.941682,283.481499,269.02978,3.366152,3,-93.169697,5.494807,2025-03-07T00:42:46Z,-0.221199,-0.973638,-0.039261,2025-03-07T00:42:45Z,0.184912,-0.02442,-0.067922,2025-03-07T00:42:45Z
36,256.14008,1.272961,17.864512,44.941678,283.55008,270.156483,3.337258,3,-93.169771,5.773514,2025-03-07T00:42:47Z,-0.217022,-0.967103,-0.025084,2025-03-07T00:42:46Z,0.232088,0.010381,0.063579,2025-03-07T00:42:46Z
37,255.979145,1.269055,16.774223,44.941683,283.389145,270.0816,3.468926,3,-93.169855,6.129814,2025-03-07T00:42:48Z,-0.221305,-0.973484,-0.034409,2025-03-07T00:42:47Z,0.069668,-0.008835,-0.065552,2025-03-07T00:42:47Z
38,255.848493,1.321217,26.664944,44.941682,283.258493,265.597529,3.540663,3,-93.169896,4.013968,2025-03-07T00:42:49Z,-0.23100299999999999,-0.963905,-0.014338,2025-03-07T00:42:48Z,0.045441,0.080416,0.029719,2025-03-07T00:42:48Z
39,255.726044,1.269911,15.872778,44.941686,283.136044,269.993693,3.261792,3,-93.170014,6.480282,2025-03-07T00:42:50Z,-0.236534,-0.977757,-0.019872,2025-03-07T00:42:49Z,0.025451,-0.06477,0.004818,2025-03-07T00:42:49Z
40,255.964915,1.269139,15.354573,44.941684,283.374914,269.838032,3.053742,3,-93.170104,6.697456,2025-03-07T00:42:51Z,-0.242204,-0.972418,-0.029118,2025-03-07T00:42:50Z,-0.146487,-0.005407,-0.042314,2025-03-07T00:42:50Z
41,255.765682,1.272503,15.096757,44.94169,283.175682,271.544476,2.899734,3,-93.170192,6.828829,2025-03-07T00:42:52Z,-0.264143,-0.960311,-0.038936,2025-03-07T00:42:51Z,-0.315388,0.147654,-0.071583,2025-03-07T00:42:51Z
42,256.179647,1.277044,15.387247,44.941683,283.589647,270.13382,2.766108,3,-93.170281,6.724218,2025-03-07T00:42:53Z,-0.279477,-0.956341,-0.030809,2025-03-07T00:42:52Z,-0.422066,0.127834,-0.013578,2025-03-07T00:42:52Z
43,256.007575,1.269485,16.028337,44.941686,283.417575,270.13382,2.600753,3,-93.170358,6.417666,2025-03-07T00:42:54Z,-0.276575,-0.955366,-0.024617,2025-03-07T00:42:53Z,-0.396456,0.168337,-0.131861,2025-03-07T00:42:53Z
44,255.695358,1.271439,21.389547,44.941676,283.105358,270.13382,2.707517,3,-93.170414,4.81445,2025-03-07T00:42:55Z,-0.273204,-0.961764,-0.01415,2025-03-07T00:42:54Z,-0.334396,0.092251,-0.024193,2025-03-07T00:42:54Z
45,253.619148,1.029487,15.342519,44.941686,281.029148,270.13382,2.687518,3,-93.170421,2.615307,2025-03-07T00:42:56Z,-0.272289,-0.955202,-0.036284,2025-03-07T00:42:55Z,-0.301995,0.147505,-0.093799,2025-03-07T00:42:55Z
46,254.482452,0.711363,9.69395,44.941685,281.892452,270.13382,2.733614,3,-93.170545,5.589796,2025-03-07T00:42:57Z,-0.284499,-0.971062,-0.058601,2025-03-07T00:42:56Z,-0.422518,-0.026144,-0.178099,2025-03-07T00:42:56Z
47,254.42788,0.672968,10.43924,44.941688,281.83788,270.13382,2.628812,3,-93.170603,5.107125,2025-03-07T00:42:58Z,-0.321973,-0.936932,-0.057625,2025-03-07T00:42:57Z,-0.768492,0.312658,-0.234928,2025-03-07T00:42:57Z
48,254.413311,0.689005,11.66323,44.941687,281.823311,270.13382,2.550211,3,-93.17066,4.713888,2025-03-07T00:42:59Z,-0.366654,-0.933396,-0.066283,2025-03-07T00:42:58Z,-1.183135,0.342595,-0.252628,2025-03-07T00:42:58Z
49,255.050267,0.694995,16.057644,44.941685,282.460267,270.13382,2.586249,3,-93.170693,3.3745,2025-03-07T00:43:00Z,-0.371763,-0.940885,-0.071549,2025-03-07T00:42:59Z,-1.107714,0.237286,-0.287347,2025-03-07T00:42:59Z
50,255.112721,0.729109,35.522568,44.941686,282.522721,270.13382,2.716708,3,-93.1707,1.507569,2025-03-07T00:43:01Z,-0.322078,-0.945769,-0.04946,2025-03-07T00:43:00Z,-0.534324,0.168757,-0.10283,2025-03-07T00:43:00Z
51,254.977133,0.851351,180,44.941686,282.387133,272.634277,2.743415,3,-93.1707,0.097441,2025-03-07T00:43:02Z,-0.196302,-0.981977,-0.016563,2025-03-07T00:43:01Z,0.650713,-0.172662,0.130469,2025-03-07T00:43:01Z
52,254.949113,0.731936,180,44.941693,282.359113,322.274101,2.72305,3,-93.170724,1.030356,2025-03-07T00:43:03Z,-0.069571,-1.012141,0.017675,2025-03-07T00:43:02Z,1.717376,-0.418334,0.39591,2025-03-07T00:43:02Z
53,254.660827,0.71656,27.752526,44.941688,282.070827,279.838129,2.80329,3,-93.170764,1.71818,2025-03-07T00:43:04Z,-0.139394,-0.994222,0.004508,2025-03-07T00:43:03Z,0.974688,-0.235081,0.20271,2025-03-07T00:43:03Z
54,254.656775,0.718349,14.170669,44.941682,282.066775,269.723407,2.810533,3,-93.170836,3.789286,2025-03-07T00:43:05Z,-0.131681,-0.980195,0.019734,2025-03-07T00:43:04Z,1.118981,-0.103256,0.231425,2025-03-07T00:43:04Z
55,254.759267,0.671445,11.145651,44.941682,282.169267,270.13382,2.80173,3,-93.170901,4.847514,2025-03-07T00:43:06Z,-0.158778,-0.99418,0.010268,2025-03-07T00:43:05Z,0.938021,-0.262154,0.168528,2025-03-07T00:43:05Z
56,255.12702,0.663299,9.225903,44.94168,282.53702,268.208369,2.775478,3,-93.170979,5.82522,2025-03-07T00:43:07Z,-0.202522,-0.980674,0.011276,2025-03-07T00:43:06Z,0.489838,-0.13518,0.151892,2025-03-07T00:43:06Z
57,254.939079,0.660819,8.5378520000000009,44.94168,282.349079,268.360908,2.865436,3,-93.171058,6.263046,2025-03-07T00:43:08Z,-0.221355,-0.960692,-0.023603,2025-03-07T00:43:07Z,0.149351,0.111116,-0.007675,2025-03-07T00:43:07Z
58,254.953417,0.654026,8.612772,44.941678,282.363417,268.531702,2.93659,3,-93.171134,6.146003,2025-03-07T00:43:08Z,-0.216816,-0.962853,-0.023855,2025-03-07T00:43:08Z,0.233384,0.061315,0.097764,2025-03-07T00:43:08Z
59,254.905704,0.658416,8.624647,44.941681,282.315704,271.482524,2.952086,3,-93.171214,6.184256,2025-03-07T00:43:09Z,-0.267961,-0.972389,-0.046825,2025-03-07T00:43:09Z,-0.377923,8.93e-4,-0.116627,2025-03-07T00:43:09Z
60,254.079588,0.798546,12.122226,44.941687,281.489588,270.11438,2.98336,3,-93.171273,5.217848,2025-03-07T00:43:10Z,-0.266704,-0.961844,-0.039286,2025-03-07T00:43:10Z,-0.325417,0.123142,-0.06661,2025-03-07T00:43:10Z
61,254.465801,0.669082,9.053681,44.941678,281.8758,270.11438,3.034238,3,-93.171367,5.951138,2025-03-07T00:43:11Z,-0.229967,-0.966049,-0.040049,2025-03-07T00:43:11Z,-0.042593,0.050032,-0.107172,2025-03-07T00:43:11Z
62,254.280739,0.672127,9.075245,44.941689,281.690739,270.11438,3.116465,3,-93.171443,5.983906,2025-03-07T00:43:12Z,-0.221422,-0.970088,-0.048269,2025-03-07T00:43:12Z,0.045812,0.035246,-0.093438,2025-03-07T00:43:12Z
63,254.374189,0.677185,9.088572,44.941686,281.784189,270.11438,3.018158,3,-93.171521,6.017367,2025-03-07T00:43:13Z,-0.243553,-0.970409,-0.035243,2025-03-07T00:43:13Z,-0.152076,0.031811,-0.065276,2025-03-07T00:43:13Z
64,254.228105,0.665759,8.789343,44.941687,281.638105,270.11438,2.97338,3,-93.171602,6.119638,2025-03-07T00:43:14Z,-0.253524,-0.967069,-0.035318,2025-03-07T00:43:14Z,-0.241479,0.062201,-0.013498,2025-03-07T00:43:14Z
65,254.491972,0.660612,9.018524,44.941682,281.901972,270.11438,2.871066,3,-93.171676,5.936255,2025-03-07T00:43:15Z,-0.256971,-0.956798,-0.029984,2025-03-07T00:43:15Z,-0.256453,0.155131,-0.074169,2025-03-07T00:43:15Z
66,254.258304,0.659586,9.545043,44.941685,281.668304,270.11438,2.791878,3,-93.171746,5.58941,2025-03-07T00:43:16Z,-0.276183,-0.967236,-0.032293,2025-03-07T00:43:16Z,-0.344784,0.025882,-0.092318,2025-03-07T00:43:16Z
67,254.35921,0.657502,10.10156,44.941685,281.76921,270.11438,2.746038,3,-93.171813,5.272248,2025-03-07T00:43:17Z,-0.215517,-0.968882,-0.029617,2025-03-07T00:43:17Z,0.221796,0.024598,0.00105,2025-03-07T00:43:17Z
68,254.124906,0.663365,9.596049,44.941691,281.534906,270.11438,2.690409,3,-93.171887,5.572474,2025-03-07T00:43:18Z,-0.248464,-0.969436,-0.010639,2025-03-07T00:43:18Z,-0.104294,0.015542,-0.053532,2025-03-07T00:43:18Z
69,254.088471,0.658904,9.308247,44.941688,281.498471,270.11438,2.641094,3,-93.171962,5.716012,2025-03-07T00:43:19Z,-0.267226,-0.957036,-0.005852,2025-03-07T00:43:19Z,-0.267796,0.145018,0.058268,2025-03-07T00:43:19Z
70,253.63813,0.805462,11.374892,44.941695,281.04813,270.11438,2.598354,3,-93.172031,5.640579,2025-03-07T00:43:20Z,-0.237919,-0.953593,0.005796,2025-03-07T00:43:20Z,0.061026,0.140229,0.219643,2025-03-07T00:43:20Z
71,254.242115,0.665136,9.628871,44.941681,281.652115,270.11438,2.684008,3,-93.172102,5.597043,2025-03-07T00:43:21Z,-0.237837,-0.983321,-0.052629,2025-03-07T00:43:21Z,0.084079,-0.144982,-0.140695,2025-03-07T00:43:21Z
72,254.208059,0.672219,9.608148,44.94168,281.618059,270.11438,2.648549,3,-93.172174,5.665426,2025-03-07T00:43:22Z,-0.242882,-0.9671,-0.037941,2025-03-07T00:43:22Z,-0.089215,0.035855,0.078372,2025-03-07T00:43:22Z
73,254.230007,0.664501,9.529674,44.941695,281.640007,270.130157,2.658146,3,-93.172247,5.647262,2025-03-07T00:43:23Z,-0.271623,-0.958899,-0.075556,2025-03-07T00:43:23Z,-0.41142,0.132292,-0.185807,2025-03-07T00:43:23Z
74,254.011008,0.668635,10.225587,44.941695,281.421007,270.130157,2.623507,3,-93.172313,5.267908,2025-03-07T00:43:24Z,-0.282149,-0.950333,-0.094438,2025-03-07T00:43:24Z,-0.437619,0.17718,-0.303551,2025-03-07T00:43:24Z
75,253.876684,0.669636,11.238411,44.941695,281.286684,270.130157,2.605314,3,-93.172372,4.801308,2025-03-07T00:43:25Z,-0.220899,-0.975456,-0.059457,2025-03-07T00:43:25Z,0.144284,-0.039433,-0.014751,2025-03-07T00:43:25Z
76,254.09524,0.665005,10.660466,44.94168,281.505239,270.130157,2.627151,3,-93.172438,5.054797,2025-03-07T00:43:26Z,-0.207431,-0.981826,-0.047108,2025-03-07T00:43:26Z,0.304625,-0.122615,0.056138,2025-03-07T00:43:26Z
77,253.965103,0.658399,9.971549,44.941681,281.375103,270.130157,2.595793,3,-93.172506,5.342138,2025-03-07T00:43:27Z,-0.182917,-0.971277,-0.049071,2025-03-07T00:43:27Z,0.451633,3.91e-4,0.077519,2025-03-07T00:43:27Z
78,254.258893,0.660509,9.191167,44.941682,281.668893,270.130157,2.566004,3,-93.172584,5.819956,2025-03-07T00:43:28Z,-0.195652,-0.979317,-0.060741,2025-03-07T00:43:28Z,0.372417,-0.090875,-0.011106,2025-03-07T00:43:28Z
79,254.178372,0.660661,8.840218,44.941688,281.588372,270.130157,2.537703,3,-93.172661,6.055925,2025-03-07T00:43:29Z,-0.245101,-0.969132,-0.057268,2025-03-07T00:43:29Z,-0.154841,0.04343,-0.029088,2025-03-07T00:43:29Z
80,253.978908,0.663512,8.789427,44.941689,281.388907,270.130157,2.540751,3,-93.17274,6.103365,2025-03-07T00:43:30Z,-0.244038,-0.948086,-0.045606,2025-03-07T00:43:30Z,-0.085041,0.211167,0.019381,2025-03-07T00:43:30Z
81,254.008427,0.679661,9.266624,44.941688,281.418427,270.130157,2.60239,3,-93.172815,5.9289,2025-03-07T00:43:31Z,-0.252569,-0.961926,-0.024419,2025-03-07T00:43:31Z,-0.174248,0.099196,0.042184,2025-03-07T00:43:31Z
82,253.735228,0.676622,9.439964,44.94169,281.145227,270.130157,2.564741,3,-93.172887,5.780862,2025-03-07T00:43:32Z,-0.216708,-0.980206,-0.047006,2025-03-07T00:43:32Z,0.235835,-0.118486,-0.209329,2025-03-07T00:43:32Z
83,254.027181,0.672483,8.867408,44.941694,281.43718,270.130157,2.540217,3,-93.172969,6.146654,2025-03-07T00:43:33Z,-0.226864,-0.972661,-0.017887,2025-03-07T00:43:33Z,0.074403,0.010699,-0.025805,2025-03-07T00:43:33Z
84,253.48288,0.764784,8.88392,44.941696,280.89288,270.130157,2.561802,3,-93.173065,6.873865,2025-03-07T00:43:34Z,-0.227697,-0.970862,-0.004963,2025-03-07T00:43:34Z,0.128775,-0.013984,-0.011737,2025-03-07T00:43:34Z
85,253.878602,0.678428,8.692621,44.941698,281.288602,270.130157,2.534942,3,-93.173134,6.321964,2025-03-07T00:43:35Z,-0.253991,-0.96697,0.015213,2025-03-07T00:43:35Z,-0.137592,0.045865,0.090976,2025-03-07T00:43:35Z
86,253.829199,0.665221,8.564509,44.9417,281.239199,270.130157,2.469844,3,-93.173216,6.29139,2025-03-07T00:43:36Z,-0.259162,-0.961839,0.009726,2025-03-07T00:43:36Z,-0.111779,0.072508,0.090551,2025-03-07T00:43:36Z
87,253.725942,0.660452,8.592279,44.941701,281.135941,270.130157,2.45138,3,-93.173296,6.225993,2025-03-07T00:43:37Z,-0.247365,-0.965693,0.007867,2025-03-07T00:43:37Z,-0.075717,0.059077,-0.077182,2025-03-07T00:43:37Z
88,253.750067,0.66414,8.573445,44.9417,281.160067,270.130157,2.42155,3,-93.173375,6.272266,2025-03-07T00:43:38Z,-0.230066,-0.967991,0.04642,2025-03-07T00:43:38Z,0.101468,0.012909,0.127353,2025-03-07T00:43:38Z
89,253.476571,0.661901,8.133636,44.941701,280.886571,271.15918,2.369096,3,-93.173461,6.584109,2025-03-07T00:43:39Z,-0.248352,-0.948477,0.050152,2025-03-07T00:43:39Z,0.074157,0.147434,0.052708,2025-03-07T00:43:39Z
90,253.119235,0.665759,8.079478,44.94171,280.52923500000003,271.15918,2.379923,3,-93.173545,6.655434,2025-03-07T00:43:40Z,-0.30089,-0.960529,0.013197,2025-03-07T00:43:40Z,-0.434243,0.079688,-0.103993,2025-03-07T00:43:40Z
91,252.845726,0.674049,8.88292,44.941708,280.255725,271.15918,2.381187,3,-93.173619,6.079785,2025-03-07T00:43:41Z,-0.308748,-0.953084,-0.005969,2025-03-07T00:43:41Z,-0.450537,0.099981,-0.189153,2025-03-07T00:43:41Z
92,252.842508,0.667148,9.429887,44.941708,280.252508,271.15918,2.458896,3,-93.173688,5.714384,2025-03-07T00:43:42Z,-0.296453,-0.956607,-0.004785,2025-03-07T00:43:42Z,-0.418668,0.110933,-0.192635,2025-03-07T00:43:42Z
93,252.690395,0.662696,10.064629,44.94171,280.100395,269.529907,2.401534,3,-93.173755,5.303812,2025-03-07T00:43:43Z,-0.306717,-0.946297,-0.013902,2025-03-07T00:43:43Z,-0.434958,0.172727,-0.301737,2025-03-07T00:43:43Z
94,252.943031,0.665529,11.097114,44.941709,280.353031,269.529907,2.356919,3,-93.173815,4.860355,2025-03-07T00:43:44Z,-0.296123,-0.967462,0.023974,2025-03-07T00:43:44Z,-0.324054,-0.019249,0.041434,2025-03-07T00:43:44Z
95,252.55816,0.67972,12.199303,44.941717,279.968159,269.529907,2.321227,3,-93.173871,4.48554,2025-03-07T00:43:45Z,-0.288268,-0.949741,0.031166,2025-03-07T00:43:45Z,-0.335107,0.171675,0.067787,2025-03-07T00:43:45Z
96,252.463761,0.679539,13.006493,44.941716,279.873761,268.270569,2.321631,3,-93.173924,4.171102,2025-03-07T00:43:46Z,-0.288716,-0.95873,0.017355,2025-03-07T00:43:46Z,-0.217492,0.04162,-0.057098,2025-03-07T00:43:46Z
97,252.514873,0.677351,13.11869,44.941708,279.924873,268.270569,2.294828,3,-93.173979,4.106538,2025-03-07T00:43:47Z,-0.289539,-0.953546,0.006357,2025-03-07T00:43:47Z,-0.257216,0.108094,-0.05281,2025-03-07T00:43:47Z
98,252.679551,0.683838,14.869302,44.941707,280.089551,268.270569,2.272149,3,-93.174025,3.72542,2025-03-07T00:43:48Z,-0.305963,-0.947413,0.014909,2025-03-07T00:43:48Z,-0.390907,0.163714,0.057192,2025-03-07T00:43:48Z
99,252.615939,0.675251,18.31941,44.941704,280.025938,261.262909,2.323555,3,-93.174058,2.984152,2025-03-07T00:43:49Z,-0.287714,-0.95736,0.009719,2025-03-07T00:43:49Z,-0.114663,0.038733,-0.012541,2025-03-07T00:43:49Z
100,252.667664,0.675537,20.756429,44.941702,280.077664,261.262909,2.367813,3,-93.174091,2.632393,2025-03-07T00:43:50Z,-0.338645,-0.942206,0.009313,2025-03-07T00:43:50Z,-0.575447,0.168865,-0.109315,2025-03-07T00:43:50Z
101,252.368489,0.729912,31.307418,44.9417,279.778489,261.262909,2.344825,3,-93.174106,1.661891,2025-03-07T00:43:51Z,-0.352058,-0.94467,-0.006356,2025-03-07T00:43:51Z,-0.692642,0.144907,-0.230673,2025-03-07T00:43:51Z
102,NA,NA,NA,NA,NA,NA,NA,NA,NA,NA,NA,-0.324199,-0.927566,0.011357,2025-03-07T00:43:52Z,-0.361288,0.276599,-0.142298,2025-03-07T00:43:52Z
