seconds_elapsed,location_altitude,location_speedAccuracy,location_bearingAccuracy,location_latitude,location_altitudeAboveMeanSeaLevel,location_bearing,location_horizontalAccuracy,location_verticalAccuracy,location_longitude,location_speed,location_local_time,accelerometerUncalibrated_z,accelerometerUncalibrated_y,accelerometerUncalibrated_x,accelerometerUncalibrated_local_time,accelerometer_z,accelerometer_y,accelerometer_x,accelerometer_local_time
0,251.35183,-1,-1,44.941243,278.761829,-1,123.77077,3,-93.176373,-1,2025-03-07T00:45:16Z,-0.252869,-0.960303,-0.003582,2025-03-07T00:45:16Z,-0.37748,0.129091,-0.30248,2025-03-07T00:45:16Z
1,255.713867,3.03,25.852261,44.941299,283.123867,86.835938,4.410637,4,-93.174217,7.96,2025-03-07T00:45:17Z,-0.314696,-0.948525,-0.003272,2025-03-07T00:45:17Z,-0.919769,0.287136,-0.016333,2025-03-07T00:45:17Z
2,256.422974,2,15.739447,44.941343,283.832973,63.984375,3.535534,3,-93.174124,7.96,2025-03-07T00:45:18Z,-0.270064,-0.938143,0.015173,2025-03-07T00:45:18Z,-0.469214,0.375167,0.296454,2025-03-07T00:45:18Z
3,254.72937,0.98,7.892077,44.941305,282.13937,94.570312,3.535534,3,-93.17405,7.37,2025-03-07T00:45:19Z,-0.26283,-0.969115,0.005536,2025-03-07T00:45:19Z,-0.269615,0.018959,0.154758,2025-03-07T00:45:19Z
4,252.966064,0.13,1.384625,44.941306,280.376064,92.624985,3.535534,3,-93.173979,6.22,2025-03-07T00:45:20Z,-0.234189,-0.966159,0.016241,2025-03-07T00:45:20Z,0.005297,0.057976,0.150739,2025-03-07T00:45:20Z
5,252.385803,0.12,1.256445,44.941304,279.795803,90,3.535534,3,-93.173902,6.45,2025-03-07T00:45:21Z,-0.193547,-0.990154,0.005783,2025-03-07T00:45:21Z,0.247577,-0.135012,0.133401,2025-03-07T00:45:21Z
6,252.927612,0.1,0.987589,44.941301,280.337612,90,3.535534,3,-93.173814,6.45,2025-03-07T00:45:23Z,-0.21298,-0.971421,3.27e-4,2025-03-07T00:45:22Z,0.107869,0.028279,0.108319,2025-03-07T00:45:22Z
7,252.472046,0.35,3.473726,44.941301,279.882046,90,3.535534,3,-93.173729,6.56,2025-03-07T00:45:24Z,-0.205898,-0.974162,-0.035885,2025-03-07T00:45:23Z,0.213624,-0.010802,-0.106163,2025-03-07T00:45:23Z
8,252.162109,0.22,2.187007,44.941302,279.572109,90,3.535534,3,-93.173643,6.66,2025-03-07T00:45:25Z,-0.23564,-0.973961,-0.011007,2025-03-07T00:45:24Z,-0.093156,-0.00623,0.080461,2025-03-07T00:45:24Z
9,252.762573,0.13,1.36385,44.941299,280.172573,90.43531,3.535534,3,-93.173558,6.66,2025-03-07T00:45:26Z,-0.206037,-0.980966,-0.046964,2025-03-07T00:45:25Z,0.180074,-0.054317,-0.290047,2025-03-07T00:45:25Z
10,252.698059,0.13,1.332444,44.941298,280.108059,90.43531,3.535534,3,-93.173475,6.51,2025-03-07T00:45:27Z,-0.220572,-0.961077,0.019408,2025-03-07T00:45:26Z,0.06272,0.123503,0.163185,2025-03-07T00:45:26Z
11,251.912964,1.88,19.284873,44.941291,279.322964,90.43531,3.535534,3,-93.173397,6.45,2025-03-07T00:45:28Z,-0.221679,-0.964672,-0.009279,2025-03-07T00:45:27Z,0.128202,0.067471,-0.169257,2025-03-07T00:45:27Z
12,252.597656,1.05,11.037288,44.941285,280.007656,90.43531,3.535534,3,-93.173318,6.27,2025-03-07T00:45:29Z,-0.235349,-0.976432,8.45e-4,2025-03-07T00:45:28Z,0.008283,-0.050372,-0.084316,2025-03-07T00:45:28Z
13,252.597659,1.05,13.56936,44.941284,280.007659,90.43531,4.748652,4.029364,-93.173238,6.27,2025-03-07T00:45:30Z,-0.253015,-0.963839,0.029229,2025-03-07T00:45:29Z,-0.146589,0.078938,0.104833,2025-03-07T00:45:29Z
14,252.430667,0.62,7.849633,44.941274,279.840667,90.43531,4.748652,4.029364,-93.173156,6.4,2025-03-07T00:45:31Z,-0.218647,-0.972109,0.047195,2025-03-07T00:45:30Z,0.198127,-0.016867,0.135774,2025-03-07T00:45:30Z
15,252.361026,0.308016,7.258975,44.941272,279.771026,90.43531,4.748652,4.029364,-93.173076,6.4,2025-03-07T00:45:32Z,-0.217175,-0.982598,0.024379,2025-03-07T00:45:31Z,0.176503,-0.128406,-0.114358,2025-03-07T00:45:31Z
16,252.321597,0.308016,7.258975,44.941268,279.731597,90.43531,4.748652,4.029364,-93.172995,6.4,2025-03-07T00:45:33Z,-0.250814,-0.944359,0.029681,2025-03-07T00:45:32Z,-0.180705,0.283006,0.005659,2025-03-07T00:45:32Z
17,252.571292,0.308016,7.258975,44.94126,279.981292,90.43531,4.748652,4.029364,-93.172912,6.51,2025-03-07T00:45:34Z,-0.246565,-0.964612,0.043318,2025-03-07T00:45:33Z,-0.074537,0.030948,0.073665,2025-03-07T00:45:33Z
18,252.661258,0.308016,7.258975,44.941265,280.071258,90.222748,4.748652,4.029364,-93.172837,6.51,2025-03-07T00:45:35Z,-0.199458,-0.969539,0.019286,2025-03-07T00:45:34Z,0.297133,0.053319,-0.046719,2025-03-07T00:45:34Z
19,252.36542,0.308016,7.258975,44.941266,279.77542,90.222748,4.748652,4.029364,-93.172767,6.05,2025-03-07T00:45:36Z,-0.221521,-0.980863,0.006703,2025-03-07T00:45:35Z,0.082919,-0.043417,-0.011196,2025-03-07T00:45:35Z
20,252.591129,1.19,15.329711,44.941264,280.001128,90.222748,4.748652,4.029364,-93.172684,6.29,2025-03-07T00:45:37Z,-0.22542,-0.970299,0.007743,2025-03-07T00:45:36Z,0.10905,-0.031443,-0.086561,2025-03-07T00:45:36Z
21,253.023563,0.76,9.790403,44.941264,280.433563,90.222748,4.748652,4.029364,-93.172603,6.29,2025-03-07T00:45:38Z,-0.189586,-0.976874,0.021537,2025-03-07T00:45:37Z,0.436194,-0.043259,0.029118,2025-03-07T00:45:37Z
22,253.29932,1.3,16.746742,44.941266,280.709319,90.222748,4.748652,4.029364,-93.172521,6.29,2025-03-07T00:45:39Z,-0.180846,-0.984674,0.0217,2025-03-07T00:45:38Z,0.539044,-0.128879,-0.019113,2025-03-07T00:45:38Z
23,252.676639,0.87,11.243185,44.941264,280.086639,90.222748,4.748652,4.029364,-93.172445,6.27,2025-03-07T00:45:40Z,-0.173146,-0.977537,0.018986,2025-03-07T00:45:39Z,0.52764200000000006,-0.036058,0.027435,2025-03-07T00:45:39Z
24,252.528202,1.79,20.80932,44.941279,279.938202,90.222748,4.748652,4.029364,-93.172349,6.97,2025-03-07T00:45:41Z,-0.221883,-0.981882,0.010152,2025-03-07T00:45:40Z,0.101071,-0.090209,-0.055278,2025-03-07T00:45:40Z
25,253.038213,1.13,11.044894,44.941263,280.448213,90.222748,4.748652,4.029364,-93.17223,8.29,2025-03-07T00:45:42Z,-0.221618,-0.967601,0.032073,2025-03-07T00:45:41Z,0.029827,0.067285,0.092231,2025-03-07T00:45:41Z
26,253.314824,0.81,8.4037210000000009,44.941268,280.724824,89.937492,4.748652,4.029364,-93.172134,7.81,2025-03-07T00:45:43Z,-0.218543,-0.971818,0.01109,2025-03-07T00:45:42Z,0.069875,0.021156,-0.036123,2025-03-07T00:45:42Z
27,253.405156,0.308016,7.258975,44.941266,280.815156,89.937492,4.748652,4.029364,-93.172032,7.91,2025-03-07T00:45:44Z,-0.213913,-0.970437,0.022619,2025-03-07T00:45:43Z,0.088197,0.039062,-0.0357,2025-03-07T00:45:43Z
28,253.526372,0.308016,7.258975,44.941266,280.936372,89.937492,4.748652,4.029364,-93.171931,7.91,2025-03-07T00:45:45Z,-0.196336,-0.982432,0.041548,2025-03-07T00:45:44Z,0.246064,-0.077326,0.090101,2025-03-07T00:45:44Z
29,253.523016,0.308016,7.258975,44.941267,280.933016,89.937492,4.748652,4.029364,-93.171822,8.28,2025-03-07T00:45:46Z,-0.188759,-0.980007,0.015106,2025-03-07T00:45:45Z,0.289882,-0.042257,0.008915,2025-03-07T00:45:45Z
30,253.309637,0.308016,7.258975,44.941277,280.719637,89.937492,4.748652,4.029364,-93.17171,8.67,2025-03-07T00:45:47Z,-0.194023,-0.976728,0.022683,2025-03-07T00:45:46Z,0.235425,-0.022772,0.078116,2025-03-07T00:45:46Z
31,253.287359,0.308016,7.258975,44.94127,280.697359,89.937492,4.748652,4.029364,-93.171595,8.67,2025-03-07T00:45:48Z,-0.193373,-0.979684,0.010973,2025-03-07T00:45:47Z,0.215987,-0.019158,-0.053576,2025-03-07T00:45:47Z
32,253.225043,0.54,7.258975,44.941276,280.635043,89.937492,4.748652,4.029364,-93.171474,9.03,2025-03-07T00:45:49Z,-0.255992,-0.963971,0.005818,2025-03-07T00:45:48Z,-0.384234,0.111939,-0.075405,2025-03-07T00:45:48Z
33,255.963481,1.156089,9.947616,44.941275,283.373481,89.937492,2,3,-93.171347,9.413826,2025-03-07T00:45:50Z,-0.265804,-0.967274,0.01861,2025-03-07T00:45:49Z,-0.450435,0.082279,-0.151664,2025-03-07T00:45:49Z
34,255.718639,1.26845,11.307669,44.941276,283.128639,89.937492,2,3,-93.171233,9.089468,2025-03-07T00:45:51Z,-0.27884,-0.951851,0.015628,2025-03-07T00:45:50Z,-0.582005,0.22371,-0.137255,2025-03-07T00:45:50Z
35,256.13959,1.271391,13.075214,44.941274,283.54959,89.937492,3.208449,3,-93.171147,7.875242,2025-03-07T00:45:52Z,-0.308353,-0.950631,0.007867,2025-03-07T00:45:51Z,-0.811451,0.237374,-0.169713,2025-03-07T00:45:51Z
36,256.751779,0.646461,7.258349,44.941269,284.161779,90,2,3,-93.171045,7.827382,2025-03-07T00:45:52Z,-0.300736,-0.958721,0.026104,2025-03-07T00:45:52Z,-0.695949,0.135528,-0.124281,2025-03-07T00:45:52Z
37,256.813833,0.642934,7.378766,44.94127,284.223833,90,2,3,-93.17096,7.057963,2025-03-07T00:45:53Z,-0.286876,-0.958999,0.021676,2025-03-07T00:45:53Z,-0.514126,0.118952,-0.156714,2025-03-07T00:45:53Z
38,256.918098,0.642824,8.205095,44.941269,284.328097,87.995911,2,3,-93.170882,6.347425,2025-03-07T00:45:54Z,-0.28441,-0.948612,0.003928,2025-03-07T00:45:54Z,-0.507088,0.232374,-0.217593,2025-03-07T00:45:54Z
39,256.811129,0.639242,8.77121,44.94127,284.221129,87.995911,2,3,-93.170806,5.904794,2025-03-07T00:45:55Z,-0.352568,-0.947858,-0.00269,2025-03-07T00:45:55Z,-1.132792,0.223751,-0.267883,2025-03-07T00:45:55Z
40,256.648205,0.647819,10.643379,44.941271,284.058205,87.995911,2,3,-93.170748,4.924289,2025-03-07T00:45:56Z,-0.322743,-0.95125,7.38e-4,2025-03-07T00:45:56Z,-0.862601,0.206558,-0.202044,2025-03-07T00:45:56Z
41,256.863509,0.645546,14.441063,44.941268,284.273509,87.995911,2,3,-93.17071,3.609094,2025-03-07T00:45:57Z,-0.330286,-0.947131,-0.014004,2025-03-07T00:45:57Z,-0.878656,0.22777,-0.266273,2025-03-07T00:45:57Z
42,256.721209,0.641078,21.188554,44.941269,284.131209,87.995911,2.030611,3,-93.170683,2.449406,2025-03-07T00:45:58Z,-0.321312,-0.942726,-0.009301,2025-03-07T00:45:58Z,-0.669536,0.239839,-0.195095,2025-03-07T00:45:58Z
43,255.955754,0.958594,36.22196,44.941269,283.365754,87.995911,2.152449,3,-93.170671,1.252656,2025-03-07T00:45:59Z,-0.260492,-0.964889,0.015495,2025-03-07T00:45:59Z,0.015975,-3.2e-5,0.033916,2025-03-07T00:45:59Z
44,256.270762,0.823751,45.205518,44.941271,283.680762,87.995911,2.152751,3,-93.170658,0.955723,2025-03-07T00:46:00Z,-0.184034,-0.982272,0.027012,2025-03-07T00:46:00Z,0.764045,-0.169175,0.153337,2025-03-07T00:46:00Z
45,256.425467,0.669739,35.195916,44.941271,283.835467,87.995911,2.19288,3,-93.170635,1.450502,2025-03-07T00:46:01Z,-0.139168,-0.9892,0.030826,2025-03-07T00:46:01Z,1.133329,-0.208333,0.21569,2025-03-07T00:46:01Z
46,256.475873,0.653322,24.832681,44.941272,283.885873,87.995911,2.27399,3,-93.170604,2.119708,2025-03-07T00:46:02Z,-0.200296,-0.980172,0.019711,2025-03-07T00:46:02Z,0.530885,-0.13972,0.202929,2025-03-07T00:46:02Z
47,256.225692,0.652439,19.980446,44.941274,283.635691,87.995911,2.252914,3,-93.170567,2.589959,2025-03-07T00:46:03Z,-0.171218,-0.98486,0.00527,2025-03-07T00:46:03Z,0.803041,-0.177071,0.17294,2025-03-07T00:46:03Z
48,256.006457,0.664752,17.001801,44.941275,283.416457,87.995911,2.292998,3,-93.170526,3.078083,2025-03-07T00:46:04Z,-0.185619,-0.978617,-6.02e-4,2025-03-07T00:46:04Z,0.717848,-0.123067,0.080056,2025-03-07T00:46:04Z
49,256.652758,0.65903,14.833693,44.941274,284.062758,89.496151,2.298257,3,-93.170478,3.535668,2025-03-07T00:46:05Z,-0.15991,-0.99278,0.015807,2025-03-07T00:46:05Z,0.840444,-0.219949,0.241924,2025-03-07T00:46:05Z
50,256.27423,0.654554,12.565682,44.941274,283.68423,90.085934,2.279616,3,-93.170422,4.201185,2025-03-07T00:46:06Z,-0.170886,-0.966393,0.017851,2025-03-07T00:46:06Z,0.807245,-0.004949,0.011708,2025-03-07T00:46:06Z
51,256.303099,0.640753,10.863982,44.941276,283.713099,89.413099,2.263168,3,-93.170358,4.773149,2025-03-07T00:46:07Z,-0.221791,-0.978462,0.040657,2025-03-07T00:46:07Z,0.302018,-0.103906,0.189468,2025-03-07T00:46:07Z
52,256.203004,0.651949,10.805941,44.941278,283.613004,88.319411,2.25317,3,-93.170295,4.887478,2025-03-07T00:46:08Z,-0.213724,-0.976187,0.013476,2025-03-07T00:46:08Z,0.149744,-0.027361,-0.030398,2025-03-07T00:46:08Z
53,256.347825,0.651022,10.787775,44.941268,283.757825,91.171265,2.257529,3,-93.170233,4.890046,2025-03-07T00:46:09Z,-0.216444,-0.971922,0.001344,2025-03-07T00:46:09Z,0.183934,-0.007558,-0.042144,2025-03-07T00:46:09Z
54,256.152428,0.671846,10.379407,44.94127,283.562427,91.171265,2.276084,3,-93.170162,5.237456,2025-03-07T00:46:10Z,-0.222796,-0.976043,-0.001516,2025-03-07T00:46:10Z,0.080295,-0.027656,-0.031529,2025-03-07T00:46:10Z
55,255.986778,0.655952,10.023808,44.94128,283.396778,86.474544,2.262279,3,-93.170095,5.289235,2025-03-07T00:46:11Z,-0.254249,-0.959789,-0.008284,2025-03-07T00:46:11Z,-0.288007,0.141843,-0.144965,2025-03-07T00:46:11Z
56,255.357157,0.669795,10.398168,44.941281,282.767157,87.431414,2.348545,3,-93.170031,5.032632,2025-03-07T00:46:12Z,-0.250492,-0.975245,0.011596,2025-03-07T00:46:12Z,-0.261971,-0.005439,-0.011686,2025-03-07T00:46:12Z
57,256.494326,0.660928,11.038973,44.941274,283.904326,92.900065,2.346252,3,-93.169969,4.814234,2025-03-07T00:46:13Z,-0.257489,-0.965068,-0.003977,2025-03-07T00:46:13Z,-0.282664,0.084552,-0.090301,2025-03-07T00:46:13Z
58,256.578711,0.666007,11.765665,44.941275,283.98871,92.64877,2.395313,3,-93.169911,4.562645,2025-03-07T00:46:14Z,-0.275947,-0.955948,-0.015574,2025-03-07T00:46:14Z,-0.522585,0.181293,-0.066882,2025-03-07T00:46:14Z
59,256.094843,0.658996,13.52368,44.94128,283.504843,89.337587,2.452333,3,-93.169865,3.925668,2025-03-07T00:46:15Z,-0.258339,-0.963445,-0.044357,2025-03-07T00:46:15Z,-0.33045,0.103444,-0.189765,2025-03-07T00:46:15Z
60,256.125187,0.653477,14.204659,44.941286,283.535187,86.689837,2.448906,3,-93.169818,3.705385,2025-03-07T00:46:16Z,-0.260692,-0.960083,-0.046969,2025-03-07T00:46:16Z,-0.336837,0.127199,-0.192952,2025-03-07T00:46:16Z
61,256.382336,0.657274,16.585403,44.941283,283.792336,90.532093,2.45874,3,-93.169778,3.19723,2025-03-07T00:46:17Z,-0.266181,-0.962598,-0.030016,2025-03-07T00:46:17Z,-0.408811,0.120368,-0.194433,2025-03-07T00:46:17Z
62,256.309178,0.664133,19.921774,44.941283,283.719178,91.272051,2.488951,3,-93.169745,2.697134,2025-03-07T00:46:18Z,-0.31479,-0.951635,-0.014204,2025-03-07T00:46:18Z,-0.778265,0.192215,-0.176657,2025-03-07T00:46:18Z
63,256.302965,0.793937,30.029525,44.941284,283.712964,90.731587,2.551278,3,-93.169717,2.13172,2025-03-07T00:46:19Z,-0.317797,-0.948417,-0.004043,2025-03-07T00:46:19Z,-0.804422,0.234612,-0.126684,2025-03-07T00:46:19Z
64,256.699611,0.782316,54.397277,44.94128,284.109611,93.107164,2.523714,3,-93.169713,0.960942,2025-03-07T00:46:20Z,-0.272399,-0.962374,-0.009345,2025-03-07T00:46:20Z,-0.366821,0.088644,-0.078864,2025-03-07T00:46:20Z
65,256.415383,0.959095,93.457936,44.941282,283.825382,89.30091,2.497528,3,-93.169712,0.341318,2025-03-07T00:46:21Z,-0.186855,-0.982507,0.011522,2025-03-07T00:46:21Z,0.502977,-0.106155,0.086489,2025-03-07T00:46:21Z
66,256.379253,0.686344,102.054372,44.941282,283.789253,90.048047,2.489527,3,-93.169705,0.491605,2025-03-07T00:46:22Z,-0.110538,-0.999975,0.032917,2025-03-07T00:46:22Z,1.212039,-0.272669,0.244137,2025-03-07T00:46:22Z
67,256.367124,0.67116,37.02265,44.941283,283.777124,89.987838,2.46505,3,-93.169683,1.351169,2025-03-07T00:46:23Z,-0.129115,-0.991814,0.054098,2025-03-07T00:46:23Z,1.025755,-0.191971,0.374782,2025-03-07T00:46:23Z
68,256.610765,0.646949,22.365115,44.941282,284.020765,90.23635,2.446175,3,-93.169647,2.333012,2025-03-07T00:46:24Z,-0.133171,-0.994362,0.039156,2025-03-07T00:46:24Z,0.940552,-0.203956,0.253138,2025-03-07T00:46:24Z
69,256.660358,0.645362,16.422846,44.941281,284.070358,89.686676,2.423866,3,-93.169601,3.182195,2025-03-07T00:46:25Z,-0.220739,-0.980575,0.034993,2025-03-07T00:46:25Z,0.131701,-0.08448,0.162841,2025-03-07T00:46:25Z
70,257.051002,0.654545,15.167106,44.941283,284.461002,87.075409,2.402673,3,-93.169555,3.40537,2025-03-07T00:46:26Z,-0.249052,-0.947183,-0.013821,2025-03-07T00:46:26Z,-0.116693,0.236961,-0.137744,2025-03-07T00:46:26Z
71,256.849276,0.65046,16.867523,44.941286,284.259276,93.634125,2.382539,3,-93.169517,3.113157,2025-03-07T00:46:27Z,-0.247469,-0.967248,-0.031043,2025-03-07T00:46:27Z,-0.212757,0.068045,-0.204475,2025-03-07T00:46:27Z
72,256.86723,0.651128,18.826159,44.941289,284.27723,87.227144,2.363412,3,-93.169482,2.802381,2025-03-07T00:46:28Z,-0.270536,-0.960075,-0.012729,2025-03-07T00:46:28Z,-0.221487,0.081983,-0.037047,2025-03-07T00:46:28Z
73,256.667238,0.656329,19.822027,44.941291,284.077238,86.203237,2.354452,3,-93.16945,2.645734,2025-03-07T00:46:29Z,-0.243257,-0.964823,-0.013503,2025-03-07T00:46:29Z,-0.018637,0.054552,0.036131,2025-03-07T00:46:29Z
74,256.684393,0.645934,20.382314,44.941291,284.094393,87.783644,2.336729,3,-93.169418,2.560447,2025-03-07T00:46:30Z,-0.213184,-0.987949,-0.069367,2025-03-07T00:46:30Z,0.202905,-0.178337,-0.152785,2025-03-07T00:46:30Z
75,256.607986,0.651794,19.65668,44.941294,284.017986,84.891758,2.319893,3,-93.169384,2.680475,2025-03-07T00:46:31Z,-0.198536,-0.976432,-0.065795,2025-03-07T00:46:31Z,-0.119888,0.052879,0.027813,2025-03-07T00:46:31Z
76,256.471059,0.650969,20.568995,44.941297,283.881059,90.253952,2.314137,3,-93.169353,2.532013,2025-03-07T00:46:32Z,-0.206539,-0.961888,-0.073874,2025-03-07T00:46:32Z,0.013484,0.118096,-0.081731,2025-03-07T00:46:32Z
77,256.677245,0.650568,20.27516,44.941297,284.087245,90.253952,2.29843,3,-93.16932,2.591628,2025-03-07T00:46:33Z,-0.187314,-0.977936,-0.054864,2025-03-07T00:46:33Z,0.189424,-0.005481,-0.044725,2025-03-07T00:46:33Z
78,256.884913,0.730876,23.565215,44.941298,284.294913,90.253952,2.342464,3,-93.169291,2.460353,2025-03-07T00:46:34Z,-0.21554,-0.970173,-0.026506,2025-03-07T00:46:34Z,-0.07758,0.075595,-0.014801,2025-03-07T00:46:34Z
79,256.725965,0.753152,29.650117,44.941294,284.135965,90.253952,2.3964,3,-93.169268,1.984771,2025-03-07T00:46:35Z,-0.189741,-0.981664,0.003702,2025-03-07T00:46:35Z,0.246451,-0.064809,0.058365,2025-03-07T00:46:35Z
80,256.92938,0.672971,20.276435,44.941281,284.33938,90.253952,2.37658,3,-93.169222,2.676781,2025-03-07T00:46:36Z,-0.178501,-0.98543,-0.004418,2025-03-07T00:46:36Z,0.37667,-0.080715,-0.034891,2025-03-07T00:46:36Z
81,256.770192,0.66791,18.05119,44.941281,284.180191,90.253952,2.376143,3,-93.169183,2.96851,2025-03-07T00:46:37Z,-0.196383,-0.975922,-0.003734,2025-03-07T00:46:37Z,0.164502,0.012778,-0.005596,2025-03-07T00:46:37Z
82,256.434572,0.688695,17.125647,44.941281,283.844572,90.253952,2.375983,3,-93.169142,3.048086,2025-03-07T00:46:38Z,-0.247791,-0.96512,-0.00289,2025-03-07T00:46:38Z,-0.338564,0.116152,-0.067875,2025-03-07T00:46:38Z
83,256.633275,0.653255,17.433729,44.941281,284.043275,90.253952,2.388271,3,-93.169101,2.977547,2025-03-07T00:46:39Z,-0.22912,-0.97289,-8.31e-4,2025-03-07T00:46:39Z,-0.136087,0.038357,-0.045289,2025-03-07T00:46:39Z
84,257.136495,0.656558,18.920891,44.941292,284.546494,90.253952,2.421108,3,-93.169065,2.792312,2025-03-07T00:46:40Z,-0.188487,-0.980749,0.00957,2025-03-07T00:46:40Z,0.260113,-0.039893,0.005482,2025-03-07T00:46:40Z
85,257.440366,0.663606,16.53286,44.941292,284.850365,90.253952,2.416387,3,-93.169023,3.053367,2025-03-07T00:46:41Z,-0.196173,-0.980378,0.031992,2025-03-07T00:46:41Z,0.168522,-0.039635,0.062955,2025-03-07T00:46:41Z
86,257.538346,0.665239,15.782329,44.941292,284.948346,90.253952,2.431578,3,-93.168978,3.327482,2025-03-07T00:46:42Z,-0.205721,-0.977238,0.019608,2025-03-07T00:46:42Z,0.087308,-0.007912,-0.008365,2025-03-07T00:46:42Z
87,257.327637,0.640577,15.974845,44.941293,284.737637,90.253952,2.409999,3,-93.168937,3.248147,2025-03-07T00:46:43Z,-0.252679,-0.967004,-0.005534,2025-03-07T00:46:43Z,-0.394164,0.102034,-0.138515,2025-03-07T00:46:43Z
88,257.312316,0.660374,18.603597,44.941294,284.722316,90.253952,2.389499,3,-93.1689,2.864373,2025-03-07T00:46:44Z,-0.222902,-0.968598,0.01012,2025-03-07T00:46:44Z,-0.102582,0.084049,-0.039273,2025-03-07T00:46:44Z
89,257.152392,0.658136,18.336168,44.941295,284.562392,90.253952,2.370024,3,-93.168864,2.855359,2025-03-07T00:46:45Z,-0.194059,-0.983568,0.015217,2025-03-07T00:46:45Z,0.190998,-0.075189,-0.038925,2025-03-07T00:46:45Z
90,257.237664,0.648827,16.566938,44.941294,284.647664,90.253952,2.351523,3,-93.168821,3.145325,2025-03-07T00:46:46Z,-0.210817,-0.974371,0.028367,2025-03-07T00:46:46Z,0.002814,0.033542,-0.008131,2025-03-07T00:46:46Z
91,257.604504,0.653304,17.024781,44.941292,285.014504,90.253952,2.392747,3,-93.168781,3.071236,2025-03-07T00:46:47Z,-0.225356,-0.976,0.018705,2025-03-07T00:46:47Z,-0.092154,-0.001345,0.05563,2025-03-07T00:46:47Z
92,257.400501,0.659228,16.475798,44.941291,284.810501,90.253952,2.440825,3,-93.168737,3.170675,2025-03-07T00:46:48Z,-0.264739,-0.96177,-0.019149,2025-03-07T00:46:48Z,-0.450624,0.137823,-0.046493,2025-03-07T00:46:48Z
93,257.487129,0.648839,19.596957,44.941293,284.897129,90.253952,2.456935,3,-93.168705,2.678398,2025-03-07T00:46:49Z,-0.204577,-0.966574,-0.031517,2025-03-07T00:46:49Z,0.015887,0.109603,-0.075279,2025-03-07T00:46:49Z
94,257.798977,0.660476,21.400106,44.941292,285.208977,90.253952,2.470674,3,-93.168674,2.463491,2025-03-07T00:46:50Z,-0.19205,-0.97858,-0.017962,2025-03-07T00:46:50Z,0.123338,0.003605,0.057081,2025-03-07T00:46:50Z
95,258.125626,0.690026,19.615916,44.941292,285.535626,90.253952,2.454883,3,-93.168638,2.597969,2025-03-07T00:46:51Z,-0.162933,-0.990873,-0.024333,2025-03-07T00:46:51Z,0.336033,-0.109373,0.056123,2025-03-07T00:46:51Z
96,258.664206,0.869299,18.470733,44.941292,286.074205,90.253952,2.432139,3,-93.168597,3.050924,2025-03-07T00:46:52Z,-0.216327,-0.9713,-0.055431,2025-03-07T00:46:52Z,-0.220525,0.086645,-0.122695,2025-03-07T00:46:52Z
97,257.972673,0.70677,19.912667,44.941293,285.382673,90.253952,2.410532,3,-93.168561,2.845068,2025-03-07T00:46:53Z,-0.220877,-0.967409,-0.028725,2025-03-07T00:46:53Z,-0.180168,0.109139,0.021467,2025-03-07T00:46:53Z
98,257.86516,0.720734,20.94385,44.941284,285.275159,90.253952,2.406826,3,-93.16853,2.534196,2025-03-07T00:46:54Z,-0.190249,-0.983241,-0.015297,2025-03-07T00:46:54Z,0.084601,-0.031814,0.038211,2025-03-07T00:46:54Z
99,257.61803,0.765317,19.869597,44.941286,285.02803,90.253952,2.415815,3,-93.168499,2.348585,2025-03-07T00:46:55Z,-0.193427,-0.980712,-0.016064,2025-03-07T00:46:55Z,0.027932,-0.001825,-0.025461,2025-03-07T00:46:55Z
100,257.724385,0.726365,19.760066,44.941289,285.134385,90.253952,2.412597,3,-93.168464,2.535387,2025-03-07T00:46:56Z,-0.232448,-0.971841,-0.018537,2025-03-07T00:46:56Z,-0.354885,0.080331,-0.036744,2025-03-07T00:46:56Z
101,258.273808,0.675598,20.98631,44.941289,285.683808,90.253952,2.455168,3,-93.168427,2.60288,2025-03-07T00:46:57Z,-0.150424,-0.979131,-0.025089,2025-03-07T00:46:57Z,0.463114,0.005807,0.028413,2025-03-07T00:46:57Z
102,258.668038,0.67283,18.985601,44.941287,286.078038,90.253952,2.432409,3,-93.168391,2.781128,2025-03-07T00:46:58Z,-0.159168,-0.99787,-0.042542,2025-03-07T00:46:58Z,0.325734,-0.160589,-0.119231,2025-03-07T00:46:58Z
103,258.545155,0.646283,16.959498,44.941287,285.955155,89.704323,2.412248,3,-93.168349,3.085826,2025-03-07T00:46:59Z,-0.123708,-0.990864,-0.02227,2025-03-07T00:46:59Z,0.630276,-0.100608,0.063252,2025-03-07T00:46:59Z
104,258.663508,0.646583,14.188961,44.941287,286.073508,90.283011,2.391636,3,-93.168298,3.680819,2025-03-07T00:47:00Z,-0.14659,-0.974931,-0.020629,2025-03-07T00:47:00Z,0.396987,0.073793,0.040458,2025-03-07T00:47:00Z
105,258.654328,0.655465,12.682688,44.941286,286.064328,90.883982,2.372054,3,-93.168241,4.188074,2025-03-07T00:47:01Z,-0.156484,-1.017623,0.002552,2025-03-07T00:47:01Z,0.267763,-0.321858,0.05789,2025-03-07T00:47:01Z
106,258.582976,0.649078,11.906835,44.941288,285.992975,89.992173,2.353867,3,-93.168185,4.417787,2025-03-07T00:47:02Z,-0.166402,-0.962251,0.015295,2025-03-07T00:47:02Z,0.183728,0.182273,0.132128,2025-03-07T00:47:02Z
107,258.751654,0.652575,10.822834,44.941287,286.161654,90.134622,2.336174,3,-93.168118,4.884746,2025-03-07T00:47:03Z,-0.20103,-0.986586,0.017809,2025-03-07T00:47:03Z,-0.086243,-0.073616,0.076153,2025-03-07T00:47:03Z
108,258.926558,0.642917,10.542009,44.941288,286.336558,89.4028,2.319365,3,-93.168054,4.942622,2025-03-07T00:47:04Z,-0.179238,-0.965756,0.028916,2025-03-07T00:47:04Z,0.068609,0.168843,0.145265,2025-03-07T00:47:04Z
109,258.845074,0.655115,10.236584,44.941287,286.255074,90.809018,2.303397,3,-93.167987,5.179012,2025-03-07T00:47:05Z,-0.202043,-0.979779,9.02e-4,2025-03-07T00:47:05Z,-0.146057,0.014567,-0.113289,2025-03-07T00:47:05Z
110,259.071091,0.649492,10.675044,44.941289,286.481091,89.438874,2.315991,3,-93.167925,4.929899,2025-03-07T00:47:06Z,-0.195159,-0.978363,-0.004757,2025-03-07T00:47:06Z,-0.167511,0.07204,-0.083507,2025-03-07T00:47:06Z
111,259.165322,0.65061,10.285574,44.941294,286.57532200000003,87.782656,2.300192,3,-93.167858,5.125214,2025-03-07T00:47:07Z,-0.195154,-0.972805,7.64e-4,2025-03-07T00:47:07Z,-0.10925,0.103496,-0.058825,2025-03-07T00:47:07Z
112,259.480747,0.656193,10.309903,44.941295,286.890747,88.154393,2.285182,3,-93.167792,5.1465630000000004,2025-03-07T00:47:08Z,-0.25511,-0.978643,0.00515,2025-03-07T00:47:08Z,-0.622682,0.030093,-0.155879,2025-03-07T00:47:08Z
113,259.80754,0.657358,11.562371,44.941283,287.21754,91.486302,2.270923,3,-93.167737,4.576293,2025-03-07T00:47:09Z,-0.220826,-0.966408,-0.004247,2025-03-07T00:47:09Z,-0.332994,0.149025,-0.112145,2025-03-07T00:47:09Z
114,259.639364,0.787817,15.53972,44.941283,287.049364,91.302566,2.344996,3,-93.167688,4.108715,2025-03-07T00:47:10Z,-0.19946,-0.963434,-0.016418,2025-03-07T00:47:10Z,-0.14172,0.185962,0.032863,2025-03-07T00:47:10Z
115,259.758609,0.718491,13.724541,44.941279,287.168609,93.672722,2.446021,3,-93.167631,4.240634,2025-03-07T00:47:11Z,-0.205607,-0.988611,-0.033314,2025-03-07T00:47:11Z,-0.179675,-0.061573,-0.157166,2025-03-07T00:47:11Z
116,261.261274,0.719764,12.089006,44.941269,288.671273,98.294981,2.42372,3,-93.167579,4.191327,2025-03-07T00:47:12Z,-0.221665,-0.970841,-0.006001,2025-03-07T00:47:12Z,-0.318064,0.109701,-0.054983,2025-03-07T00:47:12Z
117,260.647568,0.658302,13.373651,44.94128,288.057568,90.056845,2.419287,3,-93.167527,3.97805,2025-03-07T00:47:13Z,-0.189377,-0.974828,-0.011729,2025-03-07T00:47:13Z,0.023172,0.06419,-0.067282,2025-03-07T00:47:13Z
118,260.357384,0.662376,13.741462,44.941284,287.767384,87.196029,2.483734,3,-93.16748,3.83575,2025-03-07T00:47:14Z,-0.21829,-0.984627,-0.001646,2025-03-07T00:47:14Z,-0.28446,-0.013298,-0.076435,2025-03-07T00:47:14Z
119,260.294204,0.658349,14.86132,44.941285,287.704203,89.704323,2.459548,3,-93.167434,3.548322,2025-03-07T00:47:15Z,-0.247171,-0.966733,0.015246,2025-03-07T00:47:15Z,-0.640478,0.145645,-0.067792,2025-03-07T00:47:15Z
120,260.061462,0.695377,18.255038,44.941285,287.471462,89.704323,2.476012,3,-93.167402,2.766554,2025-03-07T00:47:16Z,-0.255226,-0.954015,-0.042103,2025-03-07T00:47:16Z,-0.561815,0.244292,-0.305359,2025-03-07T00:47:16Z
121,260.682739,0.68127,23.509775,44.941287,288.092739,89.704323,2.453962,3,-93.167374,2.201839,2025-03-07T00:47:17Z,-0.226984,-0.965256,-0.041187,2025-03-07T00:47:17Z,-0.369531,0.17069,-0.19446,2025-03-07T00:47:17Z
122,261.133726,0.757971,24.699934,44.941286,288.543726,89.704323,2.479384,3,-93.167347,1.997648,2025-03-07T00:47:18Z,-0.201895,-0.972362,-0.046184,2025-03-07T00:47:18Z,0.017625,0.062127,-0.169952,2025-03-07T00:47:18Z
