seconds_elapsed,location_altitude,location_speedAccuracy,location_bearingAccuracy,location_latitude,location_altitudeAboveMeanSeaLevel,location_bearing,location_horizontalAccuracy,location_verticalAccuracy,location_longitude,location_speed,location_local_time,accelerometerUncalibrated_z,accelerometerUncalibrated_y,accelerometerUncalibrated_x,accelerometerUncalibrated_local_time,accelerometer_z,accelerometer_y,accelerometer_x,accelerometer_local_time
0,250.994484,0.0575,9.293923,44.941143,278.404484,26.408203,38.698077,6.144668,-93.177261,0.435,2025-03-07T00:31:57Z,-0.201696,-0.969205,0.200093,2025-03-07T00:31:57Z,0.104054,0.072962,1.605896,2025-03-07T00:31:57Z
1,251.194458,2.06,25.052118,44.941304,278.604458,118.828125,4.231386,4,-93.177066,5.2,2025-03-07T00:31:58Z,-0.143783,-1.001209,0.14098,2025-03-07T00:31:58Z,0.561087,-0.212622,1.055148,2025-03-07T00:31:58Z
2,250.835388,0.98,7.859547,44.941324,278.245388,91.915306,3.78845,3,-93.176966,5.2,2025-03-07T00:31:59Z,-0.114959,-0.99577,0.043625,2025-03-07T00:31:59Z,0.631809,-0.136756,0.340238,2025-03-07T00:31:59Z
3,250.815979,0.26,2.013888,44.941331,278.225979,90.718887,3.677207,3,-93.176863,6.68,2025-03-07T00:32:00Z,-0.09425,-1.000581,-0.008486,2025-03-07T00:32:00Z,0.76844,-0.156717,0.015271,2025-03-07T00:32:00Z
4,250.519165,0.23,1.5254,44.941343,277.929165,90.718887,3.535534,3,-93.176743,9.83,2025-03-07T00:32:01Z,-0.093064,-1.00405,-0.017941,2025-03-07T00:32:01Z,0.696523,-0.171245,0.057644,2025-03-07T00:32:01Z
5,249.531677,0.14,0.819336,44.941352,276.941677,90.330261,3.535534,3,-93.176612,11.11,2025-03-07T00:32:02Z,-0.144134,-1.000871,-0.023339,2025-03-07T00:32:02Z,0.201221,-0.144424,-0.073059,2025-03-07T00:32:02Z
6,248.660767,1.83,7.661379,44.941364,276.070766,90.330261,3.535534,3,-93.176472,10.94,2025-03-07T00:32:03Z,-0.167991,-0.981766,-0.015048,2025-03-07T00:32:03Z,-0.076254,0.054932,-0.12926,2025-03-07T00:32:03Z
7,248.155518,2.05,6.665819,44.941353,275.565517,90.330261,3.535534,3,-93.176336,11.11,2025-03-07T00:32:04Z,-0.171108,-0.985179,-0.011478,2025-03-07T00:32:04Z,-0.09883,0.020161,-0.127179,2025-03-07T00:32:04Z
8,248.587463,0.79,4.115189,44.941351,275.997463,90,3.535534,3,-93.176182,12.53,2025-03-07T00:32:05Z,-0.197246,-0.985849,-0.014592,2025-03-07T00:32:05Z,-0.325306,2.41e-4,-0.200103,2025-03-07T00:32:05Z
9,248.47522,0.31,1.623907,44.941345,275.88522,90,3.535534,3,-93.176031,12.53,2025-03-07T00:32:06Z,-0.189328,-0.974716,-0.011539,2025-03-07T00:32:06Z,-0.282682,0.123668,-0.22037,2025-03-07T00:32:06Z
10,248.689209,0.13,0.681564,44.941343,276.099209,90,3.535534,3,-93.175871,12.53,2025-03-07T00:32:07Z,-0.216818,-0.971837,-4.53e-4,2025-03-07T00:32:07Z,-0.486465,0.143738,-0.153152,2025-03-07T00:32:07Z
11,249.373413,0.28,1.45009,44.941343,276.783413,90,3.535534,3,-93.175711,12.71,2025-03-07T00:32:08Z,-0.231943,-0.975764,-0.012401,2025-03-07T00:32:08Z,-0.614135,0.095775,-0.189162,2025-03-07T00:32:08Z
12,249.793213,1.92,7.072841,44.941347,277.203213,90,3.535534,3,-93.175559,12.71,2025-03-07T00:32:09Z,-0.233577,-0.965615,-0.009659,2025-03-07T00:32:09Z,-0.614448,0.178875,-0.211398,2025-03-07T00:32:09Z
13,249.793226,1.92,12.240335,44.941349,277.203225,90,4.748652,4.029364,-93.175398,12.71,2025-03-07T00:32:10Z,-0.247077,-0.963154,-0.010054,2025-03-07T00:32:10Z,-0.655726,0.203111,-0.18551,2025-03-07T00:32:10Z
14,249.927503,1.46,9.156468,44.941345,277.337503,90,4.748652,4.029364,-93.175224,12.92,2025-03-07T00:32:11Z,-0.24678,-0.971899,-0.012177,2025-03-07T00:32:11Z,-0.597921,0.104913,-0.137344,2025-03-07T00:32:11Z
15,249.759535,1.82,11.414227,44.941345,277.169534,90,4.748652,4.029364,-93.175062,12.92,2025-03-07T00:32:12Z,-0.244244,-0.970125,-0.006892,2025-03-07T00:32:12Z,-0.578671,0.126933,-0.075593,2025-03-07T00:32:12Z
16,250.249524,1.07,7.258975,44.941355,277.659524,89.1409,4.748652,4.029364,-93.174907,12.66,2025-03-07T00:32:13Z,-0.250649,-0.961413,0.034968,2025-03-07T00:32:13Z,-0.58019,0.196211,0.279894,2025-03-07T00:32:13Z
17,250.101269,0.308016,7.258975,44.941359,277.511268,86.857971,4.748652,4.029364,-93.174765,12,2025-03-07T00:32:14Z,-0.255856,-0.963597,0.092189,2025-03-07T00:32:14Z,-0.593487,0.163573,0.86606,2025-03-07T00:32:14Z
18,250.126354,0.308016,7.258975,44.941369,277.536354,82.935875,4.748652,4.029364,-93.174617,11.93,2025-03-07T00:32:15Z,-0.242165,-0.968968,0.07999,2025-03-07T00:32:15Z,-0.432027,0.113685,0.870126,2025-03-07T00:32:15Z
19,250.293041,0.79,7.258975,44.941386,277.703041,77.278648,4.748652,4.029364,-93.174466,11.93,2025-03-07T00:32:16Z,-0.226469,-0.987442,0.016602,2025-03-07T00:32:16Z,-0.311628,-0.067313,0.318302,2025-03-07T00:32:16Z
20,249.326671,2.2,15.171288,44.941396,276.736671,77.226509,4.748652,4.029364,-93.174334,11.75,2025-03-07T00:32:17Z,-0.206647,-0.985829,-0.064057,2025-03-07T00:32:17Z,-0.121455,-0.05139,-0.610906,2025-03-07T00:32:17Z
21,250.260509,0.75,7.258975,44.941458,277.670509,74.545876,4.748652,4.029364,-93.174196,11.75,2025-03-07T00:32:18Z,-0.20353,-0.956345,-0.072875,2025-03-07T00:32:18Z,0.114465,0.190314,-1.098444,2025-03-07T00:32:18Z
22,250.263134,0.308016,7.258975,44.941466,277.673134,75.393272,4.748652,4.029364,-93.174042,12.08,2025-03-07T00:32:19Z,-0.211334,-0.98375,-0.034847,2025-03-07T00:32:19Z,0.072123,-0.093089,-0.891655,2025-03-07T00:32:19Z
23,250.292554,1.42,9.017274,44.941496,277.702554,85.773567,4.748652,4.029364,-93.173878,12.76,2025-03-07T00:32:20Z,-0.20379,-0.97579,-0.026587,2025-03-07T00:32:20Z,0.146713,-0.019802,-0.738921,2025-03-07T00:32:20Z
24,250.788404,2.82,17.907545,44.941491,278.198404,89.385696,4.748652,4.029364,-93.173709,12.76,2025-03-07T00:32:21Z,-0.205453,-0.980667,-0.006781,2025-03-07T00:32:21Z,0.136042,-0.042337,-0.476545,2025-03-07T00:32:21Z
25,250.600235,2.83,16.544774,44.941493,278.010235,89.385696,4.748652,4.029364,-93.173509,13.86,2025-03-07T00:32:22Z,-0.209938,-0.979429,0.028223,2025-03-07T00:32:22Z,0.087728,-0.056566,-0.106456,2025-03-07T00:32:22Z
26,251.003796,0.86,7.258975,44.941486,278.413796,89.385696,4.748652,4.029364,-93.17338,12.21,2025-03-07T00:32:23Z,-0.209847,-0.967597,0.032081,2025-03-07T00:32:23Z,0.117294,0.057098,-0.095745,2025-03-07T00:32:23Z
27,251.298903,0.308016,7.258975,44.941489,278.708903,90.2612,4.748652,4.029364,-93.173197,13.21,2025-03-07T00:32:24Z,-0.212532,-0.977681,0.032543,2025-03-07T00:32:24Z,0.071814,-0.014186,-0.013088,2025-03-07T00:32:24Z
28,251.689711,0.89,7.258975,44.941479,279.099711,90.2612,4.748652,4.029364,-93.173037,13.17,2025-03-07T00:32:25Z,-0.20815,-0.97023,0.023006,2025-03-07T00:32:25Z,0.088207,0.047415,-0.001763,2025-03-07T00:32:25Z
29,252.045973,1.46,8.982655,44.941474,279.455973,90.2612,4.748652,4.029364,-93.172879,13.17,2025-03-07T00:32:26Z,-0.224464,-0.972316,0.019045,2025-03-07T00:32:26Z,-0.076847,0.035128,-0.025496,2025-03-07T00:32:26Z
30,252.050734,0.53,7.258975,44.941471,279.460734,90.2612,4.748652,4.029364,-93.172712,13.17,2025-03-07T00:32:27Z,-0.236376,-0.971862,0.023362,2025-03-07T00:32:27Z,-0.147304,0.030847,-0.036981,2025-03-07T00:32:27Z
31,252.228165,0.308016,7.258975,44.941464,279.638164,90.2612,4.748652,4.029364,-93.17253,13.93,2025-03-07T00:32:28Z,-0.237401,-0.972006,0.018967,2025-03-07T00:32:28Z,-0.18872,0.034212,-0.058837,2025-03-07T00:32:28Z
32,252.504105,0.75,7.258975,44.941462,279.914104,90.2612,4.748652,4.029364,-93.172354,13.93,2025-03-07T00:32:29Z,-0.24039,-0.965285,0.016383000000000002,2025-03-07T00:32:29Z,-0.185793,0.100084,-0.070749,2025-03-07T00:32:29Z
33,254.375861,1.268192,7.409629,44.941466,281.785861,90,2.312097,3,-93.172174,13.867651,2025-03-07T00:32:30Z,-0.238083,-0.971494,0.01932,2025-03-07T00:32:30Z,-0.13323,0.021529,-0.053504,2025-03-07T00:32:30Z
34,254.597142,1.267116,7.38746,44.941466,282.007141,90.274681,2,3,-93.171995,13.897165,2025-03-07T00:32:31Z,-0.242073,-0.967893,0.042223,2025-03-07T00:32:31Z,-0.20506,0.06117,0.084323,2025-03-07T00:32:31Z
35,254.796277,1.272472,7.41151,44.941466,282.206276,90.274681,2.359624,3,-93.171815,13.910492,2025-03-07T00:32:32Z,-0.239946,-0.961785,0.032833,2025-03-07T00:32:32Z,-0.162821,0.121606,0.052517,2025-03-07T00:32:32Z
36,254.993711,1.270421,7.389752,44.941465,282.403711,90.274681,2.199873,3,-93.171638,13.928706,2025-03-07T00:32:33Z,-0.242044,-0.976236,0.022556,2025-03-07T00:32:33Z,-0.171975,-0.012882,-0.038305,2025-03-07T00:32:33Z
37,254.959605,0.67054,7.258844,44.941473,282.369604,90.274681,2.693067,3,-93.171468,13.632307,2025-03-07T00:32:34Z,-0.243377,-0.965525,0.014915,2025-03-07T00:32:34Z,-0.169131,0.07208,-0.083547,2025-03-07T00:32:34Z
38,255.55175500000001,0.660981,7.257044,44.941479,282.961755,90.274681,2.37997,3,-93.171289,13.868488,2025-03-07T00:32:35Z,-0.252607,-0.964915,0.018672,2025-03-07T00:32:35Z,-0.251558,0.090575,-0.072812,2025-03-07T00:32:35Z
39,255.38925,0.654777,7.258892,44.941472,282.79925,90.274681,2.182883,3,-93.171115,13.831716,2025-03-07T00:32:36Z,-0.25398,-0.966984,0.014313,2025-03-07T00:32:36Z,-0.264537,0.075426000000000007,-0.083249,2025-03-07T00:32:36Z
40,255.713681,0.661027,7.257664,44.94147,283.123681,90.435814,2.163375,3,-93.170945,13.61141,2025-03-07T00:32:37Z,-0.257189,-0.963658,0.024687,2025-03-07T00:32:37Z,-0.264224,0.082107,-0.022353,2025-03-07T00:32:37Z
41,255.90945,0.662645,7.257663,44.94147,283.31945,90.435814,2.079949,3,-93.170779,13.331394,2025-03-07T00:32:38Z,-0.237416,-0.965802,0.013016,2025-03-07T00:32:38Z,-0.039819,0.066197,-0.045713,2025-03-07T00:32:38Z
42,255.893546,0.662359,7.258669,44.941471,283.303546,90.205849,2.449356,3,-93.170611,13.127843,2025-03-07T00:32:39Z,-0.228761,-0.97734,0.015199,2025-03-07T00:32:39Z,-0.013854,-0.043695,-0.035545,2025-03-07T00:32:39Z
43,255.502266,0.729346,7.258861,44.941462,282.912266,90.205849,2.282971,3,-93.170463,12.208792,2025-03-07T00:32:40Z,-0.226016,-0.955028,0.004656,2025-03-07T00:32:40Z,0.083047,0.16974,-0.056765,2025-03-07T00:32:40Z
44,255.049705,0.704338,7.257051,44.941469,282.459705,90.257622,2.760487,3,-93.17027,13.443492000000001,2025-03-07T00:32:41Z,-0.232348,-0.980121,0.034022,2025-03-07T00:32:41Z,0.044938,-0.141384,0.03631,2025-03-07T00:32:41Z
45,255.872013,0.660204,7.258559,44.941464,283.282013,90.257622,2.466599,3,-93.170087,14.05944,2025-03-07T00:32:42Z,-0.261579,-0.962666,0.024949,2025-03-07T00:32:42Z,-0.234553,0.143138,-0.057619,2025-03-07T00:32:42Z
46,255.642096,0.6719,7.258956,44.941466,283.052096,90.257622,2.239262,3,-93.169917,13.710286,2025-03-07T00:32:43Z,-0.26303,-0.967935,0.033469,2025-03-07T00:32:43Z,-0.22464,0.003956,-0.00983,2025-03-07T00:32:43Z
47,256.083593,0.661442,7.257812,44.941466,283.493592,90.257622,2.171885,3,-93.169753,13.272438,2025-03-07T00:32:44Z,-0.26616,-0.96817,0.035972,2025-03-07T00:32:44Z,-0.276447,0.039967,0.030898,2025-03-07T00:32:44Z
48,256.839941,0.688237,7.252688,44.94146,284.249941,90.257622,2.084568,3,-93.169588,12.978969,2025-03-07T00:32:45Z,-0.254661,-0.954532,0.012889,2025-03-07T00:32:45Z,-0.235809,0.172731,-0.058995,2025-03-07T00:32:45Z
49,256.583579,0.670856,7.258376,44.941468,283.993579,90.331261,2.642947,3,-93.169426,12.695245,2025-03-07T00:32:46Z,-0.268291,-0.970268,0.011851,2025-03-07T00:32:46Z,-0.243133,-0.010891,-0.126658,2025-03-07T00:32:46Z
50,256.582849,0.681528,7.258864,44.941468,283.992848,90.331261,2.848607,3,-93.169266,12.504674,2025-03-07T00:32:47Z,-0.259176,-0.963102,0.012106,2025-03-07T00:32:47Z,-0.224899,0.092832,-0.120785,2025-03-07T00:32:47Z
51,256.516874,0.675659,7.258948,44.941467,283.926874,90.331261,2.570921,3,-93.169113,12.138762,2025-03-07T00:32:48Z,-0.246613,-0.98103,0.030751,2025-03-07T00:32:48Z,-0.068845,-0.106542,0.03239,2025-03-07T00:32:48Z
52,256.306143,0.675292,7.258651,44.941472,283.716143,90.316551,2.473685,3,-93.168956,12.17986,2025-03-07T00:32:49Z,-0.244576,-0.968106,0.019078,2025-03-07T00:32:49Z,-0.117476,0.032808,-0.041363,2025-03-07T00:32:49Z
53,256.434655,0.797465,7.258971,44.94147,283.844655,90.316551,3.076402,3,-93.168804,12.083703999999999,2025-03-07T00:32:50Z,-0.238368,-0.979794,0.01228,2025-03-07T00:32:50Z,-0.136602,-0.043999,-0.056098,2025-03-07T00:32:50Z
54,256.905432,0.682691,7.257704,44.941465,284.315432,90.316551,3.451252,3,-93.168657,11.821832,2025-03-07T00:32:51Z,-0.232521,-0.970161,0.00941,2025-03-07T00:32:51Z,-0.090145,0.037149,-0.125141,2025-03-07T00:32:51Z
55,257.340601,0.666345,7.256152,44.941467,284.750601,90.316551,3.158785,3,-93.168511,11.581635,2025-03-07T00:32:52Z,-0.21219,-0.976431,0.018491,2025-03-07T00:32:52Z,0.114972,-0.015937,-0.063581,2025-03-07T00:32:52Z
56,257.792144,0.674006,7.255621,44.941468,285.202144,90.316551,2.741821,3,-93.168367,11.421792,2025-03-07T00:32:53Z,-0.206315,-0.972762,0.026532,2025-03-07T00:32:53Z,0.180181,0.007134,-0.023492,2025-03-07T00:32:53Z
57,257.870884,0.667094,7.257855,44.941466,285.280884,90.316551,2.400817,3,-93.168225,11.314827,2025-03-07T00:32:54Z,-0.212776,-0.977566,0.037497,2025-03-07T00:32:54Z,0.10905,-0.027342,0.019934,2025-03-07T00:32:54Z
58,258.818729,0.680958,7.25395,44.941454,286.228729,90.316551,2.528705,3,-93.168073,11.635369,2025-03-07T00:32:55Z,-0.256786,-0.958574,0.020999,2025-03-07T00:32:55Z,-0.311967,0.153213,-0.094804,2025-03-07T00:32:55Z
59,258.49454,0.674613,7.258607,44.941466,285.90454,90.316551,2.352488,3,-93.167922,11.947058,2025-03-07T00:32:56Z,-0.26855,-0.963314,0.019785,2025-03-07T00:32:56Z,-0.411369,0.099864,-0.073709,2025-03-07T00:32:56Z
60,259.058902,0.665643,7.255442,44.941464,286.468901,90.316551,2.192853,3,-93.167796,10.94409,2025-03-07T00:32:57Z,-0.27194,-0.9609,0.020819,2025-03-07T00:32:57Z,-0.42272,0.119631,-0.082625,2025-03-07T00:32:57Z
61,259.464351,0.670988,7.252948,44.941463,286.874351,90.316551,2.207978,3,-93.167671,10.26647,2025-03-07T00:32:58Z,-0.366802,-0.936136,0.008506,2025-03-07T00:32:58Z,-1.285817,0.341002,-0.225624,2025-03-07T00:32:58Z
62,259.587835,0.682755,7.257033,44.941461,286.997835,90.260895,2.120655,3,-93.167553,9.69335,2025-03-07T00:32:59Z,-0.430466,-0.923082,-0.00803,2025-03-07T00:32:59Z,-1.851495,0.460497,-0.353629,2025-03-07T00:32:59Z
63,260.064599,0.660541,7.331361,44.941459,287.474599,90.260895,2.073499,3,-93.16748,7.276932,2025-03-07T00:33:00Z,-0.422239,-0.920859,-0.019447,2025-03-07T00:33:00Z,-1.70481,0.462322,-0.417657,2025-03-07T00:33:00Z
64,259.991345,0.681556,11.197988,44.94145,287.401345,90.260895,2.054544,3,-93.167433,4.928961,2025-03-07T00:33:01Z,-0.4105,-0.925639,-0.017683,2025-03-07T00:33:01Z,-1.42415,0.380716,-0.359834,2025-03-07T00:33:01Z
65,259.90722,0.6747,22.74001,44.941453,287.31722,90.260895,2.043635,3,-93.167414,2.38166,2025-03-07T00:33:02Z,-0.331634,-0.944546,-5.28e-4,2025-03-07T00:33:02Z,-0.505776,0.14819,-0.156586,2025-03-07T00:33:02Z
66,260.414944,0.666606,41.754587,44.941453,287.824944,90.260895,2.339418,3,-93.167399,1.274882,2025-03-07T00:33:03Z,-0.274138,-0.960122,0.012542,2025-03-07T00:33:03Z,0.117368,-0.020098,-0.007657,2025-03-07T00:33:03Z
67,260.563852,0.648548,78.758277,44.941453,287.973852,90.260895,2.29093,3,-93.167391,0.654289,2025-03-07T00:33:04Z,-0.260161,-0.963289,0.014921,2025-03-07T00:33:04Z,0.242167,-0.047607,0.025942,2025-03-07T00:33:04Z
68,260.118891,0.952853,180,44.941454,287.528891,90.260895,2.392463,3,-93.167393,0.176399,2025-03-07T00:33:05Z,-0.216723,-0.974285,0.025888,2025-03-07T00:33:05Z,0.602743,-0.133699,0.109752,2025-03-07T00:33:05Z
69,NA,NA,NA,NA,NA,NA,NA,NA,NA,NA,NA,-0.207419,-0.975848,0.027156,2025-03-07T00:33:06Z,0.613441,-0.129642,0.115653,2025-03-07T00:33:06Z
