seconds_elapsed,location_altitude,location_speedAccuracy,location_bearingAccuracy,location_latitude,location_altitudeAboveMeanSeaLevel,location_bearing,location_horizontalAccuracy,location_verticalAccuracy,location_longitude,location_speed,location_local_time,accelerometerUncalibrated_z,accelerometerUncalibrated_y,accelerometerUncalibrated_x,accelerometerUncalibrated_local_time,accelerometer_z,accelerometer_y,accelerometer_x,accelerometer_local_time
0.000000,252.967639,1.098744,53.086940,44.934357,280.377639,176.740731,8.221486,3.000000,-93.177198,1.488945,2025-02-27T18:58:09.301-06:00,-0.274967,-0.961771,0.165968,2025-02-27T18:58:09.292-06:00,0.325081,-0.105153,1.446701,2025-02-27T18:58:09.293-06:00
1.000000,251.791016,1.910000,36.983500,44.934280,279.201015,158.203125,3.535534,3.000000,-93.177144,3.100000,2025-02-27T18:58:10.999-06:00,-0.232406,-0.969794,0.232112,2025-02-27T18:58:10.277-06:00,0.420100,-0.104031,1.670309,2025-02-27T18:58:10.278-06:00
2.000000,253.106812,0.970000,7.647700,44.934277,280.516811,90.275864,3.535534,3.000000,-93.176979,3.100000,2025-02-27T18:58:11.999-06:00,-0.157847,-0.992615,0.022790,2025-02-27T18:58:11.272-06:00,0.977403,-0.271028,-0.309130,2025-02-27T18:58:11.273-06:00
3.000000,253.122986,0.970000,6.666056,44.934277,280.532986,90.275864,3.535534,3.000000,-93.176880,6.770000,2025-02-27T18:58:12.999-06:00,-0.148241,-0.997640,0.038539,2025-02-27T18:58:12.276-06:00,0.923332,-0.285294,-0.144487,2025-02-27T18:58:12.277-06:00
4.000000,253.250183,0.160000,1.069070,44.934276,280.660183,90.358208,3.535534,3.000000,-93.176765,9.620000,2025-02-27T18:58:13.999-06:00,-0.206080,-0.981476,0.012195,2025-02-27T18:58:13.281-06:00,0.344499,-0.127333,-0.372744,2025-02-27T18:58:13.272-06:00
5.000000,252.773804,0.140000,0.951492,44.934276,280.183804,90.358208,3.535534,3.000000,-93.176650,9.970000,2025-02-27T18:58:14.999-06:00,-0.218117,-0.970453,0.005805,2025-02-27T18:58:14.276-06:00,0.190520,0.002707,-0.393755,2025-02-27T18:58:14.277-06:00
6.000000,252.224548,1.610000,8.420629,44.934275,279.634548,90.358208,3.535534,3.000000,-93.176532,9.620000,2025-02-27T18:58:15.999-06:00,-0.217813,-0.981213,-0.002663,2025-02-27T18:58:15.280-06:00,0.133070,-0.099775,-0.460696,2025-02-27T18:58:15.281-06:00
7.000000,252.129944,0.610000,3.559796,44.934275,279.539944,90.358208,3.535534,3.000000,-93.176396,9.970000,2025-02-27T18:58:16.999-06:00,-0.228518,-0.973773,-0.000653,2025-02-27T18:58:16.275-06:00,0.002157,-0.004619,-0.378229,2025-02-27T18:58:16.276-06:00
8.000000,251.753479,0.050000,0.325180,44.934274,279.163479,90.358208,3.535534,3.000000,-93.176257,11.300000,2025-02-27T18:58:17.999-06:00,-0.221041,-0.973499,-0.006546,2025-02-27T18:58:17.280-06:00,0.019522,0.009274,-0.412272,2025-02-27T18:58:17.281-06:00
9.000000,252.069458,0.070000,0.400833,44.934273,279.479458,90.358208,3.535534,3.000000,-93.176110,11.720000,2025-02-27T18:58:18.999-06:00,-0.224139,-0.968495,0.001098,2025-02-27T18:58:18.274-06:00,-0.016477,0.056000,-0.324511,2025-02-27T18:58:18.275-06:00
10.000000,252.724182,1.160000,5.893633,44.934273,280.134182,90.199402,3.535534,3.000000,-93.175965,11.540000,2025-02-27T18:58:19.999-06:00,-0.256716,-0.968199,-0.007335,2025-02-27T18:58:19.279-06:00,-0.323676,0.058179,-0.296711,2025-02-27T18:58:19.280-06:00
11.000000,252.832153,2.060000,6.506508,44.934273,280.242153,90.199402,3.535534,3.000000,-93.175824,11.540000,2025-02-27T18:58:20.999-06:00,-0.266118,-0.962477,-0.014653,2025-02-27T18:58:20.274-06:00,-0.421852,0.119631,-0.311796,2025-02-27T18:58:20.275-06:00
12.000000,252.478394,0.730000,3.856093,44.934272,279.888393,90.199402,3.535534,3.000000,-93.175665,12.360000,2025-02-27T18:58:21.999-06:00,-0.259005,-0.963503,-0.028674,2025-02-27T18:58:21.278-06:00,-0.341565,0.107859,-0.416212,2025-02-27T18:58:21.279-06:00
13.000000,252.478406,0.730000,7.258975,44.934272,279.888405,90.199402,4.748652,4.029364,-93.175509,12.360000,2025-02-27T18:58:22.999-06:00,-0.252302,-0.962632,-0.040406,2025-02-27T18:58:22.273-06:00,-0.240719,0.102326,-0.502620,2025-02-27T18:58:22.274-06:00
14.000000,252.645886,0.308016,7.258975,44.934271,280.055886,90.199402,4.748652,4.029364,-93.175356,12.360000,2025-02-27T18:58:23.999-06:00,-0.258811,-0.965582,-0.010027,2025-02-27T18:58:23.278-06:00,-0.279190,0.082124,-0.252307,2025-02-27T18:58:23.279-06:00
15.000000,252.668041,0.308016,7.258975,44.934271,280.078041,90.199402,4.748652,4.029364,-93.175203,12.200000,2025-02-27T18:58:24.999-06:00,-0.257143,-0.959304,-0.001874,2025-02-27T18:58:24.272-06:00,-0.229625,0.120648,-0.138236,2025-02-27T18:58:24.273-06:00
16.000000,252.552075,0.308016,7.258975,44.934271,279.962075,90.408142,4.748652,4.029364,-93.175046,12.200000,2025-02-27T18:58:25.999-06:00,-0.260068,-0.973259,-0.015695,2025-02-27T18:58:25.277-06:00,-0.277968,-0.008113,-0.203914,2025-02-27T18:58:25.278-06:00
17.000000,252.575207,1.980000,13.022433,44.934270,279.985207,90.408142,4.748652,4.029364,-93.174886,12.320000,2025-02-27T18:58:26.999-06:00,-0.242460,-0.954983,-0.021422,2025-02-27T18:58:26.272-06:00,-0.086886,0.173988,-0.262598,2025-02-27T18:58:26.273-06:00
18.000000,252.358655,0.950000,7.258975,44.934270,279.768655,90.408142,4.748652,4.029364,-93.174713,12.810000,2025-02-27T18:58:27.999-06:00,-0.258761,-0.956037,-0.032341,2025-02-27T18:58:27.276-06:00,-0.134380,0.124116,-0.335798,2025-02-27T18:58:27.277-06:00
19.000000,252.504773,0.308016,7.258975,44.934269,279.914773,90.231773,4.748652,4.029364,-93.174552,12.730000,2025-02-27T18:58:28.999-06:00,-0.262754,-0.975734,-0.008173,2025-02-27T18:58:28.281-06:00,-0.161889,-0.055474,-0.243137,2025-02-27T18:58:28.272-06:00
20.000000,252.485242,0.308017,7.258975,44.934269,279.895242,90.231773,4.748652,4.029364,-93.174386,12.810000,2025-02-27T18:58:29.999-06:00,-0.259195,-0.969147,-0.011464,2025-02-27T18:58:29.276-06:00,-0.154573,0.005559,-0.274412,2025-02-27T18:58:29.277-06:00
21.000000,252.430189,0.550000,7.258975,44.934268,279.840189,90.231773,4.748652,4.029364,-93.174220,12.930000,2025-02-27T18:58:30.999-06:00,-0.265757,-0.960662,-0.005662,2025-02-27T18:58:30.280-06:00,-0.213762,0.087261,-0.174595,2025-02-27T18:58:30.281-06:00
22.000000,252.237746,0.308016,7.258975,44.934268,279.647746,90.231773,4.748652,4.029364,-93.174048,13.220000,2025-02-27T18:58:31.999-06:00,-0.280409,-0.961257,-0.015502,2025-02-27T18:58:31.275-06:00,-0.352154,0.086293,-0.194807,2025-02-27T18:58:31.276-06:00
23.000000,252.838087,1.830000,11.301989,44.934267,280.248087,90.231773,4.748652,4.029364,-93.173883,13.120000,2025-02-27T18:58:32.999-06:00,-0.279245,-0.954100,-0.016932,2025-02-27T18:58:32.279-06:00,-0.350916,0.160348,-0.220246,2025-02-27T18:58:32.281-06:00
24.000000,253.019911,2.660000,16.303762,44.934278,280.429911,90.231773,4.748652,4.029364,-93.173700,13.220000,2025-02-27T18:58:33.999-06:00,-0.286393,-0.966391,-0.015089,2025-02-27T18:58:33.274-06:00,-0.336016,0.003509,-0.215773,2025-02-27T18:58:33.275-06:00
25.000000,253.093274,0.820000,7.258975,44.934266,280.503273,90.231773,4.748652,4.029364,-93.173561,12.320000,2025-02-27T18:58:34.999-06:00,-0.281420,-0.945451,-0.021665,2025-02-27T18:58:34.279-06:00,-0.289386,0.226579,-0.218565,2025-02-27T18:58:34.280-06:00
26.000000,253.202344,0.650000,7.258975,44.934266,280.612343,90.231773,4.748652,4.029364,-93.173399,12.390000,2025-02-27T18:58:35.999-06:00,-0.273460,-0.936131,0.000636,2025-02-27T18:58:35.274-06:00,-0.167930,0.296168,-0.081739,2025-02-27T18:58:35.275-06:00
27.000000,253.770337,0.590000,7.258975,44.934279,281.180336,90.310265,4.748652,4.029364,-93.173246,12.320000,2025-02-27T18:58:36.999-06:00,-0.289648,-0.981244,0.001169,2025-02-27T18:58:36.278-06:00,-0.293278,-0.162418,0.015517,2025-02-27T18:58:36.279-06:00
28.000000,253.535534,0.308016,7.258975,44.934265,280.945534,90.310265,4.748652,4.029364,-93.173091,12.350000,2025-02-27T18:58:37.999-06:00,-0.263109,-0.966338,-0.015884,2025-02-27T18:58:37.273-06:00,-0.093290,0.015749,-0.129031,2025-02-27T18:58:37.274-06:00
29.000000,253.961377,0.308016,7.258975,44.934264,281.371377,90.310265,4.748652,4.029364,-93.172933,12.350000,2025-02-27T18:58:38.999-06:00,-0.266755,-0.965265,-0.019659,2025-02-27T18:58:38.277-06:00,-0.115039,0.020818,-0.207078,2025-02-27T18:58:38.279-06:00
30.000000,253.449596,1.820000,12.382185,44.934263,280.859596,90.310265,4.748652,4.029364,-93.172789,11.910000,2025-02-27T18:58:39.999-06:00,-0.264098,-0.955802,-0.010538,2025-02-27T18:58:39.272-06:00,-0.047501,0.098418,-0.167456,2025-02-27T18:58:39.273-06:00
31.000000,253.786084,0.700000,7.258975,44.934263,281.196083,90.310265,4.748652,4.029364,-93.172630,12.240000,2025-02-27T18:58:40.999-06:00,-0.270180,-0.966446,-0.005002,2025-02-27T18:58:40.277-06:00,-0.092045,-0.015956,-0.084497,2025-02-27T18:58:40.278-06:00
32.000000,254.051647,0.308017,7.258975,44.934262,281.461647,90.310265,4.748652,4.029364,-93.172477,12.180000,2025-02-27T18:58:41.999-06:00,-0.272457,-0.965611,-0.002834,2025-02-27T18:58:41.272-06:00,-0.130964,0.006963,-0.008073,2025-02-27T18:58:41.273-06:00
33.000000,257.436597,1.271608,8.523671,44.934272,284.846597,90.310265,2.000000,3.000000,-93.172326,12.084495,2025-02-27T18:58:42.999-06:00,-0.254092,-0.963649,-0.000950,2025-02-27T18:58:42.276-06:00,-0.005847,0.029568,-0.011878,2025-02-27T18:58:42.277-06:00
34.000000,257.919190,1.366620,9.179119,44.934273,285.329190,90.310265,2.000000,3.000000,-93.172176,12.054037,2025-02-27T18:58:43.999-06:00,-0.241969,-0.961421,-0.016640,2025-02-27T18:58:43.281-06:00,0.222154,0.031315,-0.066211,2025-02-27T18:58:43.272-06:00
35.000000,258.397378,1.274833,8.549813,44.934262,285.807378,90.288544,2.000000,3.000000,-93.172021,12.073237,2025-02-27T18:58:44.999-06:00,-0.252928,-0.970092,0.003146,2025-02-27T18:58:44.275-06:00,0.111519,-0.056871,0.031269,2025-02-27T18:58:44.277-06:00
36.000000,258.545911,1.268099,8.440855,44.934267,285.955911,90.288544,2.022980,3.000000,-93.171863,12.168384,2025-02-27T18:58:45.999-06:00,-0.241211,-0.967573,0.002202,2025-02-27T18:58:45.280-06:00,0.220418,-0.032392,-0.023624,2025-02-27T18:58:45.281-06:00
37.000000,258.821962,1.273055,8.338816,44.934270,286.231962,90.288544,2.011955,3.000000,-93.171706,12.364515,2025-02-27T18:58:46.999-06:00,-0.244655,-0.973320,-0.001330,2025-02-27T18:58:46.275-06:00,0.150066,-0.073699,-0.064146,2025-02-27T18:58:46.276-06:00
38.000000,258.974854,1.274995,8.226162,44.934271,286.384854,90.288544,2.006032,3.000000,-93.171541,12.555017,2025-02-27T18:58:47.999-06:00,-0.245808,-0.957408,0.006261,2025-02-27T18:58:47.279-06:00,0.151981,0.075197,-0.021463,2025-02-27T18:58:47.281-06:00
39.000000,259.385488,1.272836,8.111126,44.934261,286.795488,90.288544,2.003100,3.000000,-93.171381,12.709073,2025-02-27T18:58:48.999-06:00,-0.277944,-0.962493,-0.013359,2025-02-27T18:58:48.274-06:00,-0.154842,0.032218,-0.140961,2025-02-27T18:58:48.275-06:00
40.000000,259.331424,1.272980,8.197686,44.934262,286.741424,90.288544,2.001590,3.000000,-93.171227,12.580161,2025-02-27T18:58:49.999-06:00,-0.266770,-0.955217,0.006292,2025-02-27T18:58:49.279-06:00,-0.016136,0.083007,-0.011216,2025-02-27T18:58:49.280-06:00
41.000000,259.523760,1.272167,8.059163,44.934264,286.933759,90.288544,2.000809,3.000000,-93.171064,12.786699,2025-02-27T18:58:50.999-06:00,-0.274315,-0.968814,0.013298,2025-02-27T18:58:50.273-06:00,-0.037979,-0.064749,-0.004797,2025-02-27T18:58:50.275-06:00
42.000000,259.818558,1.278016,8.264456,44.934264,287.228558,90.303322,2.079110,3.000000,-93.170909,12.524403,2025-02-27T18:58:51.999-06:00,-0.262394,-0.955792,-0.002793,2025-02-27T18:58:51.278-06:00,0.056638,0.076349,-0.096563,2025-02-27T18:58:51.279-06:00
43.000000,259.967017,1.277487,8.314236,44.934260,287.377017,90.303322,2.040683,3.000000,-93.170753,12.445069,2025-02-27T18:58:52.999-06:00,-0.268885,-0.954337,0.003458,2025-02-27T18:58:52.273-06:00,-0.011801,0.078376,0.000643,2025-02-27T18:58:52.274-06:00
44.000000,260.253694,1.272824,8.272274,44.934265,287.663693,90.303322,2.020793,3.000000,-93.170594,12.462487,2025-02-27T18:58:53.999-06:00,-0.263615,-0.966783,0.002011,2025-02-27T18:58:53.277-06:00,0.024002,-0.016710,0.007160,2025-02-27T18:58:53.279-06:00
45.000000,260.194544,1.272326,8.322549,44.934262,287.604544,90.303322,2.010561,3.000000,-93.170435,12.385413,2025-02-27T18:58:54.999-06:00,-0.268393,-0.963442,-0.000445,2025-02-27T18:58:54.272-06:00,0.002749,-0.003541,0.012699,2025-02-27T18:58:54.273-06:00
46.000000,260.390820,1.273551,8.307528,44.934262,287.800820,90.303322,2.205294,3.000000,-93.170272,12.419403,2025-02-27T18:58:55.999-06:00,-0.263909,-0.958114,0.001886,2025-02-27T18:58:55.277-06:00,0.057282,0.027659,0.017344,2025-02-27T18:58:55.278-06:00
47.000000,260.721607,1.272803,8.305593,44.934262,288.131606,90.000000,2.448221,3.000000,-93.170110,12.412610,2025-02-27T18:58:56.999-06:00,-0.257043,-0.964913,-0.000702,2025-02-27T18:58:56.281-06:00,0.070176,0.014988,0.009837,2025-02-27T18:58:56.273-06:00
48.000000,260.974376,0.657784,7.257134,44.934264,288.384376,90.248398,2.278503,3.000000,-93.169956,12.528681,2025-02-27T18:58:57.999-06:00,-0.250286,-0.967583,-0.000407,2025-02-27T18:58:57.276-06:00,0.179435,-0.049131,0.021488,2025-02-27T18:58:57.277-06:00
49.000000,260.932347,0.673406,7.258641,44.934262,288.342347,90.248398,2.143454,3.000000,-93.169800,12.421971,2025-02-27T18:58:58.999-06:00,-0.243447,-0.961926,0.000255,2025-02-27T18:58:58.281-06:00,0.229528,0.026068,0.053077,2025-02-27T18:58:58.272-06:00
50.000000,261.297959,0.682819,7.258134,44.934255,288.707959,90.248398,2.073296,3.000000,-93.169640,12.569783,2025-02-27T18:58:59.999-06:00,-0.241495,-0.959572,-0.000691,2025-02-27T18:58:59.275-06:00,0.298798,0.010534,0.071731,2025-02-27T18:58:59.277-06:00
51.000000,261.045338,0.670354,7.258972,44.934260,288.455338,90.364517,2.036936,3.000000,-93.169472,12.995561,2025-02-27T18:59:00.999-06:00,-0.255042,-0.971622,-0.000437,2025-02-27T18:59:00.280-06:00,0.218774,-0.089785,0.077537,2025-02-27T18:59:00.281-06:00
52.000000,261.087988,0.662979,7.258835,44.934263,288.497988,90.364517,2.369823,3.000000,-93.169304,13.210291,2025-02-27T18:59:01.999-06:00,-0.260935,-0.960638,-0.006056,2025-02-27T18:59:01.275-06:00,0.134564,0.009355,0.029608,2025-02-27T18:59:01.276-06:00
53.000000,260.668140,0.660108,7.258959,44.934265,288.078140,90.364517,2.183548,3.000000,-93.169135,13.345787,2025-02-27T18:59:02.999-06:00,-0.296130,-0.951135,-0.013481,2025-02-27T18:59:02.279-06:00,-0.205926,0.098608,-0.055590,2025-02-27T18:59:02.281-06:00
54.000000,259.963550,0.727836,7.253999,44.934262,287.373550,90.364517,2.094823,3.000000,-93.169008,11.348259,2025-02-27T18:59:03.999-06:00,-0.302179,-0.952426,-0.020531,2025-02-27T18:59:03.274-06:00,-0.239660,0.081561,-0.103182,2025-02-27T18:59:03.275-06:00
55.000000,260.629825,0.665792,7.257706,44.934249,288.039825,90.313026,2.045730,3.000000,-93.168811,13.000073,2025-02-27T18:59:04.999-06:00,-0.299636,-0.949247,-0.010110,2025-02-27T18:59:04.279-06:00,-0.241107,0.121777,0.000242,2025-02-27T18:59:04.280-06:00
56.000000,260.518259,0.656870,7.258730,44.934248,287.928259,90.313026,2.023198,3.000000,-93.168653,12.722950,2025-02-27T18:59:05.999-06:00,-0.299350,-0.947882,-0.010407,2025-02-27T18:59:05.273-06:00,-0.217751,0.118455,0.025571,2025-02-27T18:59:05.275-06:00
57.000000,260.458146,0.656596,7.258958,44.934248,287.868146,90.313026,2.011975,3.000000,-93.168503,12.297436,2025-02-27T18:59:06.999-06:00,-0.273904,-0.964454,-0.025657,2025-02-27T18:59:06.278-06:00,-0.009460,-0.023683,-0.077862,2025-02-27T18:59:06.279-06:00
58.000000,260.648687,0.660042,7.258964,44.934260,288.058687,90.332474,2.006185,3.000000,-93.168349,12.155553,2025-02-27T18:59:07.999-06:00,-0.273720,-0.958624,-0.040554,2025-02-27T18:59:07.273-06:00,0.030074,0.021038,-0.220785,2025-02-27T18:59:07.274-06:00
59.000000,260.937497,0.663892,7.258675,44.934251,288.347496,90.332474,2.003232,3.000000,-93.168199,11.969933,2025-02-27T18:59:08.999-06:00,-0.292355,-0.947829,-0.024668,2025-02-27T18:59:08.277-06:00,-0.155443,0.126755,-0.063937,2025-02-27T18:59:08.279-06:00
60.000000,260.788041,0.668190,7.258953,44.934256,288.198041,90.332474,2.001693,3.000000,-93.168050,11.827843,2025-02-27T18:59:09.999-06:00,-0.306985,-0.957169,-0.024784,2025-02-27T18:59:09.272-06:00,-0.286532,0.028318,-0.043196,2025-02-27T18:59:09.273-06:00
61.000000,261.107716,0.661259,7.258003,44.934257,288.517716,90.332474,2.000898,3.000000,-93.167906,11.460715,2025-02-27T18:59:10.999-06:00,-0.306998,-0.954645,-0.043575,2025-02-27T18:59:10.277-06:00,-0.276056,0.065705,-0.181085,2025-02-27T18:59:10.278-06:00
62.000000,260.864808,0.668198,7.258963,44.934255,288.274807,90.332474,2.000484,3.000000,-93.167767,11.051007,2025-02-27T18:59:11.999-06:00,-0.322984,-0.941597,-0.036509,2025-02-27T18:59:11.281-06:00,-0.413554,0.152075,-0.107938,2025-02-27T18:59:11.273-06:00
63.000000,261.000932,0.667425,7.258470,44.934256,288.410932,90.332474,2.000267,3.000000,-93.167638,10.470077,2025-02-27T18:59:12.999-06:00,-0.412005,-0.917655,-0.070122,2025-02-27T18:59:12.276-06:00,-1.283466,0.437343,-0.413176,2025-02-27T18:59:12.277-06:00
64.000000,260.811590,0.667523,7.258908,44.934257,288.221590,90.332474,2.000151,3.000000,-93.167526,9.223021,2025-02-27T18:59:13.999-06:00,-0.433455,-0.909556,-0.073927,2025-02-27T18:59:13.281-06:00,-1.372208,0.440456,-0.433690,2025-02-27T18:59:13.272-06:00
65.000000,261.053121,0.668581,7.258900,44.934252,288.463120,90.332474,2.000091,3.000000,-93.167440,7.519801,2025-02-27T18:59:14.999-06:00,-0.430222,-0.913524,-0.075906,2025-02-27T18:59:14.275-06:00,-1.303323,0.391112,-0.429374,2025-02-27T18:59:14.276-06:00
66.000000,261.139568,0.670203,9.287714,44.934253,288.549568,90.332474,2.000066,3.000000,-93.167375,5.846537,2025-02-27T18:59:15.999-06:00,-0.418026,-0.915976,-0.070029,2025-02-27T18:59:15.280-06:00,-1.069350,0.338758,-0.324849,2025-02-27T18:59:15.281-06:00
67.000000,261.212257,0.661685,12.507770,44.934254,288.622257,90.332474,2.000053,3.000000,-93.167331,4.284724,2025-02-27T18:59:16.999-06:00,-0.372338,-0.936349,-0.056313,2025-02-27T18:59:16.275-06:00,-0.472018,0.082331,-0.135544,2025-02-27T18:59:16.276-06:00
68.000000,261.047438,0.673326,17.802380,44.934253,288.457438,90.332474,2.000044,3.000000,-93.167300,3.030695,2025-02-27T18:59:17.999-06:00,-0.374811,-0.927142,-0.059712,2025-02-27T18:59:17.279-06:00,-0.464702,0.170418,-0.145131,2025-02-27T18:59:17.280-06:00
69.000000,,,,,,,,,,,,-0.358566,-0.929945,-0.055977,2025-02-27T18:59:18.274-06:00,-0.293309,0.129883,-0.146024,2025-02-27T18:59:18.275-06:00
