seconds_elapsed,location_altitude,location_speedAccuracy,location_bearingAccuracy,location_latitude,location_altitudeAboveMeanSeaLevel,location_bearing,location_horizontalAccuracy,location_verticalAccuracy,location_longitude,location_speed,location_local_time,accelerometerUncalibrated_z,accelerometerUncalibrated_y,accelerometerUncalibrated_x,accelerometerUncalibrated_local_time,accelerometer_z,accelerometer_y,accelerometer_x,accelerometer_local_time
0.000000,259.128458,-1.000000,-1.000000,44.942040,286.538458,-1.000000,280.715331,3.000000,-93.167117,-1.000000,2025-02-27T19:17:59.350-06:00,-0.253479,-0.959529,-0.229950,2025-02-27T19:17:59.345-06:00,0.241608,0.005911,-2.164225,2025-02-27T19:17:59.356-06:00
1.000000,258.327637,2.700000,23.043532,44.941716,285.737637,285.820312,3.535534,3.000000,-93.167210,7.440000,2025-02-27T19:18:00.999-06:00,-0.214226,-0.954496,-0.230230,2025-02-27T19:18:00.330-06:00,0.650429,0.046856,-2.023340,2025-02-27T19:18:00.331-06:00
2.000000,259.284058,0.980000,12.656072,44.941697,286.694057,264.726562,3.535534,3.000000,-93.167262,5.050000,2025-02-27T19:18:01.999-06:00,-0.151909,-0.987288,-0.069345,2025-02-27T19:18:01.334-06:00,1.390241,-0.324772,-0.209818,2025-02-27T19:18:01.336-06:00
3.000000,259.371216,0.970000,8.122770,44.941694,286.781216,268.242188,3.535534,3.000000,-93.167341,6.450000,2025-02-27T19:18:02.999-06:00,-0.180304,-0.979456,0.017300,2025-02-27T19:18:02.339-06:00,1.051728,-0.218082,0.648837,2025-02-27T19:18:02.330-06:00
4.000000,258.619629,0.960000,6.628011,44.941697,286.029629,270.292633,3.535534,3.000000,-93.167443,7.780000,2025-02-27T19:18:03.999-06:00,-0.211003,-0.987982,-0.010242,2025-02-27T19:18:03.334-06:00,0.651026,-0.267074,0.478823,2025-02-27T19:18:03.335-06:00
5.000000,257.957397,0.110000,0.788890,44.941703,285.367397,270.292633,3.535534,3.000000,-93.167559,9.540000,2025-02-27T19:18:04.999-06:00,-0.249657,-0.972403,0.004960,2025-02-27T19:18:04.338-06:00,0.124946,-0.100364,0.435046,2025-02-27T19:18:04.330-06:00
6.000000,258.390442,0.460000,3.042456,44.941704,285.800442,270.292633,3.535534,3.000000,-93.167684,9.540000,2025-02-27T19:18:06.000-06:00,-0.247334,-0.963113,0.019820,2025-02-27T19:18:05.333-06:00,0.132435,0.027205,0.485233,2025-02-27T19:18:05.334-06:00
7.000000,255.721130,1.940000,8.737375,44.941718,283.131130,270.292633,3.535534,3.000000,-93.167809,9.540000,2025-02-27T19:18:07.000-06:00,-0.303106,-0.955411,0.006443,2025-02-27T19:18:06.338-06:00,-0.451803,0.081873,0.383991,2025-02-27T19:18:06.339-06:00
8.000000,256.012451,1.610000,5.903942,44.941710,283.422451,270.292633,3.535534,3.000000,-93.167948,11.030000,2025-02-27T19:18:08.000-06:00,-0.288687,-0.943713,-0.018324,2025-02-27T19:18:07.332-06:00,-0.395013,0.241872,0.198054,2025-02-27T19:18:07.333-06:00
9.000000,255.067139,0.560000,3.598309,44.941712,282.477139,270.292633,3.535534,3.000000,-93.168080,11.030000,2025-02-27T19:18:09.000-06:00,-0.319682,-0.954541,-0.022163,2025-02-27T19:18:08.337-06:00,-0.643310,0.130302,0.221859,2025-02-27T19:18:08.338-06:00
10.000000,254.794189,1.260000,6.689256,44.941711,282.204189,270.234100,3.535534,3.000000,-93.168210,10.290000,2025-02-27T19:18:10.000-06:00,-0.295694,-0.935367,-0.023235,2025-02-27T19:18:09.331-06:00,-0.476169,0.315150,0.128341,2025-02-27T19:18:09.333-06:00
11.000000,254.162842,0.780000,4.923709,44.941713,281.572842,270.234100,3.535534,3.000000,-93.168340,10.280000,2025-02-27T19:18:11.000-06:00,-0.311589,-0.954925,-0.014246,2025-02-27T19:18:10.336-06:00,-0.526147,0.119169,0.164302,2025-02-27T19:18:10.337-06:00
12.000000,254.261475,0.620000,3.928447,44.941709,281.671474,270.234100,3.535534,3.000000,-93.168470,10.280000,2025-02-27T19:18:12.000-06:00,-0.334051,-0.945202,-0.018027,2025-02-27T19:18:11.331-06:00,-0.721349,0.199800,0.112352,2025-02-27T19:18:11.332-06:00
13.000000,254.261483,0.620000,7.258975,44.941705,281.671483,270.234100,4.748652,4.029364,-93.168600,10.280000,2025-02-27T19:18:13.000-06:00,-0.385098,-0.925994,-0.041609,2025-02-27T19:18:12.335-06:00,-1.205401,0.362910,-0.185787,2025-02-27T19:18:12.336-06:00
14.000000,253.840156,0.620000,7.258975,44.941705,281.250156,270.234100,4.748652,4.029364,-93.168716,9.710000,2025-02-27T19:18:14.000-06:00,-0.408836,-0.927557,-0.061252,2025-02-27T19:18:13.330-06:00,-1.373828,0.346513,-0.219825,2025-02-27T19:18:13.331-06:00
15.000000,253.116463,0.400000,7.258975,44.941712,280.526462,270.234100,4.748652,4.029364,-93.168828,9.710000,2025-02-27T19:18:15.000-06:00,-0.473405,-0.893147,-0.084536,2025-02-27T19:18:14.334-06:00,-2.000819,0.678449,-0.407641,2025-02-27T19:18:14.336-06:00
16.000000,253.082708,1.240000,11.683174,44.941711,280.492708,270.234100,4.748652,4.029364,-93.168920,8.600000,2025-02-27T19:18:16.000-06:00,-0.510037,-0.885170,-0.105603,2025-02-27T19:18:15.339-06:00,-2.199199,0.689207,-0.511806,2025-02-27T19:18:15.330-06:00
17.000000,252.837896,1.590000,19.201726,44.941718,280.247895,270.234100,4.748652,4.029364,-93.168981,7.870000,2025-02-27T19:18:17.000-06:00,-0.503562,-0.888633,-0.098084,2025-02-27T19:18:16.334-06:00,-1.905406,0.598885,-0.406978,2025-02-27T19:18:16.335-06:00
18.000000,252.521670,0.960000,24.390898,44.941714,279.931670,270.234100,4.748652,4.029364,-93.168992,5.320000,2025-02-27T19:18:18.000-06:00,-0.414973,-0.918742,-0.074216,2025-02-27T19:18:17.338-06:00,-0.937226,0.265084,-0.150504,2025-02-27T19:18:17.330-06:00
19.000000,252.254089,0.450000,63.969843,44.941714,279.664089,270.234100,4.748652,4.029364,-93.168951,0.570000,2025-02-27T19:18:19.000-06:00,-0.304181,-0.950653,-0.045505,2025-02-27T19:18:18.333-06:00,0.153103,-0.052179,0.164615,2025-02-27T19:18:18.334-06:00
20.000000,252.193604,0.910000,129.361244,44.941714,279.603603,270.234100,4.748652,4.029364,-93.168965,0.570000,2025-02-27T19:18:20.000-06:00,-0.201279,-0.978797,-0.013032,2025-02-27T19:18:19.338-06:00,1.116512,-0.310289,0.464280,2025-02-27T19:18:19.339-06:00
21.000000,252.281189,1.319280,180.000000,44.941710,279.691189,270.234100,4.748652,4.029364,-93.168958,0.560000,2025-02-27T19:18:21.000-06:00,-0.134872,-1.002154,0.012544,2025-02-27T19:18:20.332-06:00,1.731702,-0.524604,0.685966,2025-02-27T19:18:20.333-06:00
22.000000,252.496948,0.920000,133.118200,44.941697,279.906948,270.234100,4.748652,4.029364,-93.169010,0.560000,2025-02-27T19:18:22.000-06:00,-0.117482,-1.008759,0.013901,2025-02-27T19:18:21.337-06:00,1.688992,-0.524871,0.674588,2025-02-27T19:18:21.338-06:00
23.000000,252.525575,0.510000,11.773367,44.941704,279.935575,270.234100,4.748652,4.029364,-93.169085,3.510000,2025-02-27T19:18:23.000-06:00,-0.149238,-0.983175,-0.002753,2025-02-27T19:18:22.331-06:00,1.359418,-0.245880,0.442043,2025-02-27T19:18:22.333-06:00
24.000000,252.921817,0.308016,7.258975,44.941699,280.331816,270.234100,4.748652,4.029364,-93.169178,5.640000,2025-02-27T19:18:24.000-06:00,-0.155873,-0.986369,0.001647,2025-02-27T19:18:23.336-06:00,1.264534,-0.284440,0.475247,2025-02-27T19:18:23.337-06:00
25.000000,253.196476,0.308016,7.258975,44.941696,280.606475,268.945253,4.748652,4.029364,-93.169266,6.600000,2025-02-27T19:18:25.000-06:00,-0.181799,-0.983126,0.010106,2025-02-27T19:18:24.331-06:00,1.136993,-0.299512,0.494033,2025-02-27T19:18:24.332-06:00
26.000000,252.888248,0.500000,7.258975,44.941698,280.298248,269.648378,4.748652,4.029364,-93.169356,6.600000,2025-02-27T19:18:25.999-06:00,-0.201768,-0.987040,-0.019635,2025-02-27T19:18:25.335-06:00,0.812070,-0.280285,0.270296,2025-02-27T19:18:25.336-06:00
27.000000,252.578252,1.420000,14.981826,44.941690,279.988252,266.835869,4.748652,4.029364,-93.169476,7.680000,2025-02-27T19:18:26.999-06:00,-0.248900,-0.956379,-0.032673,2025-02-27T19:18:26.330-06:00,0.241305,0.027995,0.223599,2025-02-27T19:18:26.331-06:00
28.000000,252.313664,2.790000,29.436124,44.941697,279.723664,269.648369,4.748652,4.029364,-93.169569,7.680000,2025-02-27T19:18:27.999-06:00,-0.295090,-0.955294,-0.070515,2025-02-27T19:18:27.334-06:00,-0.271445,0.050242,-0.158619,2025-02-27T19:18:27.336-06:00
29.000000,252.601996,2.310000,20.345191,44.941691,280.011996,270.133820,4.748652,4.029364,-93.169710,9.200000,2025-02-27T19:18:28.999-06:00,-0.289698,-0.944822,-0.054492,2025-02-27T19:18:28.339-06:00,-0.211426,0.184598,-0.050150,2025-02-27T19:18:28.330-06:00
30.000000,252.932136,2.510000,21.274210,44.941696,280.342136,270.133820,4.748652,4.029364,-93.169836,9.560000,2025-02-27T19:18:29.999-06:00,-0.299875,-0.960936,-0.058507,2025-02-27T19:18:29.334-06:00,-0.349643,0.028827,-0.175936,2025-02-27T19:18:29.335-06:00
31.000000,252.419379,1.400000,12.330419,44.941687,279.829379,270.133820,4.748652,4.029364,-93.169936,9.200000,2025-02-27T19:18:30.999-06:00,-0.267818,-0.951286,-0.047112,2025-02-27T19:18:30.338-06:00,-0.013452,0.116313,-0.139317,2025-02-27T19:18:30.330-06:00
32.000000,252.601874,0.560000,7.258975,44.941690,280.011874,270.133820,4.748652,4.029364,-93.170041,8.880000,2025-02-27T19:18:31.999-06:00,-0.290343,-0.962799,-0.070478,2025-02-27T19:18:31.333-06:00,-0.287710,0.019831,-0.308024,2025-02-27T19:18:31.334-06:00
33.000000,256.488341,1.266368,11.770563,44.941691,283.898341,270.133820,2.490068,3.000000,-93.170160,8.715892,2025-02-27T19:18:32.999-06:00,-0.280585,-0.948827,-0.042393,2025-02-27T19:18:32.337-06:00,-0.216296,0.163254,-0.024266,2025-02-27T19:18:32.339-06:00
34.000000,256.128261,1.268779,11.977314,44.941697,283.538261,270.133820,2.000000,3.000000,-93.170263,8.583462,2025-02-27T19:18:33.999-06:00,-0.281121,-0.954871,-0.006953,2025-02-27T19:18:33.332-06:00,-0.124455,0.057640,0.195437,2025-02-27T19:18:33.333-06:00
35.000000,256.047216,1.272968,12.347405,44.941703,283.457216,270.133820,2.000000,3.000000,-93.170371,8.353707,2025-02-27T19:18:34.999-06:00,-0.326884,-0.945048,-0.015361,2025-02-27T19:18:34.337-06:00,-0.484609,0.153756,-0.042239,2025-02-27T19:18:34.338-06:00
36.000000,256.300200,1.368837,14.178918,44.941708,283.710200,270.133820,2.431163,3.000000,-93.170470,7.822375,2025-02-27T19:18:35.999-06:00,-0.437188,-0.907451,-0.051171,2025-02-27T19:18:35.331-06:00,-1.527031,0.500555,-0.366867,2025-02-27T19:18:35.333-06:00
37.000000,255.903520,0.747740,9.251639,44.941708,283.313520,270.133820,2.481117,3.000000,-93.170544,6.541039,2025-02-27T19:18:36.999-06:00,-0.479481,-0.905246,-0.097501,2025-02-27T19:18:36.336-06:00,-1.904796,0.513715,-0.638502,2025-02-27T19:18:36.337-06:00
38.000000,255.857889,0.680044,9.141836,44.941709,283.267889,270.133820,2.338525,3.000000,-93.170626,6.026980,2025-02-27T19:18:37.999-06:00,-0.493071,-0.889276,-0.085010,2025-02-27T19:18:37.331-06:00,-1.913773,0.648912,-0.586682,2025-02-27T19:18:37.332-06:00
39.000000,256.588069,0.689831,15.811096,44.941722,283.998069,270.133820,2.306804,3.000000,-93.170654,3.371161,2025-02-27T19:18:38.999-06:00,-0.427903,-0.913357,-0.055065,2025-02-27T19:18:38.335-06:00,-0.981301,0.304397,-0.302781,2025-02-27T19:18:38.336-06:00
40.000000,256.433407,0.719126,48.315308,44.941714,283.843406,270.133820,2.280225,3.000000,-93.170653,1.068134,2025-02-27T19:18:39.999-06:00,-0.244762,-0.970440,0.004746,2025-02-27T19:18:39.330-06:00,0.818874,-0.258611,0.271795,2025-02-27T19:18:39.331-06:00
41.000000,256.326400,0.743251,45.557184,44.941720,283.736400,270.133820,2.435846,3.000000,-93.170669,1.091622,2025-02-27T19:18:40.999-06:00,-0.130580,-0.993999,0.044909,2025-02-27T19:18:40.334-06:00,1.838509,-0.466039,0.624134,2025-02-27T19:18:40.336-06:00
42.000000,256.458115,0.685072,20.186833,44.941721,283.868115,270.133820,2.489649,3.000000,-93.170711,2.575615,2025-02-27T19:18:41.999-06:00,-0.115449,-1.003676,0.041893,2025-02-27T19:18:41.339-06:00,2.043450,-0.554864,0.587440,2025-02-27T19:18:41.330-06:00
43.000000,255.747445,0.665014,12.470537,44.941723,283.157444,270.133820,2.428443,3.000000,-93.170774,4.184277,2025-02-27T19:18:42.999-06:00,-0.139358,-0.995639,0.052673,2025-02-27T19:18:42.334-06:00,1.528258,-0.362391,0.561799,2025-02-27T19:18:42.335-06:00
44.000000,254.660217,0.749136,7.975813,44.941721,282.070217,270.133820,2.514268,3.000000,-93.170881,6.963001,2025-02-27T19:18:43.999-06:00,-0.184027,-0.982187,0.039566,2025-02-27T19:18:43.338-06:00,1.016733,-0.268474,0.433205,2025-02-27T19:18:43.330-06:00
45.000000,255.363190,0.671607,8.195339,44.941719,282.773190,271.131852,2.497906,3.000000,-93.170947,6.600431,2025-02-27T19:18:44.999-06:00,-0.194106,-0.985334,0.030379,2025-02-27T19:18:44.333-06:00,1.011859,-0.303731,0.408848,2025-02-27T19:18:44.334-06:00
46.000000,255.154010,0.675087,10.587885,44.941708,282.564010,263.662401,2.487976,3.000000,-93.170992,5.057828,2025-02-27T19:18:45.999-06:00,-0.212088,-0.974802,0.019022,2025-02-27T19:18:45.337-06:00,0.744424,-0.165928,0.309146,2025-02-27T19:18:45.339-06:00
47.000000,254.776350,0.745053,11.550034,44.941701,282.186349,261.336457,2.469101,3.000000,-93.171063,5.083877,2025-02-27T19:18:46.999-06:00,-0.284821,-0.967421,-0.042561,2025-02-27T19:18:46.332-06:00,-0.000236,-0.088844,-0.037339,2025-02-27T19:18:46.333-06:00
48.000000,255.073377,0.676442,7.257503,44.941698,282.483377,265.488778,2.448783,3.000000,-93.171247,9.375157,2025-02-27T19:18:47.999-06:00,-0.259400,-0.947932,-0.052767,2025-02-27T19:18:47.337-06:00,0.092587,0.142779,-0.088288,2025-02-27T19:18:47.338-06:00
49.000000,254.641362,0.659392,7.252039,44.941698,282.051361,266.780626,2.297015,3.000000,-93.171345,8.749553,2025-02-27T19:18:48.999-06:00,-0.231956,-0.971594,-0.048051,2025-02-27T19:18:48.331-06:00,0.276856,-0.067375,0.040312,2025-02-27T19:18:48.333-06:00
50.000000,254.656174,0.647358,7.257295,44.941692,282.066174,266.536550,2.303491,3.000000,-93.171451,8.472997,2025-02-27T19:18:49.999-06:00,-0.244680,-0.960569,-0.080434,2025-02-27T19:18:49.336-06:00,0.154763,0.013425,-0.171159,2025-02-27T19:18:49.337-06:00
51.000000,254.566575,0.653686,7.415980,44.941689,281.976575,266.778299,2.206096,3.000000,-93.171534,7.124082,2025-02-27T19:18:50.999-06:00,-0.246532,-0.963741,-0.087317,2025-02-27T19:18:50.331-06:00,0.082500,-0.016674,-0.183581,2025-02-27T19:18:50.332-06:00
52.000000,254.396484,0.647313,7.258401,44.941696,281.806484,271.779139,2.495135,3.000000,-93.171690,9.712823,2025-02-27T19:18:51.999-06:00,-0.231409,-0.956298,-0.078097,2025-02-27T19:18:51.335-06:00,0.276434,0.108046,-0.150832,2025-02-27T19:18:51.336-06:00
53.000000,254.193435,0.648564,7.256463,44.941702,281.603435,273.768907,2.309509,3.000000,-93.171812,9.896811,2025-02-27T19:18:52.999-06:00,-0.246874,-0.975985,-0.042466,2025-02-27T19:18:52.330-06:00,0.087267,-0.103844,0.080751,2025-02-27T19:18:52.331-06:00
54.000000,253.631548,0.662608,7.235947,44.941712,281.041548,275.483160,2.192652,3.000000,-93.171929,9.620541,2025-02-27T19:18:53.999-06:00,-0.242914,-0.965126,-0.021860,2025-02-27T19:18:53.334-06:00,0.132334,0.041160,0.244931,2025-02-27T19:18:53.336-06:00
55.000000,253.849496,0.640941,7.255774,44.941708,281.259496,270.554151,2.117547,3.000000,-93.172059,9.893338,2025-02-27T19:18:54.999-06:00,-0.244474,-0.954659,-0.031410,2025-02-27T19:18:54.339-06:00,0.242673,0.026061,0.196225,2025-02-27T19:18:54.330-06:00
56.000000,253.526479,0.685297,7.251949,44.941703,280.936479,267.962319,2.158312,3.000000,-93.172186,9.974929,2025-02-27T19:18:55.999-06:00,-0.259160,-0.972155,-0.057384,2025-02-27T19:18:55.334-06:00,-0.041814,-0.083542,0.052529,2025-02-27T19:18:55.335-06:00
57.000000,253.614970,0.729064,7.258045,44.941694,281.024970,266.027914,2.437106,3.000000,-93.172319,10.144938,2025-02-27T19:18:56.999-06:00,-0.283706,-0.950091,-0.078407,2025-02-27T19:18:56.338-06:00,-0.336670,0.171749,-0.145671,2025-02-27T19:18:56.330-06:00
58.000000,253.967540,0.768750,7.258961,44.941681,281.377540,270.130157,2.247455,3.000000,-93.172444,9.910413,2025-02-27T19:18:57.999-06:00,-0.283417,-0.949138,-0.085475,2025-02-27T19:18:57.333-06:00,-0.300514,0.160505,-0.198913,2025-02-27T19:18:57.334-06:00
59.000000,253.540646,0.781060,7.257136,44.941679,280.950646,270.130157,2.224804,3.000000,-93.172553,8.982012,2025-02-27T19:18:58.999-06:00,-0.282361,-0.962849,-0.094812,2025-02-27T19:18:58.337-06:00,-0.306972,0.024911,-0.177271,2025-02-27T19:18:58.339-06:00
60.000000,252.814589,0.666091,7.249421,44.941700,280.224589,270.130157,2.377244,3.000000,-93.172711,10.146233,2025-02-27T19:18:59.999-06:00,-0.290610,-0.943628,-0.073103,2025-02-27T19:18:59.332-06:00,-0.331942,0.192882,-0.064508,2025-02-27T19:18:59.333-06:00
61.000000,252.700731,0.655523,7.251170,44.941702,280.110731,270.130157,2.211882,3.000000,-93.172846,10.409882,2025-02-27T19:19:00.999-06:00,-0.247486,-0.961701,-0.086211,2025-02-27T19:19:00.337-06:00,0.071841,0.035656,-0.306372,2025-02-27T19:19:00.338-06:00
62.000000,252.770159,0.651288,7.254920,44.941706,280.180159,270.130157,2.121653,3.000000,-93.172956,9.278261,2025-02-27T19:19:01.999-06:00,-0.257154,-0.962110,-0.066725,2025-02-27T19:19:01.331-06:00,0.056594,0.011035,-0.158751,2025-02-27T19:19:01.333-06:00
63.000000,252.969555,0.650918,7.258942,44.941710,280.379555,270.130157,2.259319,3.000000,-93.173085,9.609871,2025-02-27T19:19:02.999-06:00,-0.268215,-0.961412,-0.020715,2025-02-27T19:19:02.336-06:00,0.006777,0.019587,0.095230,2025-02-27T19:19:02.337-06:00
64.000000,252.615862,0.660449,7.257230,44.941716,280.025862,270.130157,2.148894,3.000000,-93.173211,9.689550,2025-02-27T19:19:03.999-06:00,-0.270711,-0.958452,-0.016710,2025-02-27T19:19:03.331-06:00,-0.010845,0.034066,0.096382,2025-02-27T19:19:03.332-06:00
65.000000,252.084811,0.659569,7.251875,44.941716,279.494811,270.403077,2.084885,3.000000,-93.173345,10.148943,2025-02-27T19:19:04.999-06:00,-0.268726,-0.958347,-0.002165,2025-02-27T19:19:04.335-06:00,0.085397,0.033222,-0.093650,2025-02-27T19:19:04.336-06:00
66.000000,252.583216,0.665903,7.258955,44.941716,279.993216,270.246174,2.123064,3.000000,-93.173473,10.094024,2025-02-27T19:19:05.999-06:00,-0.307878,-0.941035,0.022355,2025-02-27T19:19:05.330-06:00,-0.139362,0.127181,0.075238,2025-02-27T19:19:05.331-06:00
67.000000,251.720985,0.667563,7.250902,44.941721,279.130985,270.745879,2.069831,3.000000,-93.173601,10.047870,2025-02-27T19:19:06.999-06:00,-0.315737,-0.951854,0.016986,2025-02-27T19:19:06.334-06:00,-0.187504,0.050537,0.121325,2025-02-27T19:19:06.336-06:00
68.000000,252.027868,0.653894,7.258644,44.941724,279.437868,271.365949,2.050330,3.000000,-93.173726,9.914088,2025-02-27T19:19:07.999-06:00,-0.392914,-0.920384,-0.013317,2025-02-27T19:19:07.339-06:00,-0.919256,0.319651,-0.152496,2025-02-27T19:19:07.330-06:00
69.000000,252.853773,0.669403,7.242917,44.941726,280.263772,269.529907,2.028738,3.000000,-93.173844,9.304653,2025-02-27T19:19:08.999-06:00,-0.403889,-0.923986,-0.035187,2025-02-27T19:19:08.334-06:00,-1.123412,0.332011,-0.335318,2025-02-27T19:19:08.335-06:00
70.000000,252.506865,0.657022,7.255394,44.941726,279.916865,268.270569,2.335857,3.000000,-93.173938,7.968581,2025-02-27T19:19:09.999-06:00,-0.428938,-0.910011,-0.029623,2025-02-27T19:19:09.338-06:00,-1.226345,0.409951,-0.199006,2025-02-27T19:19:09.330-06:00
71.000000,252.182760,0.660422,8.278629,44.941714,279.592760,261.262909,2.282190,3.000000,-93.174012,6.456913,2025-02-27T19:19:10.999-06:00,-0.416646,-0.912429,-0.013974,2025-02-27T19:19:10.333-06:00,-1.112805,0.399708,0.103074,2025-02-27T19:19:10.334-06:00
72.000000,252.134926,0.668742,9.233182,44.941711,279.544926,261.262909,2.331815,3.000000,-93.174088,5.866703,2025-02-27T19:19:11.999-06:00,-0.440952,-0.919588,-0.057065,2025-02-27T19:19:11.337-06:00,-1.237881,0.279529,-0.240922,2025-02-27T19:19:11.339-06:00
73.000000,252.501037,0.719461,14.205174,44.941703,279.911037,261.262909,2.317429,3.000000,-93.174128,4.085589,2025-02-27T19:19:12.999-06:00,-0.482215,-0.885406,-0.093373,2025-02-27T19:19:12.332-06:00,-1.432192,0.542772,-0.523140,2025-02-27T19:19:12.333-06:00
74.000000,252.387641,0.665156,33.721085,44.941702,279.797640,261.262909,2.264524,3.000000,-93.174134,1.596252,2025-02-27T19:19:13.999-06:00,-0.315892,-0.947642,-0.055143,2025-02-27T19:19:13.337-06:00,0.346227,-0.123492,-0.075706,2025-02-27T19:19:13.338-06:00
75.000000,252.663724,0.920440,58.772309,44.941703,280.073724,260.267487,2.358594,3.000000,-93.174147,1.104484,2025-02-27T19:19:14.999-06:00,-0.187952,-0.984592,-0.007697,2025-02-27T19:19:14.331-06:00,1.517539,-0.452176,0.343142,2025-02-27T19:19:14.333-06:00
76.000000,253.257645,0.958612,180.000000,44.941709,280.667645,260.267487,2.507469,3.000000,-93.174173,1.789423,2025-02-27T19:19:15.999-06:00,-0.118682,-1.004324,0.007826,2025-02-27T19:19:15.336-06:00,1.975547,-0.566649,0.368351,2025-02-27T19:19:15.337-06:00
77.000000,,,,,,,,,,,,-0.129004,-1.013044,0.020539,2025-02-27T19:19:16.331-06:00,1.783040,-0.619506,0.309087,2025-02-27T19:19:16.332-06:00
