seconds_elapsed,location_altitude,location_speedAccuracy,location_bearingAccuracy,location_latitude,location_altitudeAboveMeanSeaLevel,location_bearing,location_horizontalAccuracy,location_verticalAccuracy,location_longitude,location_speed,location_local_time,accelerometerUncalibrated_z,accelerometerUncalibrated_y,accelerometerUncalibrated_x,accelerometerUncalibrated_local_time,accelerometer_z,accelerometer_y,accelerometer_x,accelerometer_local_time
0.000000,260.035489,-0.446667,9.263943,44.935288,287.445489,33.200521,267.937104,7.333333,-93.171038,-0.203333,2025-02-27T19:29:01.148-06:00,-0.219677,-0.973377,-0.044047,2025-02-27T19:29:01.107-06:00,0.341455,-0.073411,0.100248,2025-02-27T19:29:01.113-06:00
1.000000,260.759766,1.710000,44.149554,44.934464,288.169765,188.085938,5.422101,4.000000,-93.170282,2.220000,2025-02-27T19:29:02.999-06:00,-0.058576,-1.018989,-0.005235,2025-02-27T19:29:02.092-06:00,1.807148,-0.494855,0.465170,2025-02-27T19:29:02.088-06:00
2.000000,260.661133,0.990000,17.110613,44.934525,288.071133,356.484375,3.723915,3.000000,-93.170286,2.220000,2025-02-27T19:29:03.999-06:00,-0.090007,-1.010341,-0.016334,2025-02-27T19:29:03.096-06:00,1.387187,-0.375237,0.311604,2025-02-27T19:29:03.093-06:00
3.000000,260.444946,0.990000,14.368638,44.934570,287.854946,359.753693,3.535534,3.000000,-93.170289,3.120000,2025-02-27T19:29:04.999-06:00,-0.140787,-0.994909,-0.020666,2025-02-27T19:29:04.091-06:00,0.797525,-0.206876,0.197896,2025-02-27T19:29:04.097-06:00
4.000000,259.712219,0.150000,1.645668,44.934617,287.122219,359.753693,3.535534,3.000000,-93.170294,6.200000,2025-02-27T19:29:05.999-06:00,-0.166358,-0.990482,-0.042211,2025-02-27T19:29:05.096-06:00,0.511579,-0.145854,-0.094169,2025-02-27T19:29:05.092-06:00
5.000000,260.678406,0.120000,1.168018,44.934686,288.088406,359.753693,3.535534,3.000000,-93.170274,6.860000,2025-02-27T19:29:06.999-06:00,-0.206211,-0.975686,-0.025422,2025-02-27T19:29:06.090-06:00,0.014798,0.027300,0.023700,2025-02-27T19:29:06.096-06:00
6.000000,261.454041,0.080000,0.790025,44.934753,288.864040,359.753693,3.535534,3.000000,-93.170275,6.660000,2025-02-27T19:29:08.000-06:00,-0.286296,-0.953692,-0.053581,2025-02-27T19:29:07.095-06:00,-0.739778,0.222599,-0.217104,2025-02-27T19:29:07.091-06:00
7.000000,261.503296,0.090000,1.005490,44.934805,288.913296,359.753693,3.535534,3.000000,-93.170275,6.660000,2025-02-27T19:29:09.000-06:00,-0.304758,-0.950777,-0.059187,2025-02-27T19:29:08.089-06:00,-0.935762,0.263708,-0.253700,2025-02-27T19:29:08.096-06:00
8.000000,261.473633,0.120000,1.737895,44.934854,288.883633,359.753693,3.535534,3.000000,-93.170275,4.770000,2025-02-27T19:29:10.000-06:00,-0.335801,-0.939583,-0.072580,2025-02-27T19:29:09.094-06:00,-1.172615,0.347871,-0.340392,2025-02-27T19:29:09.090-06:00
9.000000,260.828369,0.700000,11.057193,44.934892,288.238369,359.753693,3.535534,3.000000,-93.170276,4.770000,2025-02-27T19:29:11.000-06:00,-0.364726,-0.930368,-0.089342,2025-02-27T19:29:10.089-06:00,-1.436676,0.433112,-0.419540,2025-02-27T19:29:10.095-06:00
10.000000,260.256836,1.910000,29.030664,44.934930,287.666836,359.753693,3.535534,3.000000,-93.170276,4.120000,2025-02-27T19:29:12.000-06:00,-0.389119,-0.921497,-0.103173,2025-02-27T19:29:11.093-06:00,-1.609207,0.510992,-0.517778,2025-02-27T19:29:11.089-06:00
11.000000,260.724976,0.770000,12.010738,44.934939,288.134975,0.631466,3.535534,3.000000,-93.170276,4.100000,2025-02-27T19:29:13.000-06:00,-0.265801,-0.950922,-0.076417,2025-02-27T19:29:12.088-06:00,-0.401068,0.212407,-0.227142,2025-02-27T19:29:12.094-06:00
12.000000,260.552979,0.100000,3.347260,44.934964,287.962978,0.631466,3.535534,3.000000,-93.170275,1.940000,2025-02-27T19:29:14.000-06:00,-0.232904,-0.979712,-0.031611,2025-02-27T19:29:13.092-06:00,0.084678,-0.095587,0.159430,2025-02-27T19:29:13.089-06:00
13.000000,260.552979,0.308016,12.864969,44.934981,287.962979,0.631466,4.748652,4.029364,-93.170275,1.940000,2025-02-27T19:29:15.000-06:00,-0.178102,-0.975873,-0.043467,2025-02-27T19:29:14.097-06:00,0.800910,-0.118579,0.086884,2025-02-27T19:29:14.093-06:00
14.000000,261.088990,0.308016,8.665986,44.935013,288.498990,0.631466,4.748652,4.029364,-93.170275,2.880000,2025-02-27T19:29:16.000-06:00,-0.142760,-0.998062,-0.014185,2025-02-27T19:29:15.092-06:00,1.160707,-0.332237,0.292641,2025-02-27T19:29:15.088-06:00
15.000000,261.325075,0.308016,7.258975,44.935057,288.735075,0.631466,4.748652,4.029364,-93.170274,4.230000,2025-02-27T19:29:17.000-06:00,-0.184095,-0.981220,-0.025689,2025-02-27T19:29:16.096-06:00,0.740966,-0.159520,0.164989,2025-02-27T19:29:16.093-06:00
16.000000,261.270204,0.308016,7.258975,44.935102,288.680204,0.631466,4.748652,4.029364,-93.170273,4.230000,2025-02-27T19:29:18.000-06:00,-0.208968,-0.973145,-0.023855,2025-02-27T19:29:17.091-06:00,0.505217,-0.089921,0.202226,2025-02-27T19:29:17.097-06:00
17.000000,261.318118,0.308016,7.258975,44.935164,288.728117,0.631466,4.748652,4.029364,-93.170293,5.490000,2025-02-27T19:29:19.000-06:00,-0.213932,-0.983484,-0.033546,2025-02-27T19:29:18.095-06:00,0.390551,-0.163374,0.133416,2025-02-27T19:29:18.092-06:00
18.000000,261.498050,0.308016,7.258975,44.935223,288.908050,0.631466,4.748652,4.029364,-93.170291,6.100000,2025-02-27T19:29:20.000-06:00,-0.229215,-0.970209,-0.033531,2025-02-27T19:29:19.090-06:00,0.212262,-0.040694,0.193494,2025-02-27T19:29:19.096-06:00
19.000000,262.025821,1.220000,15.816757,44.935278,289.435821,0.631466,4.748652,4.029364,-93.170271,6.250000,2025-02-27T19:29:21.000-06:00,-0.217296,-0.973978,-0.041687,2025-02-27T19:29:20.095-06:00,0.175736,-0.034440,0.107615,2025-02-27T19:29:20.091-06:00
20.000000,262.322513,2.470000,32.022451,44.935325,289.732513,0.631466,4.748652,4.029364,-93.170270,6.250000,2025-02-27T19:29:22.000-06:00,-0.223322,-0.973318,-0.040594,2025-02-27T19:29:21.089-06:00,0.147398,-0.026613,0.041724,2025-02-27T19:29:21.096-06:00
21.000000,261.523380,1.410000,18.280022,44.935414,288.933379,0.631466,4.748652,4.029364,-93.170268,6.250000,2025-02-27T19:29:23.000-06:00,-0.233111,-0.973020,-0.049995,2025-02-27T19:29:22.094-06:00,0.072811,-0.035082,-0.060534,2025-02-27T19:29:22.090-06:00
22.000000,261.827032,0.310000,7.258975,44.935501,289.237031,0.631466,4.748652,4.029364,-93.170267,8.070000,2025-02-27T19:29:24.000-06:00,-0.257305,-0.956817,-0.047636,2025-02-27T19:29:23.089-06:00,-0.169626,0.125727,-0.053783,2025-02-27T19:29:23.095-06:00
23.000000,261.748846,0.308016,7.258975,44.935580,289.158846,0.075205,4.748652,4.029364,-93.170266,8.460000,2025-02-27T19:29:25.000-06:00,-0.278324,-0.949395,-0.054846,2025-02-27T19:29:24.093-06:00,-0.349422,0.198661,-0.066226,2025-02-27T19:29:24.089-06:00
24.000000,260.853760,2.030000,15.979374,44.935650,288.263760,0.075205,3.535534,3.000000,-93.170266,8.190000,2025-02-27T19:29:26.000-06:00,-0.289419,-0.955824,-0.075868,2025-02-27T19:29:25.088-06:00,-0.418897,0.108979,-0.203851,2025-02-27T19:29:25.094-06:00
25.000000,260.853765,2.030000,20.083980,44.935723,288.263765,0.075205,4.748652,4.029364,-93.170266,8.190000,2025-02-27T19:29:27.000-06:00,-0.283046,-0.954634,-0.074176,2025-02-27T19:29:26.092-06:00,-0.343238,0.124500,-0.187421,2025-02-27T19:29:26.089-06:00
26.000000,260.827154,2.140000,21.172276,44.935804,288.237154,0.075205,4.748652,4.029364,-93.170266,8.190000,2025-02-27T19:29:28.000-06:00,-0.274116,-0.960679,-0.055347,2025-02-27T19:29:27.097-06:00,-0.217475,0.056824,-0.005342,2025-02-27T19:29:27.093-06:00
27.000000,261.186285,1.910000,18.896750,44.935867,288.596284,0.075205,4.748652,4.029364,-93.170266,8.190000,2025-02-27T19:29:29.000-06:00,-0.248061,-0.966027,-0.057283,2025-02-27T19:29:28.092-06:00,-0.032322,0.026287,-0.058486,2025-02-27T19:29:28.088-06:00
28.000000,261.753178,2.570000,27.877264,44.935920,289.163178,0.075205,4.748652,4.029364,-93.170266,7.470000,2025-02-27T19:29:30.000-06:00,-0.243049,-0.967247,-0.046258,2025-02-27T19:29:29.096-06:00,0.037900,0.005301,-0.052153,2025-02-27T19:29:29.093-06:00
29.000000,261.445440,0.960000,9.486260,44.936002,288.855440,0.075205,4.748652,4.029364,-93.170266,8.200000,2025-02-27T19:29:31.000-06:00,-0.249223,-0.956499,-0.040521,2025-02-27T19:29:30.091-06:00,0.079986,0.079329,0.037617,2025-02-27T19:29:30.097-06:00
30.000000,261.403692,0.308016,7.258975,44.936074,288.813692,0.075205,4.748652,4.029364,-93.170266,8.200000,2025-02-27T19:29:32.000-06:00,-0.253197,-0.968447,-0.045452,2025-02-27T19:29:31.095-06:00,0.030326,-0.027273,0.052588,2025-02-27T19:29:31.092-06:00
31.000000,261.581976,0.308016,7.258975,44.936149,288.991975,0.075205,4.748652,4.029364,-93.170265,8.200000,2025-02-27T19:29:33.000-06:00,-0.276844,-0.957060,-0.060600,2025-02-27T19:29:32.090-06:00,-0.241663,0.092822,-0.060418,2025-02-27T19:29:32.096-06:00
32.000000,261.526006,0.308016,7.258975,44.936224,288.936006,0.075205,4.748652,4.029364,-93.170265,8.300000,2025-02-27T19:29:34.000-06:00,-0.357518,-0.937227,-0.088895,2025-02-27T19:29:33.095-06:00,-0.982370,0.265591,-0.371200,2025-02-27T19:29:33.091-06:00
33.000000,261.164105,1.276330,13.005112,44.936289,288.574105,358.775482,2.273264,3.000000,-93.170277,7.952237,2025-02-27T19:29:35.000-06:00,-0.408712,-0.907069,-0.102026,2025-02-27T19:29:34.089-06:00,-1.410542,0.550905,-0.508054,2025-02-27T19:29:34.096-06:00
34.000000,260.543285,1.270948,15.100580,44.936343,287.953285,358.325409,2.828682,3.000000,-93.170281,6.811325,2025-02-27T19:29:36.000-06:00,-0.416752,-0.918630,-0.095997,2025-02-27T19:29:35.094-06:00,-1.370425,0.398740,-0.449266,2025-02-27T19:29:35.090-06:00
35.000000,260.463328,1.274791,19.849437,44.936379,287.873328,1.631251,2.842322,3.000000,-93.170271,5.196124,2025-02-27T19:29:37.000-06:00,-0.387320,-0.924705,-0.080630,2025-02-27T19:29:36.089-06:00,-1.021498,0.330202,-0.303595,2025-02-27T19:29:36.095-06:00
36.000000,260.484309,1.277851,26.778984,44.936404,287.894309,0.118567,2.561548,3.000000,-93.170274,3.862640,2025-02-27T19:29:38.000-06:00,-0.352064,-0.934150,-0.069798,2025-02-27T19:29:37.093-06:00,-0.603254,0.208235,-0.180116,2025-02-27T19:29:37.089-06:00
37.000000,260.328126,1.280711,38.118404,44.936423,287.738126,0.351403,2.421161,3.000000,-93.170276,2.715326,2025-02-27T19:29:39.000-06:00,-0.296051,-0.961050,-0.043469,2025-02-27T19:29:38.088-06:00,0.015874,-0.085895,0.016033,2025-02-27T19:29:38.094-06:00
38.000000,260.370922,1.275421,46.085060,44.936444,287.780922,0.278290,2.336929,3.000000,-93.170279,2.236021,2025-02-27T19:29:40.000-06:00,-0.255588,-0.955046,0.007146,2025-02-27T19:29:39.092-06:00,0.479173,-0.027301,0.440943,2025-02-27T19:29:39.089-06:00
39.000000,260.666852,0.688567,28.458927,44.936441,288.076852,355.169738,2.297267,3.000000,-93.170286,1.952741,2025-02-27T19:29:41.000-06:00,-0.219914,-0.982340,-0.000028,2025-02-27T19:29:40.097-06:00,0.973871,-0.348350,0.480394,2025-02-27T19:29:40.093-06:00
40.000000,260.381487,0.684418,18.951887,44.936474,287.791487,350.245498,2.254801,3.000000,-93.170297,2.897666,2025-02-27T19:29:42.000-06:00,-0.207232,-0.977350,0.023886,2025-02-27T19:29:41.092-06:00,0.908652,-0.243636,0.574877,2025-02-27T19:29:41.088-06:00
41.000000,260.479667,0.664433,12.255372,44.936521,287.889667,348.692261,2.291124,3.000000,-93.170298,4.391779,2025-02-27T19:29:43.000-06:00,-0.233578,-0.965497,0.088438,2025-02-27T19:29:42.096-06:00,0.633561,-0.104733,0.917798,2025-02-27T19:29:42.092-06:00
42.000000,260.281228,0.656258,10.189641,44.936557,287.691228,330.115295,2.258777,3.000000,-93.170361,5.217740,2025-02-27T19:29:44.000-06:00,-0.235139,-0.984383,0.060937,2025-02-27T19:29:43.091-06:00,0.527715,-0.262972,0.557288,2025-02-27T19:29:43.097-06:00
43.000000,260.452295,0.783816,10.877806,44.936597,287.862295,317.099487,2.232899,3.000000,-93.170413,5.838935,2025-02-27T19:29:44.999-06:00,-0.205865,-0.973250,-0.014484,2025-02-27T19:29:44.095-06:00,0.692983,-0.127712,-0.120359,2025-02-27T19:29:44.092-06:00
44.000000,260.341940,0.672102,10.355818,44.936629,287.751940,317.099487,2.291550,3.000000,-93.170448,5.258887,2025-02-27T19:29:45.999-06:00,-0.199840,-0.971265,-0.095960,2025-02-27T19:29:45.090-06:00,0.623781,-0.065663,-0.626950,2025-02-27T19:29:45.096-06:00
45.000000,260.666155,0.690913,9.773614,44.936680,288.076154,333.371124,2.267254,3.000000,-93.170487,5.718424,2025-02-27T19:29:46.999-06:00,-0.247509,-0.962261,-0.119281,2025-02-27T19:29:46.095-06:00,0.218807,0.001897,-0.810604,2025-02-27T19:29:46.091-06:00
46.000000,260.643056,0.705281,9.333480,44.936731,288.053056,340.416656,2.324523,3.000000,-93.170526,6.114583,2025-02-27T19:29:47.999-06:00,-0.284725,-0.952828,-0.123980,2025-02-27T19:29:47.089-06:00,-0.161302,0.086199,-0.877980,2025-02-27T19:29:47.096-06:00
47.000000,260.467246,0.756024,10.717631,44.936778,287.877246,340.416656,2.342688,3.000000,-93.170547,5.715248,2025-02-27T19:29:48.999-06:00,-0.339023,-0.934009,-0.147858,2025-02-27T19:29:48.094-06:00,-0.739299,0.295168,-1.053532,2025-02-27T19:29:48.090-06:00
48.000000,260.522477,0.714080,12.453440,44.936814,287.932477,346.814728,2.342979,3.000000,-93.170555,4.646412,2025-02-27T19:29:49.999-06:00,-0.406993,-0.917068,-0.128247,2025-02-27T19:29:49.089-06:00,-1.323799,0.436234,-0.889934,2025-02-27T19:29:49.095-06:00
49.000000,260.594121,0.702572,16.557731,44.936841,288.004121,353.429352,2.320113,3.000000,-93.170553,3.438192,2025-02-27T19:29:50.999-06:00,-0.368409,-0.933679,-0.073340,2025-02-27T19:29:50.093-06:00,-0.899958,0.271013,-0.395494,2025-02-27T19:29:50.089-06:00
50.000000,260.495315,0.722238,25.788078,44.936851,287.905315,358.076843,2.331588,3.000000,-93.170554,2.198637,2025-02-27T19:29:51.999-06:00,-0.251371,-0.936705,0.011711,2025-02-27T19:29:51.088-06:00,0.220827,0.235294,0.289511,2025-02-27T19:29:51.094-06:00
51.000000,260.580792,0.746377,31.058671,44.936864,287.990792,358.076843,2.353196,3.000000,-93.170557,1.863489,2025-02-27T19:29:52.999-06:00,-0.183461,-1.008265,-0.045050,2025-02-27T19:29:52.092-06:00,0.944532,-0.486931,-0.024323,2025-02-27T19:29:52.089-06:00
52.000000,260.604868,0.729734,22.575887,44.936889,288.014868,1.198576,2.376417,3.000000,-93.170559,2.482997,2025-02-27T19:29:53.999-06:00,-0.134676,-0.995680,-0.006742,2025-02-27T19:29:53.097-06:00,1.322915,-0.331630,0.416518,2025-02-27T19:29:53.093-06:00
53.000000,261.220092,0.721512,14.953191,44.936932,288.630091,1.198576,2.368227,3.000000,-93.170535,3.845535,2025-02-27T19:29:54.999-06:00,-0.140368,-0.995668,-0.016392,2025-02-27T19:29:54.092-06:00,1.247092,-0.321342,0.345966,2025-02-27T19:29:54.088-06:00
54.000000,261.098172,0.714040,11.764586,44.936985,288.508172,1.198576,2.432898,3.000000,-93.170534,4.917547,2025-02-27T19:29:55.999-06:00,-0.209665,-0.975975,-0.042275,2025-02-27T19:29:55.096-06:00,0.490808,-0.115466,0.091900,2025-02-27T19:29:55.093-06:00
55.000000,261.431493,0.728749,11.182617,44.937036,288.841493,0.311397,2.425292,3.000000,-93.170556,5.274999,2025-02-27T19:29:56.999-06:00,-0.255040,-0.966837,-0.033965,2025-02-27T19:29:56.091-06:00,0.019930,-0.018438,0.181289,2025-02-27T19:29:56.097-06:00
56.000000,261.740066,0.683094,10.010497,44.937086,289.150065,0.311397,2.404028,3.000000,-93.170533,5.503375,2025-02-27T19:29:57.999-06:00,-0.244838,-0.960389,-0.049585,2025-02-27T19:29:57.095-06:00,0.107328,0.041972,0.056303,2025-02-27T19:29:57.092-06:00
57.000000,261.778590,0.691211,9.700098,44.937138,289.188590,0.311397,2.383826,3.000000,-93.170532,5.764308,2025-02-27T19:29:58.999-06:00,-0.255144,-0.966492,-0.052390,2025-02-27T19:29:58.090-06:00,0.002491,-0.014904,0.020917,2025-02-27T19:29:58.096-06:00
58.000000,262.259142,0.675871,9.585138,44.937187,289.669142,358.623291,2.390934,3.000000,-93.170549,5.675225,2025-02-27T19:29:59.999-06:00,-0.295027,-0.948050,-0.064875,2025-02-27T19:29:59.095-06:00,-0.377144,0.176053,-0.083590,2025-02-27T19:29:59.091-06:00
59.000000,262.507127,0.679301,10.528155,44.937231,289.917127,358.623291,2.371387,3.000000,-93.170547,5.223239,2025-02-27T19:30:00.999-06:00,-0.346396,-0.932495,-0.078389,2025-02-27T19:30:00.089-06:00,-0.842008,0.303625,-0.233107,2025-02-27T19:30:00.096-06:00
60.000000,262.357739,0.676787,12.721439,44.937265,289.767739,358.623291,2.352818,3.000000,-93.170543,4.292580,2025-02-27T19:30:01.999-06:00,-0.416675,-0.917321,-0.086386,2025-02-27T19:30:01.094-06:00,-1.474552,0.439256,-0.333080,2025-02-27T19:30:01.090-06:00
61.000000,262.470257,0.691611,23.145719,44.937277,289.880257,355.608887,2.441184,3.000000,-93.170546,2.379275,2025-02-27T19:30:02.999-06:00,-0.371139,-0.928771,-0.079176,2025-02-27T19:30:02.089-06:00,-0.990396,0.320468,-0.245908,2025-02-27T19:30:02.095-06:00
62.000000,262.642098,0.692459,31.325546,44.937293,290.052098,355.608887,2.475832,3.000000,-93.170542,1.737724,2025-02-27T19:30:03.999-06:00,-0.247905,-0.965961,-0.044844,2025-02-27T19:30:03.093-06:00,0.243959,-0.055836,0.112239,2025-02-27T19:30:03.089-06:00
63.000000,262.921176,0.680836,37.273149,44.937308,290.331175,355.608887,2.736358,3.000000,-93.170539,1.475454,2025-02-27T19:30:04.999-06:00,-0.239704,-0.953872,-0.013391,2025-02-27T19:30:04.088-06:00,0.314981,0.089567,0.224342,2025-02-27T19:30:04.094-06:00
64.000000,263.311396,0.725145,40.014101,44.937323,290.721395,355.608887,2.999118,3.000000,-93.170534,1.358140,2025-02-27T19:30:05.999-06:00,-0.237200,-0.984307,-0.033852,2025-02-27T19:30:05.092-06:00,0.393880,-0.256224,0.153424,2025-02-27T19:30:05.089-06:00
65.000000,263.485013,0.685702,26.349630,44.937350,290.895012,351.451813,3.104128,3.000000,-93.170529,2.078185,2025-02-27T19:30:06.999-06:00,-0.182771,-0.986714,-0.017223,2025-02-27T19:30:06.097-06:00,0.861064,-0.244394,0.296730,2025-02-27T19:30:06.093-06:00
66.000000,263.698032,0.680301,16.865570,44.937386,291.108031,351.451813,3.165654,3.000000,-93.170529,3.208936,2025-02-27T19:30:07.999-06:00,-0.183505,-0.972124,-0.008311,2025-02-27T19:30:07.092-06:00,1.080878,-0.175745,0.319456,2025-02-27T19:30:07.088-06:00
67.000000,263.279252,0.672616,13.622522,44.937426,290.689252,358.194989,3.156161,3.000000,-93.170530,3.947023,2025-02-27T19:30:08.999-06:00,-0.226229,-0.960155,0.003387,2025-02-27T19:30:08.096-06:00,0.954821,-0.147401,0.378307,2025-02-27T19:30:08.093-06:00
68.000000,263.134717,0.672788,11.132294,44.937477,290.544717,358.382704,3.133299,3.000000,-93.170530,4.849874,2025-02-27T19:30:09.999-06:00,-0.226460,-0.975374,-0.011766,2025-02-27T19:30:09.091-06:00,0.932874,-0.281722,0.162351,2025-02-27T19:30:09.097-06:00
69.000000,262.771680,0.683212,9.867668,44.937532,290.181680,0.035059,3.138001,3.000000,-93.170528,5.552238,2025-02-27T19:30:10.999-06:00,-0.221497,-0.972212,-0.053605,2025-02-27T19:30:10.096-06:00,0.844606,-0.207842,-0.040542,2025-02-27T19:30:10.092-06:00
70.000000,262.643226,0.670088,8.653491,44.937592,290.053226,359.783626,3.156689,3.000000,-93.170530,6.250018,2025-02-27T19:30:11.999-06:00,-0.224149,-0.951369,-0.072528,2025-02-27T19:30:11.090-06:00,0.852973,-0.044473,0.034067,2025-02-27T19:30:11.096-06:00
71.000000,262.226432,0.667332,7.285802,44.937663,289.636432,355.313126,3.106453,3.000000,-93.170544,7.338434,2025-02-27T19:30:12.999-06:00,-0.291400,-0.950956,-0.062019,2025-02-27T19:30:12.095-06:00,0.324685,-0.070396,0.037430,2025-02-27T19:30:12.091-06:00
72.000000,261.953722,0.662827,7.309698,44.937727,289.363721,359.739105,3.077947,3.000000,-93.170538,7.273860,2025-02-27T19:30:13.999-06:00,-0.304708,-0.969208,-0.051517,2025-02-27T19:30:13.089-06:00,0.192265,-0.229071,-0.091747,2025-02-27T19:30:13.096-06:00
73.000000,261.578387,0.665624,7.309022,44.937794,288.988387,359.739105,3.055851,3.000000,-93.170540,7.345570,2025-02-27T19:30:14.999-06:00,-0.393095,-0.947553,-0.040465,2025-02-27T19:30:14.094-06:00,-1.041243,0.089541,-0.248072,2025-02-27T19:30:14.090-06:00
74.000000,261.610169,0.667520,8.115428,44.937853,289.020169,0.359243,3.081835,3.000000,-93.170539,6.661957,2025-02-27T19:30:15.999-06:00,-0.394358,-0.935281,-0.027816,2025-02-27T19:30:15.089-06:00,-1.108162,0.239649,-0.249810,2025-02-27T19:30:15.095-06:00
75.000000,261.701845,0.677924,10.130179,44.937898,289.111845,0.359243,3.072449,3.000000,-93.170541,5.409143,2025-02-27T19:30:16.999-06:00,-0.440980,-0.903698,-0.055902,2025-02-27T19:30:16.093-06:00,-1.647197,0.572676,-0.486823,2025-02-27T19:30:16.089-06:00
76.000000,261.599401,0.688838,15.081586,44.937926,289.009400,0.359243,2.993736,3.000000,-93.170540,3.699745,2025-02-27T19:30:17.999-06:00,-0.458423,-0.903347,-0.073514,2025-02-27T19:30:17.088-06:00,-1.733866,0.544155,-0.493248,2025-02-27T19:30:17.094-06:00
77.000000,261.676960,0.696384,24.882537,44.937938,289.086959,0.359243,2.872379,3.000000,-93.170541,2.230374,2025-02-27T19:30:18.999-06:00,-0.283800,-0.975835,-0.035825,2025-02-27T19:30:18.092-06:00,-0.015906,-0.168819,-0.070916,2025-02-27T19:30:18.089-06:00
78.000000,261.502054,0.862066,32.303095,44.937955,288.912054,0.359243,2.863465,3.000000,-93.170544,2.146692,2025-02-27T19:30:19.999-06:00,-0.226898,-0.954633,-0.004603,2025-02-27T19:30:19.097-06:00,0.549049,0.038128,0.181466,2025-02-27T19:30:19.093-06:00
79.000000,261.540296,0.739863,29.618076,44.937969,288.950296,0.359243,2.980556,3.000000,-93.170545,1.969485,2025-02-27T19:30:20.999-06:00,-0.188003,-0.981429,0.006857,2025-02-27T19:30:20.092-06:00,1.135974,-0.279672,0.408304,2025-02-27T19:30:20.088-06:00
80.000000,261.366361,0.685498,19.052790,44.937998,288.776361,0.359243,2.948675,3.000000,-93.170549,2.915019,2025-02-27T19:30:21.999-06:00,-0.177316,-0.978853,0.004964,2025-02-27T19:30:21.096-06:00,1.220852,-0.260186,0.351871,2025-02-27T19:30:21.093-06:00
81.000000,261.223225,0.682850,13.919085,44.938038,288.633225,1.092985,2.988252,3.000000,-93.170553,3.974765,2025-02-27T19:30:22.999-06:00,-0.205624,-0.979611,0.002050,2025-02-27T19:30:22.091-06:00,0.983222,-0.272050,0.290308,2025-02-27T19:30:22.097-06:00
82.000000,260.899185,0.682886,11.196845,44.938087,288.309185,1.092985,2.936206,3.000000,-93.170558,4.930264,2025-02-27T19:30:23.999-06:00,-0.230102,-0.963443,-0.019729,2025-02-27T19:30:23.096-06:00,0.703622,-0.107395,0.086819,2025-02-27T19:30:23.092-06:00
83.000000,260.668965,0.677864,10.051932,44.938139,288.078965,1.092985,2.864191,3.000000,-93.170560,5.459021,2025-02-27T19:30:24.999-06:00,-0.292767,-0.966645,-0.058249,2025-02-27T19:30:24.090-06:00,0.038090,-0.120091,-0.215495,2025-02-27T19:30:24.096-06:00
84.000000,260.485069,0.676063,10.234804,44.938187,287.895068,5.572406,2.848451,3.000000,-93.170560,5.350347,2025-02-27T19:30:25.999-06:00,-0.305781,-0.953459,-0.062540,2025-02-27T19:30:25.095-06:00,-0.152563,0.025043,-0.312781,2025-02-27T19:30:25.091-06:00
85.000000,260.125500,0.679143,10.713385,44.938232,287.535500,5.572406,2.854368,3.000000,-93.170555,5.112169,2025-02-27T19:30:26.999-06:00,-0.330854,-0.942407,-0.084655,2025-02-27T19:30:26.089-06:00,-0.494693,0.173239,-0.576496,2025-02-27T19:30:26.096-06:00
86.000000,260.362952,0.708627,12.986113,44.938267,287.772952,5.572406,2.806803,3.000000,-93.170546,4.419920,2025-02-27T19:30:27.999-06:00,-0.279441,-0.951022,-0.126929,2025-02-27T19:30:27.094-06:00,-0.150555,0.121382,-0.867578,2025-02-27T19:30:27.090-06:00
87.000000,260.231712,0.689106,14.586889,44.938295,287.641712,5.572406,2.759344,3.000000,-93.170528,3.827736,2025-02-27T19:30:28.999-06:00,-0.327379,-0.933388,-0.185340,2025-02-27T19:30:28.089-06:00,-0.514328,0.257703,-1.202752,2025-02-27T19:30:28.095-06:00
88.000000,260.435750,0.686285,15.680880,44.938316,287.845749,40.997288,2.728944,3.000000,-93.170493,3.542314,2025-02-27T19:30:29.999-06:00,-0.269144,-0.953910,-0.152833,2025-02-27T19:30:29.093-06:00,-0.037811,0.069308,-0.726435,2025-02-27T19:30:29.090-06:00
89.000000,260.786539,0.676232,17.632505,44.938329,288.196539,55.110655,2.690579,3.000000,-93.170504,3.038251,2025-02-27T19:30:30.999-06:00,-0.237048,-0.959879,-0.150513,2025-02-27T19:30:30.088-06:00,0.175839,0.022433,-0.561493,2025-02-27T19:30:30.094-06:00
90.000000,260.099178,0.654210,16.825296,44.938283,287.509177,89.740326,5.247365,3.000000,-93.170425,3.132163,2025-02-27T19:30:31.999-06:00,-0.200448,-0.970102,-0.135487,2025-02-27T19:30:31.092-06:00,0.459373,-0.067351,-0.295451,2025-02-27T19:30:31.089-06:00
91.000000,259.711998,0.663803,15.033542,44.938283,287.121998,89.740326,5.548779,3.000000,-93.170379,3.547227,2025-02-27T19:30:32.999-06:00,-0.186258,-0.981318,-0.090691,2025-02-27T19:30:32.097-06:00,0.505060,-0.155683,0.129295,2025-02-27T19:30:32.093-06:00
92.000000,259.790954,0.657769,12.407151,44.938284,287.200953,89.740326,5.637304,3.000000,-93.170320,4.295621,2025-02-27T19:30:33.999-06:00,-0.189048,-0.982287,-0.065104,2025-02-27T19:30:33.092-06:00,0.332868,-0.113875,0.300839,2025-02-27T19:30:33.088-06:00
93.000000,259.558490,0.654851,10.073062,44.938284,286.968489,89.740326,5.457827,3.000000,-93.170247,5.261465,2025-02-27T19:30:34.999-06:00,-0.222119,-0.968587,-0.044816,2025-02-27T19:30:34.096-06:00,0.024868,0.021089,0.402826,2025-02-27T19:30:34.093-06:00
94.000000,259.251164,0.662600,9.687811,44.938284,286.661164,89.740326,5.401399,3.000000,-93.170177,5.501013,2025-02-27T19:30:35.999-06:00,-0.261276,-0.959686,-0.075134,2025-02-27T19:30:35.091-06:00,-0.335449,0.096169,0.114443,2025-02-27T19:30:35.097-06:00
95.000000,259.273588,0.661257,9.766652,44.938284,286.683588,89.740326,5.438962,3.000000,-93.170107,5.471450,2025-02-27T19:30:36.999-06:00,-0.277728,-0.955595,-0.083747,2025-02-27T19:30:36.096-06:00,-0.498559,0.135929,0.060503,2025-02-27T19:30:36.092-06:00
96.000000,258.735204,0.793506,15.405174,44.938284,286.145204,89.740326,6.325859,3.000000,-93.170071,3.982551,2025-02-27T19:30:37.999-06:00,-0.292491,-0.952960,-0.055363,2025-02-27T19:30:37.090-06:00,-0.635957,0.168909,0.336779,2025-02-27T19:30:37.096-06:00
97.000000,259.328421,0.676552,10.698044,44.938285,286.738421,89.740326,5.229369,3.000000,-93.169980,5.113928,2025-02-27T19:30:38.999-06:00,-0.284983,-0.952837,-0.073733,2025-02-27T19:30:38.095-06:00,-0.487338,0.138921,0.175548,2025-02-27T19:30:38.091-06:00
98.000000,258.824866,0.682394,11.304862,44.938285,286.234866,89.100128,5.227323,3.000000,-93.169921,4.744677,2025-02-27T19:30:39.999-06:00,-0.276874,-0.953205,-0.085163,2025-02-27T19:30:39.089-06:00,-0.377903,0.144319,0.003858,2025-02-27T19:30:39.096-06:00
99.000000,259.183084,0.690556,11.793138,44.938286,286.593084,89.100128,5.167439,3.000000,-93.169859,4.711900,2025-02-27T19:30:40.999-06:00,-0.275857,-0.972489,-0.061635,2025-02-27T19:30:40.094-06:00,-0.421399,-0.026337,0.108861,2025-02-27T19:30:40.090-06:00
100.000000,259.393961,0.677561,11.961781,44.938287,286.803960,89.100128,5.037585,3.000000,-93.169800,4.584764,2025-02-27T19:30:41.999-06:00,-0.268390,-0.958388,-0.056972,2025-02-27T19:30:41.089-06:00,-0.472630,0.135185,0.191739,2025-02-27T19:30:41.095-06:00
101.000000,259.362624,0.677875,12.647108,44.938288,286.772624,87.568756,4.807952,3.000000,-93.169744,4.309995,2025-02-27T19:30:42.999-06:00,-0.259041,-0.956201,-0.074123,2025-02-27T19:30:42.093-06:00,-0.410057,0.144829,0.208135,2025-02-27T19:30:42.090-06:00
102.000000,259.729943,0.662522,13.526943,44.938291,287.139943,86.066338,4.689964,3.000000,-93.169694,3.965904,2025-02-27T19:30:43.999-06:00,-0.252882,-0.956711,-0.135751,2025-02-27T19:30:43.088-06:00,-0.303713,0.120707,-0.227536,2025-02-27T19:30:43.094-06:00
103.000000,259.715605,0.673295,14.654146,44.938293,287.125604,86.066338,4.294898,3.000000,-93.169647,3.722919,2025-02-27T19:30:44.999-06:00,-0.222306,-0.956736,-0.238156,2025-02-27T19:30:44.092-06:00,-0.128628,0.119326,-1.032418,2025-02-27T19:30:44.089-06:00
104.000000,259.827883,0.661566,15.140174,44.938295,287.237883,86.066338,2.341874,3.000000,-93.169608,3.534755,2025-02-27T19:30:45.999-06:00,-0.188650,-0.953163,-0.315352,2025-02-27T19:30:45.097-06:00,0.050020,0.174707,-1.727588,2025-02-27T19:30:45.093-06:00
105.000000,260.058961,0.649311,15.801460,44.938287,287.468961,136.646326,2.324780,3.000000,-93.169587,3.305124,2025-02-27T19:30:46.999-06:00,-0.203556,-0.960673,-0.260183,2025-02-27T19:30:46.092-06:00,-0.186706,0.153023,-1.434697,2025-02-27T19:30:46.088-06:00
106.000000,260.033968,0.660362,15.872548,44.938252,287.443968,180.474442,2.308541,3.000000,-93.169582,3.361421,2025-02-27T19:30:47.999-06:00,-0.183410,-0.971972,-0.132320,2025-02-27T19:30:47.096-06:00,-0.145532,0.106861,-0.599907,2025-02-27T19:30:47.093-06:00
107.000000,259.891339,0.675848,15.558668,44.938218,287.301339,180.474442,2.293114,3.000000,-93.169590,3.519664,2025-02-27T19:30:48.999-06:00,-0.189847,-0.986640,0.032535,2025-02-27T19:30:48.091-06:00,-0.219037,-0.013251,0.667987,2025-02-27T19:30:48.097-06:00
108.000000,260.521201,0.671584,12.951771,44.938176,287.931201,180.474442,2.278458,3.000000,-93.169592,4.124095,2025-02-27T19:30:49.999-06:00,-0.227629,-0.969704,0.156829,2025-02-27T19:30:49.096-06:00,-0.579512,0.149318,1.869836,2025-02-27T19:30:49.092-06:00
109.000000,260.452853,0.699707,13.485562,44.938143,287.862853,180.474442,3.742331,3.000000,-93.169603,4.206818,2025-02-27T19:30:50.999-06:00,-0.300684,-0.940957,0.194545,2025-02-27T19:30:50.090-06:00,-0.940809,0.352007,2.504016,2025-02-27T19:30:50.096-06:00
110.000000,260.239392,0.691694,11.977144,44.938073,287.649392,90.871025,5.376122,3.000000,-93.169498,4.678758,2025-02-27T19:30:51.999-06:00,-0.355071,-0.937606,0.137359,2025-02-27T19:30:51.095-06:00,-1.018021,0.265122,2.126712,2025-02-27T19:30:51.091-06:00
111.000000,259.762264,0.686873,12.526969,44.938072,287.172264,90.914368,5.075507,3.000000,-93.169440,4.395602,2025-02-27T19:30:52.999-06:00,-0.410494,-0.912462,0.183518,2025-02-27T19:30:52.089-06:00,-1.212626,0.424637,2.430231,2025-02-27T19:30:52.096-06:00
112.000000,260.098228,0.670989,12.248018,44.938072,287.508228,90.914368,6.991330,3.000000,-93.169380,4.435870,2025-02-27T19:30:53.999-06:00,-0.426332,-0.912452,0.196597,2025-02-27T19:30:53.094-06:00,-1.023324,0.319450,2.425444,2025-02-27T19:30:53.090-06:00
113.000000,259.876553,0.686816,12.949954,44.938166,287.286553,3.743128,4.651543,3.000000,-93.169290,4.281831,2025-02-27T19:30:54.999-06:00,-0.370008,-0.937752,0.131852,2025-02-27T19:30:54.089-06:00,-0.422109,0.062253,1.711462,2025-02-27T19:30:54.095-06:00
114.000000,259.707844,0.703891,11.760012,44.938219,287.117844,20.315176,2.211634,3.000000,-93.169332,4.837911,2025-02-27T19:30:55.999-06:00,-0.331349,-0.945074,0.071901,2025-02-27T19:30:55.093-06:00,-0.232089,0.062869,0.945380,2025-02-27T19:30:55.090-06:00
115.000000,259.594279,0.705239,11.006207,44.938269,287.004279,5.769090,2.201053,3.000000,-93.169332,5.182262,2025-02-27T19:30:56.999-06:00,-0.346609,-0.935680,0.083726,2025-02-27T19:30:56.088-06:00,-0.423637,0.168158,0.975591,2025-02-27T19:30:56.094-06:00
116.000000,259.558673,0.712471,10.746879,44.938318,286.968673,348.514165,2.191000,3.000000,-93.169353,5.365784,2025-02-27T19:30:57.999-06:00,-0.406630,-0.917387,0.197265,2025-02-27T19:30:57.093-06:00,-1.047296,0.356166,1.906108,2025-02-27T19:30:57.089-06:00
117.000000,258.716260,0.700087,10.356980,44.938356,286.126260,325.636045,2.209021,3.000000,-93.169401,5.390242,2025-02-27T19:30:58.999-06:00,-0.452105,-0.915285,0.211741,2025-02-27T19:30:58.097-06:00,-1.508525,0.382559,1.947241,2025-02-27T19:30:58.093-06:00
118.000000,258.702264,0.665361,10.215556,44.938357,286.112264,303.926634,2.198570,3.000000,-93.169466,5.246325,2025-02-27T19:30:59.999-06:00,-0.384259,-0.922083,0.004688,2025-02-27T19:30:59.092-06:00,-1.015945,0.378735,0.039940,2025-02-27T19:30:59.088-06:00
119.000000,258.613108,0.749485,13.003148,44.938395,286.023108,301.382659,2.227142,3.000000,-93.169516,4.648988,2025-02-27T19:31:00.999-06:00,-0.294869,-0.941987,-0.171389,2025-02-27T19:31:00.096-06:00,-0.320734,0.219594,-1.686053,2025-02-27T19:31:00.093-06:00
120.000000,258.596002,0.717932,12.790127,44.938423,286.006001,314.441482,2.225807,3.000000,-93.169558,4.540638,2025-02-27T19:31:01.999-06:00,-0.271289,-0.952397,-0.223423,2025-02-27T19:31:01.091-06:00,0.113873,0.067109,-2.094488,2025-02-27T19:31:01.097-06:00
121.000000,258.164925,0.677190,12.917083,44.938456,285.574924,331.794643,2.224212,3.000000,-93.169578,4.230502,2025-02-27T19:31:02.999-06:00,-0.226339,-0.968671,-0.243803,2025-02-27T19:31:02.096-06:00,0.467921,-0.067324,-2.273286,2025-02-27T19:31:02.092-06:00
122.000000,258.342998,0.721612,11.824911,44.938507,285.752998,355.534982,2.213002,3.000000,-93.169571,4.945052,2025-02-27T19:31:03.999-06:00,-0.190968,-0.998216,-0.003695,2025-02-27T19:31:03.090-06:00,0.750753,-0.348655,-0.079785,2025-02-27T19:31:03.096-06:00
123.000000,258.047166,0.739840,10.284802,44.938563,285.457166,0.236664,2.202352,3.000000,-93.169566,5.792249,2025-02-27T19:31:04.999-06:00,-0.216526,-0.967007,-0.008253,2025-02-27T19:31:04.095-06:00,0.409970,-0.010673,-0.036525,2025-02-27T19:31:04.091-06:00
124.000000,258.536980,0.699566,8.564316,44.938627,285.946980,0.236664,2.342355,3.000000,-93.169569,6.618982,2025-02-27T19:31:05.999-06:00,-0.209650,-0.979422,-0.006862,2025-02-27T19:31:05.089-06:00,0.424357,-0.116300,0.018703,2025-02-27T19:31:05.096-06:00
125.000000,258.617310,0.683136,7.418934,44.938697,286.027309,0.236664,2.328185,3.000000,-93.169570,7.460931,2025-02-27T19:31:06.999-06:00,-0.246673,-0.972842,-0.020040,2025-02-27T19:31:06.094-06:00,0.027354,-0.045380,-0.053222,2025-02-27T19:31:06.090-06:00
126.000000,257.938797,0.727555,7.338759,44.938771,285.348796,0.236664,2.413139,3.000000,-93.169568,7.964942,2025-02-27T19:31:07.999-06:00,-0.248338,-0.961860,-0.018485,2025-02-27T19:31:07.089-06:00,0.001909,0.060057,-0.016746,2025-02-27T19:31:07.095-06:00
127.000000,258.958700,0.704306,7.255590,44.938845,286.368700,0.236643,2.335237,3.000000,-93.169551,8.188113,2025-02-27T19:31:08.999-06:00,-0.228282,-0.966078,-0.012173,2025-02-27T19:31:08.093-06:00,0.149541,0.047871,0.023664,2025-02-27T19:31:08.090-06:00
128.000000,258.960098,0.684222,7.258852,44.938927,286.370098,0.236643,2.350316,3.000000,-93.169551,8.640671,2025-02-27T19:31:09.999-06:00,-0.241650,-0.980954,-0.019529,2025-02-27T19:31:09.088-06:00,0.076906,-0.120528,0.008957,2025-02-27T19:31:09.094-06:00
129.000000,259.430798,0.716932,7.253538,44.939012,286.840797,0.000000,2.803885,3.000000,-93.169565,9.007419,2025-02-27T19:31:10.999-06:00,-0.244719,-0.959107,-0.016727,2025-02-27T19:31:10.093-06:00,-0.065519,0.101740,-0.071345,2025-02-27T19:31:10.089-06:00
130.000000,259.037744,0.717274,7.256554,44.939094,286.447744,359.512604,2.664577,3.000000,-93.169571,8.930159,2025-02-27T19:31:11.999-06:00,-0.266663,-0.950208,-0.003939,2025-02-27T19:31:11.097-06:00,-0.145478,0.159695,-0.028597,2025-02-27T19:31:11.093-06:00
131.000000,259.214866,0.724215,7.258711,44.939188,286.624866,359.512604,2.412360,3.000000,-93.169574,9.625673,2025-02-27T19:31:12.999-06:00,-0.291628,-0.954396,0.013360,2025-02-27T19:31:12.092-06:00,-0.379768,0.141248,0.128535,2025-02-27T19:31:12.088-06:00
132.000000,258.871784,0.722355,7.256056,44.939273,286.281783,359.512604,2.571605,3.000000,-93.169553,9.729298,2025-02-27T19:31:14.000-06:00,-0.282665,-0.950109,-0.047110,2025-02-27T19:31:13.096-06:00,-0.207501,0.139752,-0.436062,2025-02-27T19:31:13.093-06:00
133.000000,258.693868,0.729443,7.254843,44.939358,286.103868,359.512604,2.754416,3.000000,-93.169554,9.674511,2025-02-27T19:31:15.000-06:00,-0.289099,-0.955334,-0.037901,2025-02-27T19:31:14.091-06:00,-0.286886,0.109578,-0.264591,2025-02-27T19:31:14.097-06:00
134.000000,258.260758,0.938030,8.006977,44.939442,285.670758,359.512604,2.741960,3.000000,-93.169555,9.439516,2025-02-27T19:31:16.000-06:00,-0.299845,-0.955595,-0.024605,2025-02-27T19:31:15.096-06:00,-0.316954,0.061208,-0.175930,2025-02-27T19:31:15.092-06:00
135.000000,259.323012,0.743784,7.255361,44.939539,286.733012,359.512604,2.782313,3.000000,-93.169556,9.912031,2025-02-27T19:31:17.000-06:00,-0.294786,-0.944626,-0.021050,2025-02-27T19:31:16.090-06:00,-0.275924,0.198652,-0.126704,2025-02-27T19:31:16.097-06:00
136.000000,258.918208,0.702885,7.258065,44.939620,286.328208,0.000000,2.896187,3.000000,-93.169556,9.362314,2025-02-27T19:31:18.000-06:00,-0.327094,-0.946871,-0.032063,2025-02-27T19:31:17.095-06:00,-0.637841,0.192086,-0.255487,2025-02-27T19:31:17.091-06:00
137.000000,258.290143,0.712896,7.247544,44.939702,285.700142,0.000000,2.628336,3.000000,-93.169577,8.952572,2025-02-27T19:31:19.000-06:00,-0.385412,-0.920577,-0.049421,2025-02-27T19:31:18.090-06:00,-1.051387,0.369955,-0.392490,2025-02-27T19:31:18.096-06:00
138.000000,258.070441,0.703951,7.248330,44.939773,285.480441,0.000000,2.640409,3.000000,-93.169578,8.260874,2025-02-27T19:31:20.000-06:00,-0.389189,-0.930445,-0.038494,2025-02-27T19:31:19.094-06:00,-1.050618,0.285284,-0.279590,2025-02-27T19:31:19.090-06:00
139.000000,258.175156,0.716105,8.284782,44.939830,285.585155,0.000000,2.507963,3.000000,-93.169577,6.989241,2025-02-27T19:31:21.000-06:00,-0.390848,-0.926995,-0.039311,2025-02-27T19:31:20.089-06:00,-1.052949,0.322912,-0.230339,2025-02-27T19:31:20.095-06:00
140.000000,258.052849,0.707205,9.259128,44.939885,285.462848,0.742213,2.496793,3.000000,-93.169576,6.172998,2025-02-27T19:31:22.000-06:00,-0.378002,-0.926644,-0.044086,2025-02-27T19:31:21.093-06:00,-0.878918,0.297042,-0.211765,2025-02-27T19:31:21.090-06:00
141.000000,258.065084,0.677274,10.229064,44.939928,285.475084,0.742213,2.527605,3.000000,-93.169555,5.350924,2025-02-27T19:31:23.000-06:00,-0.401939,-0.916606,-0.054005,2025-02-27T19:31:22.088-06:00,-0.953784,0.354573,-0.300000,2025-02-27T19:31:22.094-06:00
142.000000,257.714318,0.695357,13.261191,44.939960,285.124318,0.742213,2.439671,3.000000,-93.169554,4.169770,2025-02-27T19:31:24.000-06:00,-0.450301,-0.901837,-0.066621,2025-02-27T19:31:23.093-06:00,-1.351293,0.465630,-0.421832,2025-02-27T19:31:23.089-06:00
143.000000,257.571043,0.721666,24.321469,44.939974,284.981043,0.742213,2.376861,3.000000,-93.169554,2.285341,2025-02-27T19:31:25.000-06:00,-0.421381,-0.918055,-0.063494,2025-02-27T19:31:24.097-06:00,-0.886677,0.246223,-0.304051,2025-02-27T19:31:24.094-06:00
144.000000,257.783356,0.724887,47.899482,44.939982,285.193356,0.742213,2.452912,3.000000,-93.169554,1.193012,2025-02-27T19:31:26.000-06:00,-0.355310,-0.934306,-0.041370,2025-02-27T19:31:25.092-06:00,-0.135462,0.046790,-0.051399,2025-02-27T19:31:25.088-06:00
145.000000,257.659684,0.865543,94.509248,44.939986,285.069684,0.742213,2.673033,3.000000,-93.169553,0.510335,2025-02-27T19:31:27.000-06:00,-0.346294,-0.938744,-0.045346,2025-02-27T19:31:26.097-06:00,-0.042689,0.001046,-0.052875,2025-02-27T19:31:26.093-06:00
146.000000,257.859882,0.963873,180.000000,44.939990,285.269882,0.742213,2.807394,3.000000,-93.169553,0.151587,2025-02-27T19:31:28.000-06:00,-0.292952,-0.952876,-0.028063,2025-02-27T19:31:27.091-06:00,0.420608,-0.116154,0.107222,2025-02-27T19:31:27.097-06:00
147.000000,258.093980,0.978433,180.000000,44.939992,285.503980,0.742213,3.083234,3.000000,-93.169553,0.110110,2025-02-27T19:31:29.000-06:00,-0.276190,-0.958789,-0.022743,2025-02-27T19:31:28.096-06:00,0.491224,-0.140393,0.133463,2025-02-27T19:31:28.092-06:00
148.000000,258.181094,0.980002,180.000000,44.939995,285.591094,0.742213,3.384971,3.000000,-93.169553,0.282845,2025-02-27T19:31:30.000-06:00,-0.251923,-0.965807,-0.018507,2025-02-27T19:31:29.090-06:00,0.557886,-0.150613,0.156628,2025-02-27T19:31:29.097-06:00
149.000000,258.335174,0.769344,100.267252,44.940002,285.745174,0.742213,3.311924,3.000000,-93.169553,0.609062,2025-02-27T19:31:31.000-06:00,-0.229913,-0.971437,-0.016980,2025-02-27T19:31:30.095-06:00,0.629887,-0.158539,0.190901,2025-02-27T19:31:30.091-06:00
150.000000,258.245735,0.736811,42.716465,44.940021,285.655735,0.742213,3.265544,3.000000,-93.169553,1.317760,2025-02-27T19:31:32.000-06:00,-0.129202,-0.999666,0.005439,2025-02-27T19:31:31.090-06:00,1.514251,-0.409736,0.426508,2025-02-27T19:31:31.096-06:00
151.000000,258.248882,0.718059,22.896908,44.940049,285.658881,0.742213,3.320134,3.000000,-93.169552,2.481026,2025-02-27T19:31:33.000-06:00,-0.125825,-1.004997,0.005763,2025-02-27T19:31:32.094-06:00,1.340178,-0.417168,0.424792,2025-02-27T19:31:32.091-06:00
152.000000,258.242511,0.725728,14.710254,44.940094,285.652511,0.742213,3.237626,3.000000,-93.169552,3.978731,2025-02-27T19:31:34.000-06:00,-0.125649,-1.003323,-0.006691,2025-02-27T19:31:33.089-06:00,1.184882,-0.330793,0.326435,2025-02-27T19:31:33.095-06:00
153.000000,258.454790,0.676927,10.354915,44.940149,285.864790,0.742213,3.237962,3.000000,-93.169551,5.296653,2025-02-27T19:31:35.000-06:00,-0.168116,-0.966606,-0.017795,2025-02-27T19:31:34.094-06:00,0.915242,-0.025185,0.307317,2025-02-27T19:31:34.090-06:00
154.000000,258.168412,0.684467,8.844385,44.940210,285.578412,0.485298,3.169186,3.000000,-93.169550,6.242906,2025-02-27T19:31:35.999-06:00,-0.196441,-0.961412,-0.021665,2025-02-27T19:31:35.088-06:00,0.889356,-0.041674,0.299764,2025-02-27T19:31:35.094-06:00
155.000000,258.026311,0.694189,7.840242,44.940277,285.436311,0.485298,3.087483,3.000000,-93.169549,7.159996,2025-02-27T19:31:36.999-06:00,-0.235785,-0.987889,-0.050508,2025-02-27T19:31:36.093-06:00,0.461982,-0.288094,-0.029392,2025-02-27T19:31:36.089-06:00
156.000000,258.042211,0.695085,7.318677,44.940346,285.452211,0.485298,5.189031,3.000000,-93.169549,7.694089,2025-02-27T19:31:37.999-06:00,-0.270020,-0.964907,-0.062966,2025-02-27T19:31:37.088-06:00,-0.032836,-0.012083,-0.126212,2025-02-27T19:31:37.094-06:00
157.000000,257.749419,0.694502,7.257798,44.940417,285.159418,0.485298,5.318237,3.000000,-93.169548,7.891708,2025-02-27T19:31:38.999-06:00,-0.221459,-0.967271,-0.044734,2025-02-27T19:31:38.092-06:00,0.430506,-0.049383,-0.020518,2025-02-27T19:31:38.088-06:00
158.000000,257.239194,0.677000,7.248514,44.940496,284.649194,0.485298,6.032730,3.000000,-93.169547,8.583498,2025-02-27T19:31:39.999-06:00,-0.208867,-0.973807,-0.036598,2025-02-27T19:31:39.097-06:00,0.529993,-0.094960,0.057387,2025-02-27T19:31:39.093-06:00
159.000000,257.146101,0.700592,7.255162,44.940577,284.556101,0.485298,5.996865,3.000000,-93.169546,9.042977,2025-02-27T19:31:40.999-06:00,-0.281665,-0.956743,-0.061548,2025-02-27T19:31:40.091-06:00,-0.233924,0.101247,-0.101992,2025-02-27T19:31:40.088-06:00
160.000000,257.262734,0.694642,7.258680,44.940658,284.672734,0.187596,5.901004,3.000000,-93.169546,9.051841,2025-02-27T19:31:41.999-06:00,-0.288967,-0.956020,-0.074433,2025-02-27T19:31:41.096-06:00,-0.287543,0.068065,-0.155045,2025-02-27T19:31:41.092-06:00
161.000000,257.133135,0.686681,7.258824,44.940739,284.543135,0.187596,5.964927,3.000000,-93.169545,8.975442,2025-02-27T19:31:42.999-06:00,-0.282408,-0.954297,-0.077432,2025-02-27T19:31:42.091-06:00,-0.303483,0.113599,-0.218732,2025-02-27T19:31:42.097-06:00
162.000000,257.306655,0.716606,7.257802,44.940816,284.716655,0.187596,5.686514,3.000000,-93.169545,8.807556,2025-02-27T19:31:43.999-06:00,-0.272937,-0.940052,-0.034406,2025-02-27T19:31:43.095-06:00,-0.081075,0.259608,0.090800,2025-02-27T19:31:43.092-06:00
163.000000,257.350045,0.684972,7.257082,44.940893,284.760045,359.642792,5.443510,3.000000,-93.169546,8.719609,2025-02-27T19:31:44.999-06:00,-0.310445,-0.957245,-0.069465,2025-02-27T19:31:44.090-06:00,-0.491897,0.036092,-0.240856,2025-02-27T19:31:44.096-06:00
164.000000,257.303651,0.696059,7.258544,44.940967,284.713651,359.642792,5.596270,3.000000,-93.169546,8.548875,2025-02-27T19:31:45.999-06:00,-0.363600,-0.930486,-0.073024,2025-02-27T19:31:45.095-06:00,-1.004025,0.345404,-0.257605,2025-02-27T19:31:45.091-06:00
165.000000,257.136649,0.687207,7.258820,44.941037,284.546649,359.642792,5.264349,3.000000,-93.169547,7.933147,2025-02-27T19:31:46.999-06:00,-0.411985,-0.913609,-0.085422,2025-02-27T19:31:46.089-06:00,-1.329993,0.454804,-0.411039,2025-02-27T19:31:46.095-06:00
166.000000,256.895883,0.678527,8.314742,44.941090,284.305883,359.642792,5.067540,3.000000,-93.169547,6.606679,2025-02-27T19:31:47.999-06:00,-0.319357,-0.947424,-0.070805,2025-02-27T19:31:47.094-06:00,-0.435427,0.116949,-0.205284,2025-02-27T19:31:47.090-06:00
167.000000,256.990647,0.696686,9.343908,44.941138,284.400647,2.630802,4.884019,3.000000,-93.169547,6.041389,2025-02-27T19:31:48.999-06:00,-0.276073,-0.954904,-0.071489,2025-02-27T19:31:48.088-06:00,0.047870,0.037201,-0.200268,2025-02-27T19:31:48.095-06:00
168.000000,256.532042,0.686484,9.025371,44.941195,283.942042,2.630802,5.145839,3.000000,-93.169543,6.145839,2025-02-27T19:31:49.999-06:00,-0.269044,-0.950688,-0.072319,2025-02-27T19:31:49.093-06:00,0.094393,0.085264,-0.223529,2025-02-27T19:31:49.089-06:00
169.000000,256.699434,2.151559,29.113827,44.941248,284.109434,2.630802,4.730582,3.000000,-93.169540,5.987985,2025-02-27T19:31:50.999-06:00,-0.311567,-0.962946,-0.059657,2025-02-27T19:31:50.088-06:00,-0.234097,-0.087955,-0.059479,2025-02-27T19:31:50.094-06:00
170.000000,255.670911,2.490261,29.293794,44.941302,283.080911,2.630802,2.391774,3.000000,-93.169536,5.549334,2025-02-27T19:31:51.999-06:00,-0.327641,-0.928579,-0.065857,2025-02-27T19:31:51.092-06:00,-0.527188,0.326654,-0.122891,2025-02-27T19:31:51.089-06:00
171.000000,256.188815,2.296004,36.757893,44.941347,283.598815,2.630802,2.335806,3.000000,-93.169534,4.925434,2025-02-27T19:31:52.999-06:00,-0.374176,-0.935846,-0.070484,2025-02-27T19:31:52.097-06:00,-0.716737,0.150734,-0.136235,2025-02-27T19:31:52.093-06:00
172.000000,256.173346,2.356101,46.596014,44.941383,283.583346,2.630802,2.380089,3.000000,-93.169531,4.045296,2025-02-27T19:31:53.999-06:00,-0.408808,-0.918272,-0.076835,2025-02-27T19:31:53.092-06:00,-1.194005,0.377415,-0.281678,2025-02-27T19:31:53.088-06:00
173.000000,256.147379,2.610215,72.782833,44.941406,283.557379,2.630802,2.337857,3.000000,-93.169530,2.676446,2025-02-27T19:31:54.999-06:00,-0.412113,-0.920777,-0.087087,2025-02-27T19:31:54.096-06:00,-1.108496,0.315384,-0.331316,2025-02-27T19:31:54.093-06:00
174.000000,255.981121,3.339069,180.000000,44.941412,283.391121,356.735352,2.398864,3.000000,-93.169563,1.145552,2025-02-27T19:31:55.999-06:00,-0.358939,-0.930796,-0.076936,2025-02-27T19:31:55.091-06:00,-0.464707,0.172341,-0.174684,2025-02-27T19:31:55.097-06:00
175.000000,,,,,,,,,,,,-0.329836,-0.941154,-0.072902,2025-02-27T19:31:56.096-06:00,-0.133510,0.059272,-0.109125,2025-02-27T19:31:56.092-06:00
