seconds_elapsed,location_altitude,location_speedAccuracy,location_bearingAccuracy,location_latitude,location_altitudeAboveMeanSeaLevel,location_bearing,location_horizontalAccuracy,location_verticalAccuracy,location_longitude,location_speed,location_local_time,accelerometerUncalibrated_z,accelerometerUncalibrated_y,accelerometerUncalibrated_x,accelerometerUncalibrated_local_time,accelerometer_z,accelerometer_y,accelerometer_x,accelerometer_local_time
0.000000,262.533638,0.673895,11.033600,44.934295,289.943637,217.830674,2.297983,3.000000,-93.167214,4.953177,2025-02-27T19:36:58.999-06:00,-0.234626,-0.962016,-0.238762,2025-02-27T19:36:58.448-06:00,0.550664,-0.098370,-1.454903,2025-02-27T19:36:58.459-06:00
1.000000,263.222919,0.674752,9.992069,44.934275,290.632919,239.584330,2.248319,3.000000,-93.167286,5.424766,2025-02-27T19:36:59.999-06:00,-0.195774,-0.979842,-0.157180,2025-02-27T19:36:59.433-06:00,0.640042,-0.197360,-0.527078,2025-02-27T19:36:59.434-06:00
2.000000,262.720440,0.695461,9.964800,44.934280,290.130440,263.308039,2.212845,3.000000,-93.167363,5.656546,2025-02-27T19:37:00.999-06:00,-0.136198,-1.000011,-0.025418,2025-02-27T19:37:00.438-06:00,0.978956,-0.318835,0.639360,2025-02-27T19:37:00.439-06:00
3.000000,262.398825,0.676108,7.772167,44.934282,289.808825,270.332458,2.182937,3.000000,-93.167462,7.039215,2025-02-27T19:37:01.999-06:00,-0.153462,-0.997437,0.011588,2025-02-27T19:37:01.432-06:00,0.702892,-0.261591,0.929392,2025-02-27T19:37:01.434-06:00
4.000000,262.168581,0.653873,7.256766,44.934284,289.578581,270.332458,2.146345,3.000000,-93.167576,8.352441,2025-02-27T19:37:02.999-06:00,-0.167251,-0.988903,0.011505,2025-02-27T19:37:02.437-06:00,0.515829,-0.160267,0.858920,2025-02-27T19:37:02.438-06:00
5.000000,262.083868,0.662273,7.258593,44.934286,289.493868,270.332458,2.140758,3.000000,-93.167706,9.581596,2025-02-27T19:37:03.999-06:00,-0.181288,-0.986159,0.031412,2025-02-27T19:37:03.432-06:00,0.330827,-0.116882,0.973716,2025-02-27T19:37:03.433-06:00
6.000000,261.965535,0.661985,7.258636,44.934287,289.375535,270.332458,2.085581,3.000000,-93.167846,10.630310,2025-02-27T19:37:04.999-06:00,-0.200579,-0.979938,0.004855,2025-02-27T19:37:04.436-06:00,0.098179,-0.044583,0.687700,2025-02-27T19:37:04.437-06:00
7.000000,261.615583,0.672750,7.258189,44.934291,289.025583,270.332458,2.183471,3.000000,-93.167995,11.394542,2025-02-27T19:37:05.999-06:00,-0.204028,-0.983803,0.023425,2025-02-27T19:37:05.431-06:00,0.022300,-0.067845,0.776838,2025-02-27T19:37:05.432-06:00
8.000000,261.467998,0.690734,7.258507,44.934291,288.877998,270.332458,2.228275,3.000000,-93.168161,12.421058,2025-02-27T19:37:06.999-06:00,-0.222062,-0.961622,0.013783,2025-02-27T19:37:06.435-06:00,-0.173304,0.157826,0.604168,2025-02-27T19:37:06.437-06:00
9.000000,261.272073,0.683767,7.258561,44.934294,288.682073,270.332458,2.115350,3.000000,-93.168333,13.182070,2025-02-27T19:37:07.999-06:00,-0.237281,-0.980179,0.009201,2025-02-27T19:37:07.430-06:00,-0.325500,-0.020602,0.491119,2025-02-27T19:37:07.431-06:00
10.000000,260.886314,0.672501,7.257950,44.934296,288.296314,270.313019,2.903430,3.000000,-93.168507,13.585522,2025-02-27T19:37:08.999-06:00,-0.247139,-0.961375,0.000361,2025-02-27T19:37:08.435-06:00,-0.404241,0.159078,0.392594,2025-02-27T19:37:08.436-06:00
11.000000,260.861273,0.677235,7.258720,44.934300,288.271273,270.313019,2.517019,3.000000,-93.168687,13.979860,2025-02-27T19:37:09.999-06:00,-0.296632,-0.961387,-0.008743,2025-02-27T19:37:09.439-06:00,-0.848650,0.158119,0.195717,2025-02-27T19:37:09.431-06:00
12.000000,260.491406,0.678693,7.258108,44.934300,287.901405,270.313019,2.708574,3.000000,-93.168868,14.124981,2025-02-27T19:37:10.999-06:00,-0.303623,-0.950479,-0.016983,2025-02-27T19:37:10.434-06:00,-0.861365,0.252210,0.102755,2025-02-27T19:37:10.435-06:00
13.000000,260.446418,0.676737,7.258750,44.934305,287.856418,270.313019,2.417126,3.000000,-93.169044,13.971780,2025-02-27T19:37:11.999-06:00,-0.305976,-0.950552,-0.002604,2025-02-27T19:37:11.439-06:00,-0.802356,0.231255,0.194837,2025-02-27T19:37:11.430-06:00
14.000000,260.004113,0.681088,7.257523,44.934305,287.414113,270.364502,2.528437,3.000000,-93.169215,13.646201,2025-02-27T19:37:12.999-06:00,-0.291543,-0.953308,0.006559,2025-02-27T19:37:12.433-06:00,-0.592489,0.190888,0.228914,2025-02-27T19:37:12.434-06:00
15.000000,260.233971,0.679650,7.258857,44.934304,287.643971,270.364502,2.254957,3.000000,-93.169389,13.647170,2025-02-27T19:37:13.999-06:00,-0.273445,-0.951121,-0.006953,2025-02-27T19:37:13.438-06:00,-0.391805,0.206945,0.086741,2025-02-27T19:37:13.439-06:00
16.000000,260.028300,0.668184,7.258645,44.934304,287.438300,270.364502,2.400679,3.000000,-93.169562,13.671644,2025-02-27T19:37:14.999-06:00,-0.280345,-0.971614,-0.001686,2025-02-27T19:37:14.432-06:00,-0.438861,0.000508,0.162480,2025-02-27T19:37:14.434-06:00
17.000000,259.948175,0.668617,7.258887,44.934307,287.358175,270.248383,2.683586,3.000000,-93.169736,13.634083,2025-02-27T19:37:15.999-06:00,-0.266686,-0.941586,-0.005749,2025-02-27T19:37:15.437-06:00,-0.260560,0.281232,0.237323,2025-02-27T19:37:15.438-06:00
18.000000,259.768326,0.675783,7.258097,44.934307,287.178326,270.248383,2.328461,3.000000,-93.169913,13.814177,2025-02-27T19:37:16.999-06:00,-0.274768,-0.959058,-0.003613,2025-02-27T19:37:16.432-06:00,-0.240483,0.085561,0.236216,2025-02-27T19:37:16.433-06:00
19.000000,259.543996,0.667389,7.257392,44.934307,286.953996,270.248383,2.348650,3.000000,-93.170091,13.993904,2025-02-27T19:37:17.999-06:00,-0.286956,-0.949757,-0.017253,2025-02-27T19:37:17.436-06:00,-0.337199,0.171275,0.086743,2025-02-27T19:37:17.438-06:00
20.000000,258.431855,0.677172,7.247146,44.934310,285.841855,270.248383,2.241690,3.000000,-93.170271,14.114732,2025-02-27T19:37:18.999-06:00,-0.308430,-0.953047,-0.024781,2025-02-27T19:37:18.431-06:00,-0.509345,0.128625,0.021087,2025-02-27T19:37:18.432-06:00
21.000000,259.223052,0.668603,7.258789,44.934308,286.633052,270.303314,2.113927,3.000000,-93.170449,14.011650,2025-02-27T19:37:19.999-06:00,-0.282042,-0.953282,-0.015570,2025-02-27T19:37:19.436-06:00,-0.227368,0.120063,0.114112,2025-02-27T19:37:19.437-06:00
22.000000,258.152106,0.689439,7.252006,44.934311,285.562105,270.303314,2.054697,3.000000,-93.170622,13.794600,2025-02-27T19:37:20.999-06:00,-0.290206,-0.956076,-0.015070,2025-02-27T19:37:20.430-06:00,-0.281203,0.086483,0.086562,2025-02-27T19:37:20.432-06:00
23.000000,258.401107,0.669233,7.257832,44.934310,285.811107,270.303314,2.539517,3.000000,-93.170802,13.995004,2025-02-27T19:37:21.999-06:00,-0.280798,-0.955378,-0.005539,2025-02-27T19:37:21.435-06:00,-0.143328,0.082033,0.126460,2025-02-27T19:37:21.436-06:00
24.000000,258.374521,0.671217,7.258243,44.934305,285.784521,270.303314,2.255921,3.000000,-93.170982,14.112276,2025-02-27T19:37:22.999-06:00,-0.306251,-0.956345,-0.004307,2025-02-27T19:37:22.430-06:00,-0.373197,0.067573,0.103634,2025-02-27T19:37:22.431-06:00
25.000000,258.024313,0.666265,7.257600,44.934310,285.434313,270.288544,2.678058,3.000000,-93.171160,14.008302,2025-02-27T19:37:23.999-06:00,-0.285453,-0.933457,-0.046118,2025-02-27T19:37:23.434-06:00,-0.189894,0.317025,-0.110837,2025-02-27T19:37:23.435-06:00
26.000000,257.674513,0.680674,7.255595,44.934310,285.084512,270.288544,2.678058,3.000000,-93.171336,13.870097,2025-02-27T19:37:24.999-06:00,-0.299163,-0.956815,-0.007275,2025-02-27T19:37:24.439-06:00,-0.228770,0.016958,0.222504,2025-02-27T19:37:24.430-06:00
27.000000,257.647094,0.681189,7.257472,44.934308,285.057094,270.288544,2.213953,3.000000,-93.171515,13.933313,2025-02-27T19:37:25.999-06:00,-0.291944,-0.953829,-0.016865,2025-02-27T19:37:25.433-06:00,-0.143347,0.065250,0.060574,2025-02-27T19:37:25.435-06:00
28.000000,257.879294,0.667649,7.258841,44.934306,285.289294,270.288544,2.174639,3.000000,-93.171697,14.202853,2025-02-27T19:37:26.999-06:00,-0.298506,-0.953319,-0.033953,2025-02-27T19:37:26.438-06:00,-0.169427,0.058022,-0.061179,2025-02-27T19:37:26.439-06:00
29.000000,257.525702,0.668456,7.257552,44.934306,284.935702,270.288544,2.083836,3.000000,-93.171869,13.898578,2025-02-27T19:37:27.999-06:00,-0.300044,-0.968236,-0.022521,2025-02-27T19:37:27.433-06:00,-0.187046,-0.087807,0.061002,2025-02-27T19:37:27.434-06:00
30.000000,257.217849,0.670114,7.257381,44.934308,284.627849,270.288544,2.054135,3.000000,-93.172045,13.864325,2025-02-27T19:37:28.999-06:00,-0.288610,-0.940107,-0.028186,2025-02-27T19:37:28.437-06:00,-0.066236,0.187200,-0.068606,2025-02-27T19:37:28.439-06:00
31.000000,257.124351,0.672597,7.257803,44.934306,284.534351,270.310272,2.025704,3.000000,-93.172223,13.928434,2025-02-27T19:37:29.999-06:00,-0.296292,-0.961428,-0.007766,2025-02-27T19:37:29.432-06:00,-0.111576,-0.029353,0.061544,2025-02-27T19:37:29.433-06:00
32.000000,256.694894,0.671640,7.256968,44.934311,284.104894,270.310272,2.012353,3.000000,-93.172398,13.935682,2025-02-27T19:37:30.999-06:00,-0.290159,-0.944050,-0.022893,2025-02-27T19:37:30.437-06:00,-0.021970,0.131460,-0.038842,2025-02-27T19:37:30.438-06:00
33.000000,256.340584,0.669930,7.256207,44.934309,283.750584,270.310272,2.005980,3.000000,-93.172567,13.622658,2025-02-27T19:37:31.999-06:00,-0.304111,-0.948389,-0.026813,2025-02-27T19:37:31.431-06:00,-0.176523,0.093137,-0.029901,2025-02-27T19:37:31.433-06:00
34.000000,256.237995,0.671268,7.257769,44.934312,283.647995,270.310272,2.002856,3.000000,-93.172747,13.860217,2025-02-27T19:37:32.999-06:00,-0.291716,-0.964388,-0.027380,2025-02-27T19:37:32.436-06:00,-0.047430,-0.065124,-0.072840,2025-02-27T19:37:32.437-06:00
35.000000,255.926032,0.672225,7.257222,44.934307,283.336032,270.310272,2.001373,3.000000,-93.172922,13.880597,2025-02-27T19:37:33.999-06:00,-0.298877,-0.950106,-0.001034,2025-02-27T19:37:33.431-06:00,-0.057990,0.058211,0.104793,2025-02-27T19:37:33.432-06:00
36.000000,255.704140,0.668597,7.257829,44.934314,283.114140,270.310272,2.177951,3.000000,-93.173096,13.795848,2025-02-27T19:37:34.999-06:00,-0.294907,-0.958239,0.007500,2025-02-27T19:37:34.435-06:00,-0.004510,-0.025451,0.117065,2025-02-27T19:37:34.436-06:00
37.000000,255.420028,0.676215,7.257452,44.934314,282.830028,270.310272,2.086115,3.000000,-93.173268,13.675884,2025-02-27T19:37:35.999-06:00,-0.312698,-0.965066,0.027695,2025-02-27T19:37:35.430-06:00,-0.186002,-0.090931,0.169051,2025-02-27T19:37:35.431-06:00
38.000000,256.150732,0.672273,7.257741,44.934312,283.560732,270.231781,2.041179,3.000000,-93.173446,13.865331,2025-02-27T19:37:36.999-06:00,-0.292864,-0.936611,-0.010727,2025-02-27T19:37:36.434-06:00,-0.053605,0.212437,-0.090576,2025-02-27T19:37:36.436-06:00
39.000000,255.978815,0.676690,7.258974,44.934308,283.388814,270.231781,2.022000,3.000000,-93.173617,13.650485,2025-02-27T19:37:37.999-06:00,-0.306687,-0.952418,0.005535,2025-02-27T19:37:37.439-06:00,-0.118224,0.028329,-0.001971,2025-02-27T19:37:37.430-06:00
40.000000,256.230903,0.760036,7.257692,44.934324,283.640903,270.231781,2.011041,3.000000,-93.173764,12.463089,2025-02-27T19:37:38.999-06:00,-0.304519,-0.949378,0.008832,2025-02-27T19:37:38.434-06:00,-0.090266,0.054201,0.044065,2025-02-27T19:37:38.435-06:00
41.000000,255.698493,0.693995,7.258256,44.934312,283.108493,270.231781,2.478802,3.000000,-93.173958,13.634674,2025-02-27T19:37:39.999-06:00,-0.310789,-0.951026,0.000674,2025-02-27T19:37:39.438-06:00,-0.138177,0.043569,-0.021836,2025-02-27T19:37:39.430-06:00
42.000000,255.219656,0.700982,7.256532,44.934310,282.629655,270.231781,2.585192,3.000000,-93.174119,13.187496,2025-02-27T19:37:40.999-06:00,-0.303016,-0.953017,-0.011956,2025-02-27T19:37:40.433-06:00,-0.083228,0.025629,-0.131348,2025-02-27T19:37:40.434-06:00
43.000000,255.030546,0.695595,7.257212,44.934311,282.440546,270.231781,2.535126,3.000000,-93.174283,13.031685,2025-02-27T19:37:41.999-06:00,-0.289932,-0.960314,0.002525,2025-02-27T19:37:41.438-06:00,0.035683,-0.043017,0.022255,2025-02-27T19:37:41.439-06:00
44.000000,254.835490,0.675951,7.257646,44.934310,282.245490,270.231781,2.266761,3.000000,-93.174448,13.015340,2025-02-27T19:37:42.999-06:00,-0.295525,-0.955269,0.002261,2025-02-27T19:37:42.432-06:00,-0.023513,0.007747,0.048757,2025-02-27T19:37:42.433-06:00
45.000000,254.751593,0.665567,7.258559,44.934312,282.161593,270.231781,2.219688,3.000000,-93.174609,12.849380,2025-02-27T19:37:43.999-06:00,-0.283915,-0.951310,-0.005040,2025-02-27T19:37:43.437-06:00,0.056992,0.056664,-0.002184,2025-02-27T19:37:43.438-06:00
46.000000,254.762041,0.674849,7.258925,44.934312,282.172041,270.231781,2.475454,3.000000,-93.174775,12.953205,2025-02-27T19:37:44.999-06:00,-0.278292,-0.943926,-0.007463,2025-02-27T19:37:44.432-06:00,0.129913,0.123674,-0.086736,2025-02-27T19:37:44.433-06:00
47.000000,254.737552,0.681784,7.258548,44.934311,282.147552,270.408142,2.459689,3.000000,-93.174939,12.865863,2025-02-27T19:37:45.999-06:00,-0.298659,-0.966902,0.007531,2025-02-27T19:37:45.436-06:00,-0.041539,-0.110367,0.082026,2025-02-27T19:37:45.437-06:00
48.000000,254.966185,0.672243,7.258963,44.934310,282.376185,270.000000,2.231957,3.000000,-93.175101,12.837435,2025-02-27T19:37:46.999-06:00,-0.282870,-0.966257,-0.030906,2025-02-27T19:37:46.431-06:00,0.062698,-0.090815,-0.094467,2025-02-27T19:37:46.432-06:00
49.000000,254.732230,0.683497,7.258582,44.934314,282.142230,270.000000,2.116958,3.000000,-93.175262,12.730787,2025-02-27T19:37:47.999-06:00,-0.294960,-0.937222,-0.012564,2025-02-27T19:37:47.435-06:00,-0.057201,0.195673,0.012414,2025-02-27T19:37:47.437-06:00
50.000000,254.727268,0.678382,7.258361,44.934314,282.137268,270.199402,2.354358,3.000000,-93.175424,12.660488,2025-02-27T19:37:48.999-06:00,-0.299309,-0.954308,-0.013055,2025-02-27T19:37:48.430-06:00,-0.034027,0.008761,-0.047457,2025-02-27T19:37:48.431-06:00
51.000000,254.827495,0.680229,7.258614,44.934310,282.237495,270.199402,2.180968,3.000000,-93.175581,12.428069,2025-02-27T19:37:49.999-06:00,-0.303638,-0.953952,-0.012238,2025-02-27T19:37:49.435-06:00,-0.091305,0.009474,-0.036815,2025-02-27T19:37:49.436-06:00
52.000000,254.452081,0.772240,7.256163,44.934308,281.862081,270.199402,2.946068,3.000000,-93.175732,12.132857,2025-02-27T19:37:50.999-06:00,-0.302116,-0.947954,-0.007595,2025-02-27T19:37:50.439-06:00,-0.067517,0.079395,0.021587,2025-02-27T19:37:50.431-06:00
53.000000,255.215653,0.706699,7.258904,44.934312,282.625652,270.199402,2.677028,3.000000,-93.175887,12.108468,2025-02-27T19:37:51.999-06:00,-0.305514,-0.952996,-0.006515,2025-02-27T19:37:51.434-06:00,-0.097322,0.041543,0.083607,2025-02-27T19:37:51.435-06:00
54.000000,254.924990,0.684524,7.258382,44.934308,282.334990,270.199402,2.350281,3.000000,-93.176043,12.118175,2025-02-27T19:37:52.999-06:00,-0.297588,-0.957212,-0.015061,2025-02-27T19:37:52.439-06:00,-0.022862,-0.037863,-0.042303,2025-02-27T19:37:52.430-06:00
55.000000,254.940439,0.668480,7.258608,44.934311,282.350439,270.358215,2.182291,3.000000,-93.176193,11.853360,2025-02-27T19:37:53.999-06:00,-0.330603,-0.936099,-0.021477,2025-02-27T19:37:53.433-06:00,-0.284435,0.169704,-0.145366,2025-02-27T19:37:53.434-06:00
56.000000,254.548514,0.677009,7.257177,44.934312,281.958514,270.358215,2.096195,3.000000,-93.176338,11.483524,2025-02-27T19:37:54.999-06:00,-0.354211,-0.938366,-0.023165,2025-02-27T19:37:54.438-06:00,-0.501320,0.142638,-0.180205,2025-02-27T19:37:54.439-06:00
57.000000,254.702587,0.672058,7.258794,44.934311,282.112587,270.358215,2.051915,3.000000,-93.176473,10.876964,2025-02-27T19:37:55.999-06:00,-0.356907,-0.934653,-0.038787,2025-02-27T19:37:55.432-06:00,-0.529640,0.178724,-0.220136,2025-02-27T19:37:55.434-06:00
58.000000,254.502353,0.706940,7.257353,44.934309,281.912353,270.358215,2.744643,3.000000,-93.176597,10.098377,2025-02-27T19:37:56.999-06:00,-0.316572,-0.946015,-0.016678,2025-02-27T19:37:56.437-06:00,-0.077454,0.049997,-0.078045,2025-02-27T19:37:56.438-06:00
59.000000,254.301121,0.678998,7.258469,44.934314,281.711121,270.358215,2.535753,3.000000,-93.176714,9.617951,2025-02-27T19:37:57.999-06:00,-0.352125,-0.934217,-0.051448,2025-02-27T19:37:57.432-06:00,-0.420151,0.163235,-0.368486,2025-02-27T19:37:57.433-06:00
60.000000,253.916998,0.668984,7.258146,44.934321,281.326998,270.358215,2.541665,3.000000,-93.176826,9.012961,2025-02-27T19:37:58.999-06:00,-0.402549,-0.922807,-0.046936,2025-02-27T19:37:58.436-06:00,-0.840222,0.250771,-0.336886,2025-02-27T19:37:58.438-06:00
61.000000,253.843158,0.668395,7.258154,44.934326,281.253158,270.358215,2.514284,3.000000,-93.176923,8.041161,2025-02-27T19:37:59.999-06:00,-0.429814,-0.911775,-0.041104,2025-02-27T19:37:59.431-06:00,-0.975536,0.313925,-0.311691,2025-02-27T19:37:59.432-06:00
62.000000,,,,,,,,,,,,-0.443863,-0.905550,-0.039076,2025-02-27T19:38:00.436-06:00,-1.001341,0.334797,-0.250810,2025-02-27T19:38:00.437-06:00
