seconds_elapsed,location_altitude,location_speedAccuracy,location_bearingAccuracy,location_latitude,location_altitudeAboveMeanSeaLevel,location_bearing,location_horizontalAccuracy,location_verticalAccuracy,location_longitude,location_speed,location_local_time,accelerometerUncalibrated_z,accelerometerUncalibrated_y,accelerometerUncalibrated_x,accelerometerUncalibrated_local_time,accelerometer_z,accelerometer_y,accelerometer_x,accelerometer_local_time
0.000000,250.086447,2.695694,41.558238,44.941363,277.496447,72.444041,2.347017,3.000000,-93.176986,5.253216,2025-02-19T15:45:54.000-06:00,0.020603,-0.999098,-0.063961,2025-02-19T15:45:53.847-06:00,0.644316,-0.033096,0.243204,2025-02-19T15:45:53.856-06:00
1.000000,250.400815,2.703271,38.842563,44.941368,277.810814,80.187623,2.410567,3.000000,-93.176912,5.638331,2025-02-19T15:45:55.000-06:00,0.028822,-0.999611,-0.088194,2025-02-19T15:45:54.832-06:00,0.598077,-0.057972,0.164320,2025-02-19T15:45:54.831-06:00
2.000000,250.406899,2.704084,33.383296,44.941373,277.816899,90.718910,2.385431,3.000000,-93.176824,6.562855,2025-02-19T15:45:56.000-06:00,0.025744,-0.996713,-0.093289,2025-02-19T15:45:55.837-06:00,0.450940,-0.042530,0.307652,2025-02-19T15:45:55.836-06:00
3.000000,250.623281,2.709465,29.370225,44.941374,278.033281,90.718910,2.324587,3.000000,-93.176723,7.474916,2025-02-19T15:45:57.000-06:00,0.018787,-1.003167,-0.085361,2025-02-19T15:45:56.832-06:00,0.343693,-0.105363,0.339273,2025-02-19T15:45:56.831-06:00
4.000000,250.690589,2.694094,26.048146,44.941376,278.100589,90.330269,2.246474,3.000000,-93.176611,8.380377,2025-02-19T15:45:58.000-06:00,0.005584,-1.001264,-0.064052,2025-02-19T15:45:57.837-06:00,0.171708,-0.063363,0.366222,2025-02-19T15:45:57.835-06:00
5.000000,250.898182,2.696217,23.551783,44.941373,278.308182,90.330269,2.166645,3.000000,-93.176487,9.274100,2025-02-19T15:45:59.000-06:00,-0.031210,-0.995534,-0.071447,2025-02-19T15:45:58.832-06:00,-0.166231,-0.005364,0.256071,2025-02-19T15:45:58.830-06:00
6.000000,251.099389,2.706202,22.042854,44.941371,278.509389,90.330269,2.288432,3.000000,-93.176356,9.945925,2025-02-19T15:46:00.000-06:00,-0.029777,-0.997254,-0.064586,2025-02-19T15:45:59.836-06:00,-0.154752,-0.012435,0.268038,2025-02-19T15:45:59.835-06:00
7.000000,251.502469,2.703391,20.927881,44.941371,278.912469,90.330269,2.171178,3.000000,-93.176218,10.463747,2025-02-19T15:46:01.000-06:00,-0.032719,-1.001266,-0.049064,2025-02-19T15:46:00.831-06:00,-0.194605,-0.051108,0.336012,2025-02-19T15:46:00.830-06:00
8.000000,251.616303,2.709885,20.090584,44.941369,279.026303,90.000000,2.095118,3.000000,-93.176077,10.926546,2025-02-19T15:46:02.000-06:00,-0.038915,-0.993735,-0.040900,2025-02-19T15:46:01.836-06:00,-0.224036,0.031437,0.332234,2025-02-19T15:46:01.835-06:00
9.000000,251.690254,2.695114,19.413036,44.941368,279.100254,90.000000,2.192017,3.000000,-93.175933,11.245555,2025-02-19T15:46:03.000-06:00,-0.048866,-0.997495,-0.035247,2025-02-19T15:46:02.831-06:00,-0.290879,-0.002907,0.382467,2025-02-19T15:46:02.830-06:00
10.000000,251.848632,2.701672,18.757459,44.941367,279.258632,90.000000,2.255348,3.000000,-93.175783,11.668461,2025-02-19T15:46:04.000-06:00,-0.053407,-1.004105,-0.056262,2025-02-19T15:46:03.836-06:00,-0.347333,-0.063088,0.177421,2025-02-19T15:46:03.834-06:00
11.000000,251.951715,2.699311,18.167695,44.941368,279.361714,90.000000,2.308837,3.000000,-93.175628,12.036253,2025-02-19T15:46:05.000-06:00,-0.070426,-0.983093,-0.055350,2025-02-19T15:46:04.830-06:00,-0.472219,0.137234,0.100905,2025-02-19T15:46:04.829-06:00
12.000000,252.113144,2.701679,17.873011,44.941368,279.523143,90.000000,2.196032,3.000000,-93.175472,12.244466,2025-02-19T15:46:06.000-06:00,-0.083288,-0.992015,-0.055050,2025-02-19T15:46:05.835-06:00,-0.515087,0.054801,0.090372,2025-02-19T15:46:05.834-06:00
13.000000,252.348555,2.706784,17.925789,44.941365,279.758555,90.000000,2.101750,3.000000,-93.175318,12.231726,2025-02-19T15:46:07.000-06:00,-0.085389,-0.996768,-0.056041,2025-02-19T15:46:06.830-06:00,-0.520996,0.000682,0.158513,2025-02-19T15:46:06.829-06:00
14.000000,252.517542,2.703415,17.898955,44.941366,279.927542,90.000000,2.052581,3.000000,-93.175162,12.233952,2025-02-19T15:46:08.000-06:00,-0.083073,-0.995321,-0.036066,2025-02-19T15:46:07.835-06:00,-0.467394,0.013501,0.318352,2025-02-19T15:46:07.834-06:00
15.000000,252.554793,2.701305,17.866606,44.941368,279.964793,89.140877,2.027262,3.000000,-93.175008,12.246528,2025-02-19T15:46:09.000-06:00,-0.110366,-0.989247,-0.008916,2025-02-19T15:46:08.830-06:00,-0.680559,0.078521,0.544233,2025-02-19T15:46:08.828-06:00
16.000000,252.752901,2.702074,17.792764,44.941372,280.162901,86.857887,2.166241,3.000000,-93.174851,12.298975,2025-02-19T15:46:10.000-06:00,-0.129974,-0.991964,-0.002710,2025-02-19T15:46:09.834-06:00,-0.836763,0.048642,0.677530,2025-02-19T15:46:09.833-06:00
17.000000,252.788979,2.701492,18.117999,44.941380,280.198979,82.935677,2.085795,3.000000,-93.174697,12.078333,2025-02-19T15:46:11.000-06:00,-0.125794,-0.987960,0.007234,2025-02-19T15:46:10.829-06:00,-0.733766,0.066326,0.864345,2025-02-19T15:46:10.828-06:00
18.000000,252.877708,2.699084,18.456380,44.941399,280.287708,80.565742,2.045015,3.000000,-93.174551,11.847870,2025-02-19T15:46:12.000-06:00,-0.098831,-1.010596,-0.029284,2025-02-19T15:46:11.834-06:00,-0.525772,-0.150426,0.548526,2025-02-19T15:46:11.833-06:00
19.000000,253.019172,2.702444,18.653348,44.941407,280.429172,77.226158,2.023744,3.000000,-93.174402,11.736514,2025-02-19T15:46:13.000-06:00,-0.049036,-1.001416,-0.116989,2025-02-19T15:46:12.829-06:00,-0.033370,-0.050288,-0.448211,2025-02-19T15:46:12.828-06:00
20.000000,253.332474,2.698181,18.746636,44.941430,280.742474,77.226158,2.308871,3.000000,-93.174258,11.654090,2025-02-19T15:46:14.000-06:00,-0.027592,-0.972401,-0.124298,2025-02-19T15:46:13.834-06:00,0.393867,0.244005,-0.922555,2025-02-19T15:46:13.832-06:00
21.000000,253.604919,2.707097,18.446004,44.941460,281.014919,75.392883,2.163998,3.000000,-93.174111,11.884001,2025-02-19T15:46:15.000-06:00,-0.044830,-1.002653,-0.097937,2025-02-19T15:46:14.828-06:00,0.279499,-0.053635,-0.800011,2025-02-19T15:46:14.837-06:00
22.000000,253.818806,2.706755,18.009029,44.941491,281.228805,78.626999,2.423060,3.000000,-93.173963,12.173049,2025-02-19T15:46:16.000-06:00,-0.048856,-0.996459,-0.081122,2025-02-19T15:46:15.833-06:00,0.239700,0.000740,-0.604026,2025-02-19T15:46:15.832-06:00
23.000000,253.835639,2.706014,17.698780,44.941495,281.245638,89.385681,2.253626,3.000000,-93.173806,12.383528,2025-02-19T15:46:17.000-06:00,-0.062089,-0.997327,-0.050846,2025-02-19T15:46:16.828-06:00,0.065709,-0.008112,-0.216002,2025-02-19T15:46:16.837-06:00
24.000000,253.990635,2.702813,17.329636,44.941495,281.400635,89.385681,2.130250,3.000000,-93.173645,12.632612,2025-02-19T15:46:18.000-06:00,-0.065802,-0.997321,-0.036225,2025-02-19T15:46:17.833-06:00,0.047566,0.011966,-0.038706,2025-02-19T15:46:17.832-06:00
25.000000,254.042098,2.696633,16.939650,44.941495,281.452098,89.385681,2.515282,3.000000,-93.173481,12.895131,2025-02-19T15:46:19.000-06:00,-0.077589,-0.988090,-0.029961,2025-02-19T15:46:18.828-06:00,-0.053812,0.083160,-0.030165,2025-02-19T15:46:18.836-06:00
26.000000,254.228375,2.702293,16.664512,44.941493,281.638375,89.385681,2.691560,3.000000,-93.173314,13.135504,2025-02-19T15:46:20.000-06:00,-0.087984,-0.991814,-0.023027,2025-02-19T15:46:19.832-06:00,-0.160244,0.051498,0.093020,2025-02-19T15:46:19.831-06:00
27.000000,254.315459,2.703942,16.518355,44.941493,281.725459,90.467376,2.343822,3.000000,-93.173146,13.261138,2025-02-19T15:46:21.000-06:00,-0.083189,-0.986457,-0.034582,2025-02-19T15:46:20.837-06:00,-0.124775,0.102644,0.058830,2025-02-19T15:46:20.836-06:00
28.000000,254.462187,1.777421,10.782063,44.941494,281.872187,90.442794,2.171060,3.000000,-93.172979,13.354557,2025-02-19T15:46:22.000-06:00,-0.071272,-0.998382,-0.038040,2025-02-19T15:46:21.832-06:00,-0.012713,-0.026174,0.065128,2025-02-19T15:46:21.831-06:00
29.000000,254.684966,1.734914,10.420739,44.941494,282.094966,90.637291,2.084120,3.000000,-93.172809,13.487114,2025-02-19T15:46:23.000-06:00,-0.076871,-0.996787,-0.025010,2025-02-19T15:46:22.837-06:00,-0.028086,0.002088,0.158043,2025-02-19T15:46:22.836-06:00
30.000000,254.671952,1.733170,10.332168,44.941493,282.081952,91.078005,2.041472,3.000000,-93.172638,13.591699,2025-02-19T15:46:24.000-06:00,-0.083052,-0.993400,-0.027487,2025-02-19T15:46:23.832-06:00,-0.128925,0.023978,0.156429,2025-02-19T15:46:23.830-06:00
31.000000,254.721279,1.725824,10.228426,44.941493,282.131278,90.261208,2.132883,3.000000,-93.172467,13.670217,2025-02-19T15:46:25.000-06:00,-0.074077,-0.983147,-0.046863,2025-02-19T15:46:24.836-06:00,-0.027083,0.133883,0.035325,2025-02-19T15:46:24.835-06:00
32.000000,254.906387,1.752728,10.297177,44.941495,282.316387,90.261208,2.064036,3.000000,-93.172290,13.791343,2025-02-19T15:46:26.000-06:00,-0.075638,-1.002847,-0.044011,2025-02-19T15:46:25.831-06:00,-0.013880,-0.064915,0.020430,2025-02-19T15:46:25.830-06:00
33.000000,254.963032,1.721998,10.012333,44.941494,282.373032,90.274689,2.030695,3.000000,-93.172113,13.935061,2025-02-19T15:46:27.000-06:00,-0.092605,-0.994447,-0.034885,2025-02-19T15:46:26.836-06:00,-0.179980,0.021834,-0.002793,2025-02-19T15:46:26.835-06:00
34.000000,255.180070,1.717851,9.889451,44.941494,282.590070,90.274689,2.014586,3.000000,-93.171933,14.074600,2025-02-19T15:46:28.000-06:00,-0.105248,-0.992708,-0.048344,2025-02-19T15:46:27.831-06:00,-0.307495,0.033801,-0.073297,2025-02-19T15:46:27.830-06:00
35.000000,255.462454,1.721178,9.981122,44.941493,282.872454,90.274689,2.340123,3.000000,-93.171756,13.970554,2025-02-19T15:46:29.000-06:00,-0.106272,-0.992631,-0.039045,2025-02-19T15:46:28.836-06:00,-0.286264,0.037459,0.024242,2025-02-19T15:46:28.834-06:00
36.000000,255.550637,1.724374,10.073359,44.941491,282.960637,90.274689,2.503607,3.000000,-93.171580,13.868488,2025-02-19T15:46:30.000-06:00,-0.101893,-0.990077,-0.043665,2025-02-19T15:46:29.830-06:00,-0.262838,0.062060,-0.007705,2025-02-19T15:46:29.829-06:00
37.000000,255.628355,1.694392,9.975051,44.941491,283.038355,90.274689,2.242169,3.000000,-93.171406,13.762573,2025-02-19T15:46:31.000-06:00,-0.110344,-0.992609,-0.030829,2025-02-19T15:46:30.835-06:00,-0.288854,0.029915,0.071643,2025-02-19T15:46:30.834-06:00
38.000000,255.653122,1.729804,10.314765,44.941491,283.063122,90.274689,2.117257,3.000000,-93.171235,13.587167,2025-02-19T15:46:32.000-06:00,-0.085523,-0.994608,-0.030733,2025-02-19T15:46:31.830-06:00,-0.056540,0.012841,0.101827,2025-02-19T15:46:31.829-06:00
39.000000,255.626032,1.751655,10.499345,44.941490,283.036031,90.274689,2.149774,3.000000,-93.171067,13.517349,2025-02-19T15:46:33.000-06:00,-0.082233,-0.986430,-0.030009,2025-02-19T15:46:32.835-06:00,-0.030325,0.099627,0.097495,2025-02-19T15:46:32.834-06:00
40.000000,255.918375,1.735082,10.298481,44.941492,283.328375,90.435829,2.073212,3.000000,-93.170894,13.648523,2025-02-19T15:46:34.000-06:00,-0.085569,-0.987179,-0.045736,2025-02-19T15:46:33.830-06:00,-0.005872,0.073546,0.001899,2025-02-19T15:46:33.828-06:00
41.000000,256.053950,1.728099,10.216353,44.941494,283.463950,90.205856,2.035605,3.000000,-93.170721,13.704249,2025-02-19T15:46:35.000-06:00,-0.094709,-1.006079,-0.052417,2025-02-19T15:46:34.834-06:00,-0.133600,-0.098547,-0.054748,2025-02-19T15:46:34.833-06:00
42.000000,256.176260,1.719129,10.160836,44.941495,283.586260,90.205856,2.017206,3.000000,-93.170547,13.706545,2025-02-19T15:46:36.000-06:00,-0.088116,-0.973205,-0.068203,2025-02-19T15:46:35.829-06:00,-0.048015,0.210861,-0.128344,2025-02-19T15:46:35.828-06:00
43.000000,256.325235,1.718949,10.165721,44.941495,283.735235,90.205856,2.467084,3.000000,-93.170373,13.700075,2025-02-19T15:46:37.000-06:00,-0.103613,-1.004431,-0.031456,2025-02-19T15:46:36.834-06:00,-0.128718,-0.092459,0.033853,2025-02-19T15:46:36.833-06:00
44.000000,256.355385,1.720055,10.248097,44.941494,283.765385,90.257629,2.610721,3.000000,-93.170202,13.599217,2025-02-19T15:46:38.000-06:00,-0.108802,-0.987258,-0.037386,2025-02-19T15:46:37.829-06:00,-0.202601,0.078608,-0.013995,2025-02-19T15:46:37.828-06:00
45.000000,256.454342,1.738369,10.456772,44.941495,283.864342,90.257629,2.296137,3.000000,-93.170032,13.469827,2025-02-19T15:46:39.000-06:00,-0.113475,-0.999388,-0.028120,2025-02-19T15:46:38.834-06:00,-0.222714,-0.034446,0.027871,2025-02-19T15:46:38.832-06:00
46.000000,256.557028,1.753182,10.745894,44.941496,283.967028,90.257629,3.537703,3.000000,-93.169866,13.218665,2025-02-19T15:46:40.000-06:00,-0.084673,-0.999439,-0.029927,2025-02-19T15:46:39.828-06:00,0.032215,-0.035628,0.024051,2025-02-19T15:46:39.837-06:00
47.000000,256.619688,1.747742,10.716931,44.941494,284.029688,90.257629,3.129209,3.000000,-93.169698,13.212189,2025-02-19T15:46:41.000-06:00,-0.075066,-0.988351,-0.034784,2025-02-19T15:46:40.833-06:00,0.053003,0.073765,0.084973,2025-02-19T15:46:40.832-06:00
48.000000,256.806826,1.741034,10.609276,44.941494,284.216826,90.257629,2.635837,3.000000,-93.169528,13.292533,2025-02-19T15:46:42.000-06:00,-0.083247,-0.999975,-0.031834,2025-02-19T15:46:41.828-06:00,0.077592,-0.055572,0.045985,2025-02-19T15:46:41.837-06:00
49.000000,256.838307,1.736749,10.454518,44.941493,284.248307,90.331268,2.310384,3.000000,-93.169355,13.459617,2025-02-19T15:46:43.000-06:00,-0.078195,-0.992643,-0.041925,2025-02-19T15:46:42.833-06:00,0.077631,0.031888,-0.048586,2025-02-19T15:46:42.832-06:00
50.000000,257.115269,1.710789,10.214892,44.941492,284.525269,90.331268,2.278668,3.000000,-93.169183,13.567379,2025-02-19T15:46:44.000-06:00,-0.092536,-1.009478,-0.043842,2025-02-19T15:46:43.828-06:00,-0.085754,-0.138348,-0.084457,2025-02-19T15:46:43.836-06:00
51.000000,257.105477,1.744874,10.440336,44.941490,284.515477,90.316559,2.543544,3.000000,-93.169011,13.539547,2025-02-19T15:46:45.000-06:00,-0.116754,-0.993917,-0.052207,2025-02-19T15:46:44.832-06:00,-0.399185,0.025340,-0.113256,2025-02-19T15:46:44.831-06:00
52.000000,257.622043,1.741138,10.620251,44.941487,285.032043,90.316559,2.261352,3.000000,-93.168840,13.273153,2025-02-19T15:46:46.000-06:00,-0.108513,-0.993593,-0.049084,2025-02-19T15:46:45.837-06:00,-0.390806,0.025687,-0.099011,2025-02-19T15:46:45.836-06:00
53.000000,258.016899,1.768753,11.089365,44.941487,285.426899,90.316559,2.129109,3.000000,-93.168677,12.905926,2025-02-19T15:46:47.000-06:00,-0.110759,-0.994715,-0.038014,2025-02-19T15:46:46.832-06:00,-0.409262,0.027356,-0.015062,2025-02-19T15:46:46.831-06:00
54.000000,258.401712,1.778055,11.529560,44.941484,285.811711,90.316559,2.272238,3.000000,-93.168518,12.477681,2025-02-19T15:46:48.000-06:00,-0.115398,-0.989779,-0.039236,2025-02-19T15:46:47.837-06:00,-0.374055,0.061451,-0.054017,2025-02-19T15:46:47.836-06:00
55.000000,258.599715,1.776117,11.964987,44.941486,286.009715,90.316559,2.871739,3.000000,-93.168367,12.014088,2025-02-19T15:46:49.000-06:00,-0.113272,-0.995570,-0.049466,2025-02-19T15:46:48.832-06:00,-0.337568,0.010197,-0.167922,2025-02-19T15:46:48.830-06:00
56.000000,259.045557,1.791097,12.489875,44.941485,286.455557,90.316559,2.455515,3.000000,-93.168220,11.604132,2025-02-19T15:46:50.000-06:00,-0.127787,-0.980729,-0.043163,2025-02-19T15:46:49.836-06:00,-0.430840,0.148280,-0.110579,2025-02-19T15:46:49.835-06:00
57.000000,259.276004,1.810489,13.263182,44.941484,286.686004,90.316559,2.243315,3.000000,-93.168081,11.046831,2025-02-19T15:46:51.000-06:00,-0.137695,-0.987981,-0.048491,2025-02-19T15:46:50.831-06:00,-0.481314,0.074514,-0.146910,2025-02-19T15:46:50.830-06:00
58.000000,259.491663,1.851130,14.028502,44.941482,286.901663,90.316559,2.133011,3.000000,-93.167948,10.492226,2025-02-19T15:46:52.000-06:00,-0.193752,-0.980343,-0.057390,2025-02-19T15:46:51.836-06:00,-0.992680,0.147779,-0.200152,2025-02-19T15:46:51.835-06:00
59.000000,259.779496,1.956824,15.632274,44.941481,287.189495,90.316559,2.074624,3.000000,-93.167829,9.462183,2025-02-19T15:46:53.000-06:00,-0.202366,-0.980739,-0.061618,2025-02-19T15:46:52.831-06:00,-0.990054,0.129713,-0.259256,2025-02-19T15:46:52.830-06:00
60.000000,259.980824,2.007724,18.727349,44.941480,287.390824,90.316559,2.043835,3.000000,-93.167727,8.236827,2025-02-19T15:46:54.000-06:00,-0.229243,-0.976891,-0.063908,2025-02-19T15:46:53.836-06:00,-1.175687,0.159949,-0.279054,2025-02-19T15:46:53.834-06:00
61.000000,260.077132,2.142473,22.216416,44.941479,287.487132,90.260902,2.027050,3.000000,-93.167640,7.151554,2025-02-19T15:46:55.000-06:00,-0.220692,-0.982046,-0.067731,2025-02-19T15:46:54.830-06:00,-1.032176,0.103949,-0.281740,2025-02-19T15:46:54.829-06:00
62.000000,260.183444,2.347440,30.930975,44.941479,287.593444,90.260902,2.019619,3.000000,-93.167578,5.371144,2025-02-19T15:46:56.000-06:00,-0.186418,-0.983693,-0.055175,2025-02-19T15:46:55.835-06:00,-0.618435,0.078197,-0.139003,2025-02-19T15:46:55.834-06:00
63.000000,260.377971,2.822509,39.840125,44.941480,287.787971,90.260902,2.015696,3.000000,-93.167533,4.013914,2025-02-19T15:46:57.000-06:00,-0.173490,-0.983768,-0.054326,2025-02-19T15:46:56.830-06:00,-0.415536,0.065566,-0.100973,2025-02-19T15:46:56.829-06:00
64.000000,260.435840,3.096224,56.595295,44.941480,287.845840,90.260902,2.795528,3.000000,-93.167497,2.908761,2025-02-19T15:46:58.000-06:00,-0.148723,-0.987193,-0.044615,2025-02-19T15:46:57.835-06:00,-0.099497,0.020032,0.005339,2025-02-19T15:46:57.834-06:00
65.000000,260.563928,3.602561,70.853584,44.941478,287.973928,90.260902,2.921064,3.000000,-93.167475,2.000426,2025-02-19T15:46:59.000-06:00,-0.115960,-0.990387,-0.039512,2025-02-19T15:46:58.830-06:00,0.207073,-0.007657,0.047446,2025-02-19T15:46:58.828-06:00
66.000000,260.667562,3.918694,82.803775,44.941476,288.077562,90.260902,2.975837,3.000000,-93.167460,1.364403,2025-02-19T15:47:00.000-06:00,-0.102568,-0.991660,-0.033181,2025-02-19T15:46:59.834-06:00,0.303833,-0.014510,0.089416,2025-02-19T15:46:59.833-06:00
67.000000,260.717823,3.779851,180.000000,44.941475,288.127822,90.260902,2.867411,3.000000,-93.167449,0.936534,2025-02-19T15:47:01.000-06:00,-0.105287,-0.992141,-0.035808,2025-02-19T15:47:00.829-06:00,0.235601,-0.014974,0.053788,2025-02-19T15:47:00.828-06:00
68.000000,260.775490,3.757653,180.000000,44.941476,288.185490,90.260902,2.843904,3.000000,-93.167442,0.610013,2025-02-19T15:47:02.000-06:00,-0.104913,-0.992123,-0.034056,2025-02-19T15:47:01.834-06:00,0.199350,-0.006837,0.056766,2025-02-19T15:47:01.833-06:00
69.000000,260.890852,3.738305,180.000000,44.941476,288.300852,90.260902,2.858994,3.000000,-93.167438,0.264583,2025-02-19T15:47:03.000-06:00,-0.071267,-0.995454,-0.025535,2025-02-19T15:47:02.829-06:00,0.450583,-0.031566,0.120152,2025-02-19T15:47:02.828-06:00
70.000000,260.768872,3.749180,180.000000,44.941478,288.178872,90.260902,2.834684,3.000000,-93.167440,0.033590,2025-02-19T15:47:04.000-06:00,-0.069021,-0.995852,-0.024261,2025-02-19T15:47:03.834-06:00,0.439610,-0.027899,0.120282,2025-02-19T15:47:03.832-06:00
71.000000,260.703124,3.746983,180.000000,44.941480,288.113123,90.260902,2.812580,3.000000,-93.167441,0.041737,2025-02-19T15:47:05.000-06:00,-0.068594,-0.996100,-0.024061,2025-02-19T15:47:04.828-06:00,0.411769,-0.027708,0.106545,2025-02-19T15:47:04.837-06:00
