seconds_elapsed,location_altitude,location_speedAccuracy,location_bearingAccuracy,location_latitude,location_altitudeAboveMeanSeaLevel,location_bearing,location_horizontalAccuracy,location_verticalAccuracy,location_longitude,location_speed,location_local_time,accelerometerUncalibrated_z,accelerometerUncalibrated_y,accelerometerUncalibrated_x,accelerometerUncalibrated_local_time,accelerometer_z,accelerometer_y,accelerometer_x,accelerometer_local_time
0.000000,263.234357,0.573597,14.359757,44.940060,290.644357,350.701149,3.410361,3.000000,-93.167066,3.664437,2025-02-19T15:33:02.999-06:00,0.073046,-1.001994,0.097054,2025-02-19T15:33:02.283-06:00,0.433500,-0.044268,1.477102,2025-02-19T15:33:02.293-06:00
1.000000,263.072193,0.669227,12.359335,44.940091,290.482193,331.520855,3.339843,3.000000,-93.167100,4.959039,2025-02-19T15:33:03.999-06:00,0.051026,-1.003656,0.122786,2025-02-19T15:33:03.268-06:00,0.257980,-0.050051,1.690021,2025-02-19T15:33:03.268-06:00
2.000000,262.862854,0.602625,9.578099,44.940114,290.272854,311.032826,3.272850,3.000000,-93.167157,5.908606,2025-02-19T15:33:04.999-06:00,0.060521,-0.991752,0.143510,2025-02-19T15:33:04.263-06:00,0.321861,0.074909,1.802677,2025-02-19T15:33:04.263-06:00
3.000000,262.684312,0.535055,7.408208,44.940127,290.094312,293.620387,3.209208,3.000000,-93.167234,6.553175,2025-02-19T15:33:05.999-06:00,0.022580,-1.011397,0.062477,2025-02-19T15:33:05.268-06:00,-0.121513,-0.128686,0.847041,2025-02-19T15:33:05.268-06:00
4.000000,262.570493,0.264584,6.892705,44.940135,289.980492,285.360472,3.285033,3.000000,-93.167324,6.884915,2025-02-19T15:33:06.999-06:00,-0.032695,-0.994562,-0.010035,2025-02-19T15:33:06.263-06:00,-0.645330,0.047063,0.109319,2025-02-19T15:33:06.263-06:00
5.000000,262.563734,0.301659,7.171545,44.940134,289.973734,280.263225,3.166963,3.000000,-93.167410,6.525798,2025-02-19T15:33:07.999-06:00,-0.041094,-1.001172,-0.032211,2025-02-19T15:33:07.267-06:00,-0.757085,-0.020143,-0.160492,2025-02-19T15:33:07.267-06:00
6.000000,262.524394,0.307405,7.228009,44.940134,289.934394,277.666855,3.337875,3.000000,-93.167493,6.370381,2025-02-19T15:33:08.999-06:00,-0.025572,-0.991024,-0.040962,2025-02-19T15:33:08.262-06:00,-0.571702,0.081390,-0.179243,2025-02-19T15:33:08.262-06:00
7.000000,262.373092,0.306990,7.235102,44.940133,289.783092,275.799251,3.267033,3.000000,-93.167573,6.216159,2025-02-19T15:33:09.999-06:00,-0.067563,-1.000340,-0.047627,2025-02-19T15:33:09.267-06:00,-0.932806,-0.011444,-0.281630,2025-02-19T15:33:09.267-06:00
8.000000,262.301751,0.292965,7.205730,44.940131,289.711751,274.557369,3.294077,3.000000,-93.167642,5.336929,2025-02-19T15:33:10.999-06:00,-0.179799,-0.996140,-0.088869,2025-02-19T15:33:10.262-06:00,-1.977091,0.034424,-0.652549,2025-02-19T15:33:10.262-06:00
9.000000,262.205787,0.269839,8.927431,44.940128,289.615787,273.895924,3.132317,3.000000,-93.167685,3.619729,2025-02-19T15:33:11.999-06:00,-0.170507,-0.995579,-0.089533,2025-02-19T15:33:11.266-06:00,-1.770751,0.039480,-0.633441,2025-02-19T15:33:11.266-06:00
10.000000,262.125450,0.291456,11.896003,44.940125,289.535450,273.554257,3.016024,3.000000,-93.167709,2.083598,2025-02-19T15:33:12.999-06:00,-0.100152,-0.998708,-0.064727,2025-02-19T15:33:12.271-06:00,-0.974116,0.009999,-0.386586,2025-02-19T15:33:12.271-06:00
11.000000,262.065299,0.295805,16.513086,44.940123,289.475299,273.610451,2.998257,3.000000,-93.167728,1.504158,2025-02-19T15:33:13.999-06:00,0.020873,-0.996265,-0.032678,2025-02-19T15:33:13.266-06:00,0.235099,0.033335,-0.061538,2025-02-19T15:33:13.266-06:00
12.000000,262.037572,0.297638,12.887152,44.940121,289.447572,273.426399,2.974859,3.000000,-93.167752,1.926038,2025-02-19T15:33:14.999-06:00,0.078240,-0.998179,-0.014816,2025-02-19T15:33:14.271-06:00,0.790504,0.013344,0.103392,2025-02-19T15:33:14.271-06:00
13.000000,261.983731,0.285219,9.368967,44.940120,289.393731,272.840880,2.893621,3.000000,-93.167790,3.037218,2025-02-19T15:33:15.999-06:00,0.155982,-0.993753,0.013766,2025-02-19T15:33:15.266-06:00,1.545087,0.060506,0.343786,2025-02-19T15:33:15.266-06:00
14.000000,261.758596,0.307117,14.426929,44.940120,289.168596,271.935828,2.824881,3.000000,-93.167851,4.649864,2025-02-19T15:33:16.999-06:00,0.125906,-0.996506,0.000309,2025-02-19T15:33:16.270-06:00,1.227208,0.030514,0.221533,2025-02-19T15:33:16.270-06:00
15.000000,261.485800,0.306739,12.767390,44.940120,288.895800,271.516950,2.863038,3.000000,-93.167928,5.921478,2025-02-19T15:33:17.999-06:00,0.107266,-0.995450,-0.003247,2025-02-19T15:33:17.265-06:00,1.005808,0.044321,0.209272,2025-02-19T15:33:17.265-06:00
16.000000,261.204450,0.306438,12.328438,44.940119,288.614449,271.059322,2.899854,3.000000,-93.168018,6.978773,2025-02-19T15:33:18.999-06:00,0.071433,-0.998015,-0.016280,2025-02-19T15:33:18.270-06:00,0.630649,0.016583,0.090307,2025-02-19T15:33:18.270-06:00
17.000000,260.936617,0.306157,11.732097,44.940118,288.346617,270.597919,2.827940,3.000000,-93.168119,7.732377,2025-02-19T15:33:19.999-06:00,0.039646,-1.001016,-0.023866,2025-02-19T15:33:19.265-06:00,0.304329,-0.018055,-0.002818,2025-02-19T15:33:19.265-06:00
18.000000,260.635394,0.306238,11.604425,44.940117,288.045394,270.424514,2.827360,3.000000,-93.168226,8.347847,2025-02-19T15:33:20.999-06:00,0.055971,-0.990970,-0.027902,2025-02-19T15:33:20.269-06:00,0.402422,0.088446,-0.021082,2025-02-19T15:33:20.269-06:00
19.000000,260.297879,0.306130,11.298541,44.940117,287.707879,270.267620,2.829875,3.000000,-93.168338,8.888038,2025-02-19T15:33:21.999-06:00,0.045968,-0.997023,-0.016327,2025-02-19T15:33:21.264-06:00,0.294392,0.028905,0.014969,2025-02-19T15:33:21.264-06:00
20.000000,259.893224,0.305997,11.109402,44.940116,287.303223,269.890126,2.778858,3.000000,-93.168460,9.441819,2025-02-19T15:33:22.999-06:00,0.014638,-0.993919,-0.026560,2025-02-19T15:33:22.269-06:00,-0.015474,0.056858,-0.098130,2025-02-19T15:33:22.269-06:00
21.000000,259.549983,0.305853,10.507740,44.940116,286.959982,269.964871,2.485782,3.000000,-93.168584,9.599699,2025-02-19T15:33:23.999-06:00,-0.010022,-0.995445,-0.043483,2025-02-19T15:33:23.264-06:00,-0.284306,0.039930,-0.218606,2025-02-19T15:33:23.264-06:00
22.000000,259.260668,0.306002,10.387754,44.940117,286.670668,269.978145,2.301815,3.000000,-93.168705,9.503553,2025-02-19T15:33:24.999-06:00,-0.053735,-0.999594,-0.044772,2025-02-19T15:33:24.269-06:00,-0.708145,0.002541,-0.281739,2025-02-19T15:33:24.269-06:00
23.000000,258.951444,0.306334,10.025962,44.940118,286.361444,270.183106,2.218040,3.000000,-93.168816,8.872164,2025-02-19T15:33:25.999-06:00,-0.124745,-0.999071,-0.069164,2025-02-19T15:33:25.263-06:00,-1.368084,-0.001546,-0.449767,2025-02-19T15:33:25.263-06:00
24.000000,258.719203,0.306853,9.192715,44.940116,286.129203,270.375652,2.272210,3.000000,-93.168917,7.874071,2025-02-19T15:33:27.000-06:00,-0.121060,-0.996975,-0.067489,2025-02-19T15:33:26.268-06:00,-1.354896,0.029669,-0.379146,2025-02-19T15:33:26.268-06:00
25.000000,258.815701,0.157849,7.090705,44.940117,286.225700,270.696326,2.182444,3.000000,-93.169008,6.925432,2025-02-19T15:33:28.000-06:00,-0.127025,-1.003248,-0.069054,2025-02-19T15:33:27.263-06:00,-1.322453,-0.039317,-0.385595,2025-02-19T15:33:27.263-06:00
26.000000,258.736008,0.303351,7.218950,44.940117,286.146008,270.487511,2.180772,3.000000,-93.169082,5.812577,2025-02-19T15:33:29.000-06:00,-0.112274,-0.991790,-0.062602,2025-02-19T15:33:28.268-06:00,-1.110357,0.077930,-0.349063,2025-02-19T15:33:28.268-06:00
27.000000,258.578041,0.276347,7.198154,44.940116,285.988041,270.384682,2.306387,3.000000,-93.169144,4.877558,2025-02-19T15:33:30.000-06:00,-0.110897,-1.001198,-0.064190,2025-02-19T15:33:29.263-06:00,-1.000844,-0.016687,-0.315239,2025-02-19T15:33:29.263-06:00
28.000000,258.464847,0.286850,8.787214,44.940117,285.874847,270.392956,2.383717,3.000000,-93.169193,3.998395,2025-02-19T15:33:31.000-06:00,-0.110818,-0.995076,-0.075840,2025-02-19T15:33:30.267-06:00,-0.924335,0.036589,-0.290107,2025-02-19T15:33:30.267-06:00
29.000000,258.453048,0.302149,8.848064,44.940116,285.863047,270.649810,2.506133,3.000000,-93.169232,3.066125,2025-02-19T15:33:32.000-06:00,-0.110676,-0.998682,-0.080612,2025-02-19T15:33:31.262-06:00,-0.754142,-0.008980,-0.249926,2025-02-19T15:33:31.262-06:00
30.000000,258.672480,0.310737,12.114454,44.940115,286.082480,270.824616,2.507104,3.000000,-93.169256,2.059407,2025-02-19T15:33:33.000-06:00,-0.085172,-0.999104,-0.071909,2025-02-19T15:33:32.267-06:00,-0.436024,-0.015890,-0.133545,2025-02-19T15:33:32.267-06:00
31.000000,258.643101,0.312812,17.729015,44.940116,286.053101,271.119059,2.493822,3.000000,-93.169272,1.404323,2025-02-19T15:33:34.000-06:00,-0.023935,-0.995941,-0.057676,2025-02-19T15:33:33.262-06:00,0.146752,0.014875,0.018586,2025-02-19T15:33:33.262-06:00
32.000000,258.741120,0.314338,19.144787,44.940116,286.151120,271.415839,2.444440,3.000000,-93.169288,1.297686,2025-02-19T15:33:35.000-06:00,-0.006809,-0.997514,-0.052476,2025-02-19T15:33:34.267-06:00,0.307965,0.000005,0.071269,2025-02-19T15:33:34.267-06:00
33.000000,258.757623,0.312929,18.863435,44.940116,286.167623,271.697602,2.404036,3.000000,-93.169305,1.317987,2025-02-19T15:33:36.000-06:00,-0.008603,-0.996700,-0.052481,2025-02-19T15:33:35.271-06:00,0.312876,0.007580,0.070063,2025-02-19T15:33:35.271-06:00
34.000000,258.822396,0.312600,18.547359,44.940115,286.232396,271.784290,2.489914,3.000000,-93.169322,1.340458,2025-02-19T15:33:37.000-06:00,-0.019805,-0.996690,-0.054536,2025-02-19T15:33:36.266-06:00,0.210922,0.008091,0.043120,2025-02-19T15:33:36.266-06:00
35.000000,258.806331,0.312154,19.584884,44.940114,286.216331,271.910507,2.480767,3.000000,-93.169337,1.270507,2025-02-19T15:33:38.000-06:00,0.037612,-0.995743,-0.036245,2025-02-19T15:33:37.271-06:00,0.762618,0.016971,0.195105,2025-02-19T15:33:37.271-06:00
36.000000,258.849889,0.311237,13.404157,44.940114,286.259889,271.764832,2.473880,3.000000,-93.169363,1.861081,2025-02-19T15:33:39.000-06:00,0.046042,-0.997732,-0.029250,2025-02-19T15:33:38.266-06:00,0.844528,-0.001747,0.219965,2025-02-19T15:33:38.266-06:00
37.000000,258.856403,0.305692,9.824157,44.940113,286.266403,271.245609,2.442288,3.000000,-93.169394,2.539617,2025-02-19T15:33:40.000-06:00,0.139378,-0.996114,0.004964,2025-02-19T15:33:39.270-06:00,1.658862,0.026115,0.493427,2025-02-19T15:33:39.270-06:00
38.000000,258.686369,0.245333,9.860536,44.940112,286.096369,270.419073,2.414645,3.000000,-93.169446,4.086111,2025-02-19T15:33:41.000-06:00,0.156951,-1.002059,0.010727,2025-02-19T15:33:40.265-06:00,1.658464,-0.029519,0.465693,2025-02-19T15:33:40.265-06:00
39.000000,258.431304,0.307399,13.447678,44.940111,285.841304,269.777872,2.489478,3.000000,-93.169517,5.524742,2025-02-19T15:33:42.000-06:00,0.137488,-0.984669,-0.005780,2025-02-19T15:33:41.270-06:00,1.341893,0.144261,0.318821,2025-02-19T15:33:41.270-06:00
40.000000,258.050005,0.306726,12.431062,44.940111,285.460005,269.632554,2.486132,3.000000,-93.169606,6.922459,2025-02-19T15:33:43.000-06:00,0.129439,-0.994534,-0.017716,2025-02-19T15:33:42.265-06:00,1.131383,0.039069,0.256146,2025-02-19T15:33:42.265-06:00
41.000000,257.854577,0.306654,12.650370,44.940110,285.264577,269.553984,2.435822,3.000000,-93.169707,7.975010,2025-02-19T15:33:44.000-06:00,0.096575,-0.997134,-0.024800,2025-02-19T15:33:43.270-06:00,0.746130,0.031354,0.099797,2025-02-19T15:33:43.270-06:00
42.000000,257.581257,0.306223,13.784883,44.940109,284.991257,269.099417,2.341119,3.000000,-93.169821,8.672576,2025-02-19T15:33:45.000-06:00,0.060177,-1.005907,0.004364,2025-02-19T15:33:44.264-06:00,0.328108,-0.070843,0.164658,2025-02-19T15:33:44.264-06:00
43.000000,257.518475,0.306234,12.778485,44.940109,284.928475,269.303194,2.236600,3.000000,-93.169945,9.401474,2025-02-19T15:33:46.000-06:00,0.077682,-0.991842,-0.013220,2025-02-19T15:33:45.269-06:00,0.406567,0.069895,0.051136,2025-02-19T15:33:45.269-06:00
44.000000,257.262382,0.306047,12.817588,44.940109,284.672382,269.423280,2.148176,3.000000,-93.170074,10.191439,2025-02-19T15:33:47.000-06:00,0.069270,-0.994324,-0.010182,2025-02-19T15:33:46.264-06:00,0.290070,0.051200,0.086310,2025-02-19T15:33:46.264-06:00
45.000000,257.022600,0.305888,12.510847,44.940109,284.432600,269.296013,2.160117,3.000000,-93.170212,10.776019,2025-02-19T15:33:48.000-06:00,0.035983,-1.004105,-0.036644,2025-02-19T15:33:47.269-06:00,-0.074779,-0.051151,-0.152613,2025-02-19T15:33:47.269-06:00
46.000000,256.909314,0.306189,11.907145,44.940110,284.319314,269.792818,2.187250,3.000000,-93.170355,11.070656,2025-02-19T15:33:49.000-06:00,0.001540,-0.992093,-0.038693,2025-02-19T15:33:48.264-06:00,-0.472580,0.064298,-0.118787,2025-02-19T15:33:48.264-06:00
47.000000,256.856667,0.306384,11.252140,44.940110,284.266666,269.900881,2.213163,3.000000,-93.170495,10.937897,2025-02-19T15:33:50.000-06:00,0.007481,-0.996500,-0.040656,2025-02-19T15:33:49.268-06:00,-0.375503,0.021747,-0.179245,2025-02-19T15:33:49.268-06:00
48.000000,256.831570,0.306638,10.744092,44.940110,284.241570,270.179521,2.237115,3.000000,-93.170635,10.925382,2025-02-19T15:33:51.000-06:00,0.015906,-0.998877,-0.049514,2025-02-19T15:33:50.263-06:00,-0.282956,-0.003900,-0.286740,2025-02-19T15:33:50.263-06:00
49.000000,256.596549,0.306755,10.009120,44.940113,284.006549,270.888543,2.259803,3.000000,-93.170776,11.051343,2025-02-19T15:33:52.000-06:00,0.003800,-0.996667,-0.012043,2025-02-19T15:33:51.268-06:00,-0.403965,0.015519,0.047803,2025-02-19T15:33:51.268-06:00
50.000000,256.695075,0.306964,8.980158,44.940112,284.105074,269.591905,2.278528,3.000000,-93.170917,11.111406,2025-02-19T15:33:53.000-06:00,0.002900,-1.000635,-0.015294,2025-02-19T15:33:52.263-06:00,-0.353071,-0.020266,0.071645,2025-02-19T15:33:52.263-06:00
51.000000,256.761365,0.307573,8.561631,44.940112,284.171364,269.250314,2.306497,3.000000,-93.171056,11.060243,2025-02-19T15:33:54.000-06:00,0.009756,-0.998940,-0.016056,2025-02-19T15:33:53.268-06:00,-0.319918,0.006392,-0.011902,2025-02-19T15:33:53.268-06:00
52.000000,256.585711,0.307774,7.287783,44.940113,283.995711,269.455137,2.316910,3.000000,-93.171199,11.225334,2025-02-19T15:33:55.000-06:00,0.041291,-0.999616,-0.032070,2025-02-19T15:33:54.262-06:00,-0.026282,-0.010376,0.001215,2025-02-19T15:33:54.262-06:00
53.000000,256.587865,0.071342,7.224549,44.940111,283.997865,269.486675,2.327480,3.000000,-93.171345,11.590636,2025-02-19T15:33:56.000-06:00,0.055913,-0.984901,-0.038904,2025-02-19T15:33:55.267-06:00,0.132640,0.135294,-0.030951,2025-02-19T15:33:55.267-06:00
54.000000,256.395859,0.124870,7.227565,44.940112,283.805859,269.504276,2.642764,3.000000,-93.171500,12.008607,2025-02-19T15:33:57.000-06:00,0.055117,-1.002939,-0.015549,2025-02-19T15:33:56.262-06:00,0.139998,-0.049275,0.070113,2025-02-19T15:33:56.262-06:00
55.000000,256.361425,0.165517,7.236070,44.940111,283.771425,269.421980,2.340068,3.000000,-93.171659,12.340039,2025-02-19T15:33:58.000-06:00,0.038306,-1.009094,-0.022093,2025-02-19T15:33:57.267-06:00,-0.008963,-0.090869,-0.048393,2025-02-19T15:33:57.267-06:00
56.000000,256.365075,0.212549,7.247934,44.940112,283.775075,269.754567,2.344984,3.000000,-93.171824,12.881278,2025-02-19T15:33:59.000-06:00,0.025867,-0.995154,-0.028012,2025-02-19T15:33:58.262-06:00,-0.184955,0.038125,-0.131185,2025-02-19T15:33:58.262-06:00
57.000000,256.360072,0.258812,7.253518,44.940111,283.770072,269.697239,2.345373,3.000000,-93.171990,12.946146,2025-02-19T15:34:00.000-06:00,0.017089,-0.995684,-0.019382,2025-02-19T15:33:59.266-06:00,-0.269784,0.031863,-0.013197,2025-02-19T15:33:59.266-06:00
58.000000,256.280680,0.265786,7.252790,44.940109,283.690680,269.503090,2.345023,3.000000,-93.172155,13.011952,2025-02-19T15:34:01.000-06:00,0.018676,-0.999507,-0.026053,2025-02-19T15:34:00.271-06:00,-0.245638,-0.009513,-0.100152,2025-02-19T15:34:00.271-06:00
59.000000,256.128032,0.261782,7.247496,44.940108,283.538032,270.139205,2.341255,3.000000,-93.172321,13.139021,2025-02-19T15:34:02.000-06:00,0.012771,-0.994150,-0.038540,2025-02-19T15:34:01.266-06:00,-0.331957,0.047642,-0.077118,2025-02-19T15:34:01.266-06:00
60.000000,256.156990,0.271970,7.243181,44.940107,283.566990,270.067029,2.339174,3.000000,-93.172486,13.231682,2025-02-19T15:34:03.000-06:00,0.001592,-1.006393,-0.051599,2025-02-19T15:34:02.271-06:00,-0.389261,-0.077916,-0.203555,2025-02-19T15:34:02.271-06:00
61.000000,256.215339,0.304903,7.258872,44.940106,283.625339,269.917857,2.335261,3.000000,-93.172647,12.895604,2025-02-19T15:34:04.000-06:00,0.000773,-0.985194,-0.054615,2025-02-19T15:34:03.266-06:00,-0.383240,0.139565,-0.200304,2025-02-19T15:34:03.266-06:00
62.000000,256.101109,0.302843,7.257907,44.940105,283.511109,270.058396,2.335179,3.000000,-93.172804,12.481880,2025-02-19T15:34:05.000-06:00,0.015773,-0.995857,-0.042552,2025-02-19T15:34:04.270-06:00,-0.259771,0.019345,-0.043419,2025-02-19T15:34:04.270-06:00
63.000000,255.947807,0.305110,7.258413,44.940103,283.357807,269.803309,2.344942,3.000000,-93.172962,12.423736,2025-02-19T15:34:06.000-06:00,0.027902,-1.001308,-0.038346,2025-02-19T15:34:05.265-06:00,-0.101496,-0.030341,-0.010886,2025-02-19T15:34:05.265-06:00
64.000000,255.743602,0.304127,7.257419,44.940102,283.153602,269.568767,2.347701,3.000000,-93.173123,12.692145,2025-02-19T15:34:07.000-06:00,0.027950,-1.001286,-0.041259,2025-02-19T15:34:06.270-06:00,-0.115278,-0.028157,0.010920,2025-02-19T15:34:06.270-06:00
65.000000,255.730763,0.304858,7.258142,44.940105,283.140763,270.113865,2.342004,3.000000,-93.173287,12.792176,2025-02-19T15:34:08.000-06:00,0.025531,-0.994165,-0.047236,2025-02-19T15:34:07.265-06:00,-0.098161,0.046916,-0.076735,2025-02-19T15:34:07.265-06:00
66.000000,255.767632,0.304154,7.257838,44.940106,283.177632,269.983554,2.339120,3.000000,-93.173450,12.835777,2025-02-19T15:34:09.000-06:00,0.009465,-0.982150,-0.035526,2025-02-19T15:34:08.270-06:00,-0.243659,0.165232,0.041157,2025-02-19T15:34:08.270-06:00
67.000000,255.700124,0.303453,7.255029,44.940105,283.110124,269.459991,2.335868,3.000000,-93.173612,12.673171,2025-02-19T15:34:10.000-06:00,0.002752,-1.002234,-0.048534,2025-02-19T15:34:09.264-06:00,-0.316000,-0.037052,-0.098775,2025-02-19T15:34:09.264-06:00
68.000000,255.604031,0.305275,7.252092,44.940105,283.014031,269.883181,2.333407,3.000000,-93.173771,12.559025,2025-02-19T15:34:11.000-06:00,-0.007904,-1.003324,-0.067110,2025-02-19T15:34:10.269-06:00,-0.340621,-0.048340,-0.282858,2025-02-19T15:34:10.269-06:00
69.000000,255.763072,0.306310,7.258598,44.940106,283.173072,270.452538,2.335113,3.000000,-93.173928,12.442866,2025-02-19T15:34:12.000-06:00,0.002177,-0.996053,-0.043048,2025-02-19T15:34:11.264-06:00,-0.246270,0.031429,-0.066373,2025-02-19T15:34:11.264-06:00
70.000000,255.782701,0.308625,7.258946,44.940108,283.192701,270.581517,2.335642,3.000000,-93.174082,12.228515,2025-02-19T15:34:13.000-06:00,0.013275,-0.986194,-0.030285,2025-02-19T15:34:12.269-06:00,-0.103105,0.128129,0.022648,2025-02-19T15:34:12.269-06:00
71.000000,255.666093,0.306829,7.258800,44.940109,283.076093,270.456395,2.335921,3.000000,-93.174236,12.182170,2025-02-19T15:34:14.000-06:00,0.027809,-0.987886,-0.035208,2025-02-19T15:34:13.264-06:00,0.053988,0.103658,0.089820,2025-02-19T15:34:13.264-06:00
72.000000,255.423726,0.305742,7.256777,44.940115,282.833726,270.345615,2.343449,3.000000,-93.174393,12.439922,2025-02-19T15:34:15.000-06:00,0.025150,-0.995932,-0.030089,2025-02-19T15:34:14.268-06:00,0.110498,0.038463,0.072199,2025-02-19T15:34:14.268-06:00
73.000000,255.096824,0.306493,7.254930,44.940111,282.506824,269.806803,2.334536,3.000000,-93.174553,12.713102,2025-02-19T15:34:16.000-06:00,0.031109,-0.985751,-0.034588,2025-02-19T15:34:15.263-06:00,0.230947,0.125624,0.056781,2025-02-19T15:34:15.263-06:00
74.000000,254.806676,0.306661,7.251006,44.940109,282.216676,269.713213,2.333111,3.000000,-93.174718,12.935838,2025-02-19T15:34:17.000-06:00,0.010816,-1.001794,-0.046122,2025-02-19T15:34:16.268-06:00,0.047456,-0.029035,-0.021232,2025-02-19T15:34:16.268-06:00
75.000000,254.487658,0.305789,7.241798,44.940109,281.897658,269.895711,2.330277,3.000000,-93.174884,13.067169,2025-02-19T15:34:18.000-06:00,-0.000727,-0.988430,-0.050648,2025-02-19T15:34:17.263-06:00,-0.063981,0.109531,-0.096549,2025-02-19T15:34:17.263-06:00
76.000000,254.121006,0.320387,7.220610,44.940110,281.531006,270.162000,2.329450,3.000000,-93.175049,13.057924,2025-02-19T15:34:19.000-06:00,-0.005341,-1.008676,-0.041151,2025-02-19T15:34:18.268-06:00,-0.089385,-0.098431,-0.055025,2025-02-19T15:34:18.268-06:00
77.000000,253.904636,0.304499,7.244480,44.940112,281.314635,270.117643,2.325985,3.000000,-93.175215,13.172268,2025-02-19T15:34:20.000-06:00,0.004078,-0.990384,-0.026367,2025-02-19T15:34:19.262-06:00,0.005842,0.088899,0.136428,2025-02-19T15:34:19.262-06:00
78.000000,253.590473,0.303723,7.241910,44.940111,281.000473,269.644384,2.327245,3.000000,-93.175381,13.180806,2025-02-19T15:34:21.000-06:00,-0.004034,-0.998575,-0.042731,2025-02-19T15:34:20.267-06:00,-0.096715,0.004076,-0.050159,2025-02-19T15:34:20.267-06:00
79.000000,253.368510,0.306558,7.237044,44.940111,280.778509,269.697636,2.327262,3.000000,-93.175548,13.160145,2025-02-19T15:34:22.000-06:00,-0.004518,-0.991454,-0.046853,2025-02-19T15:34:21.262-06:00,-0.088867,0.075585,-0.081053,2025-02-19T15:34:21.262-06:00
80.000000,252.964317,0.315083,7.229681,44.940112,280.374317,269.874618,2.760490,3.000000,-93.175714,13.029381,2025-02-19T15:34:23.000-06:00,-0.010992,-0.994679,-0.044346,2025-02-19T15:34:22.267-06:00,-0.128731,0.056628,-0.052125,2025-02-19T15:34:22.267-06:00
81.000000,252.780462,0.321056,7.228256,44.940112,280.190461,270.088840,2.376813,3.000000,-93.175881,13.001148,2025-02-19T15:34:24.000-06:00,-0.007361,-0.993559,-0.051964,2025-02-19T15:34:23.262-06:00,-0.104366,0.047254,-0.121039,2025-02-19T15:34:23.262-06:00
82.000000,252.748320,0.324338,7.227711,44.940112,280.158320,270.546826,2.401062,3.000000,-93.176048,12.951488,2025-02-19T15:34:25.000-06:00,-0.028958,-1.005596,-0.063689,2025-02-19T15:34:24.266-06:00,-0.335396,-0.064397,-0.156904,2025-02-19T15:34:24.266-06:00
83.000000,252.571908,0.323591,7.231672,44.940113,279.981908,270.568015,3.066424,3.000000,-93.176211,12.765670,2025-02-19T15:34:26.000-06:00,-0.113625,-0.995828,-0.069097,2025-02-19T15:34:25.271-06:00,-1.076192,0.030261,-0.272047,2025-02-19T15:34:25.271-06:00
84.000000,252.393998,0.300256,7.242752,44.940115,279.803998,270.613036,2.997056,3.000000,-93.176356,11.645851,2025-02-19T15:34:27.000-06:00,-0.061165,-0.994783,-0.061679,2025-02-19T15:34:26.266-06:00,-0.557952,0.044176,-0.208441,2025-02-19T15:34:26.266-06:00
85.000000,252.159159,0.284357,7.249770,44.940116,279.569158,270.881773,2.531877,3.000000,-93.176495,11.128452,2025-02-19T15:34:28.000-06:00,-0.061368,-0.999640,-0.057162,2025-02-19T15:34:27.271-06:00,-0.514767,0.000049,-0.176430,2025-02-19T15:34:27.271-06:00
86.000000,252.005901,0.278386,7.252374,44.940118,279.415901,271.369136,2.325201,3.000000,-93.176628,10.514449,2025-02-19T15:34:29.000-06:00,-0.116199,-0.991101,-0.056759,2025-02-19T15:34:28.266-06:00,-0.959588,0.070903,-0.200688,2025-02-19T15:34:28.266-06:00
87.000000,251.772090,0.277009,7.250411,44.940120,279.182090,271.308674,2.344860,3.000000,-93.176745,9.303750,2025-02-19T15:34:30.000-06:00,-0.192444,-1.007494,-0.087336,2025-02-19T15:34:29.270-06:00,-1.646244,-0.089055,-0.475025,2025-02-19T15:34:29.270-06:00
88.000000,251.699826,0.326682,7.251815,44.940121,279.109826,271.492742,2.327870,3.000000,-93.176838,7.521915,2025-02-19T15:34:31.000-06:00,-0.176317,-0.988417,-0.144837,2025-02-19T15:34:30.265-06:00,-1.411725,0.088017,-0.756493,2025-02-19T15:34:30.265-06:00
89.000000,251.462164,0.312623,7.256417,44.940122,278.872164,275.085862,2.297252,3.000000,-93.176902,5.044110,2025-02-19T15:34:32.000-06:00,-0.144852,-0.955354,-0.314653,2025-02-19T15:34:31.270-06:00,-0.740324,0.303353,-1.702603,2025-02-19T15:34:31.270-06:00
90.000000,252.786543,2.869223,32.682547,44.940159,280.196543,288.897415,2.092262,3.000000,-93.177000,7.085923,2025-02-19T15:34:33.000-06:00,-0.043676,-0.964736,-0.332793,2025-02-19T15:34:32.265-06:00,0.154425,0.154479,-1.453421,2025-02-19T15:34:32.265-06:00
91.000000,252.083981,2.728820,63.646539,44.940180,279.493981,311.953380,2.069197,3.000000,-93.176995,3.400750,2025-02-19T15:34:34.000-06:00,0.068949,-0.942063,-0.440676,2025-02-19T15:34:33.269-06:00,-0.048273,0.169223,-1.678327,2025-02-19T15:34:33.269-06:00
92.000000,252.131654,2.723229,68.067488,44.940213,279.541653,332.506819,2.055357,3.000000,-93.177002,3.173063,2025-02-19T15:34:35.000-06:00,0.044830,-0.941646,-0.297199,2025-02-19T15:34:34.264-06:00,-0.382620,0.142535,-0.157200,2025-02-19T15:34:34.264-06:00
93.000000,251.781269,2.696198,68.434688,44.940246,279.191269,352.529727,2.141451,3.000000,-93.176992,3.189184,2025-02-19T15:34:36.000-06:00,0.036398,-0.961165,-0.259538,2025-02-19T15:34:35.269-06:00,-0.411829,-0.080567,0.321540,2025-02-19T15:34:35.269-06:00
94.000000,251.562368,2.722197,77.010718,44.940269,278.972368,2.456339,2.121244,3.000000,-93.176982,2.831490,2025-02-19T15:34:37.000-06:00,0.025993,-0.972157,-0.214478,2025-02-19T15:34:36.264-06:00,-0.576591,-0.114629,0.522336,2025-02-19T15:34:36.264-06:00
95.000000,,,,,,,,,,,,0.046449,-0.974490,-0.214473,2025-02-19T15:34:37.269-06:00,-0.397726,-0.111615,0.372571,2025-02-19T15:34:37.269-06:00
