seconds_elapsed,location_altitude,location_speedAccuracy,location_bearingAccuracy,location_latitude,location_altitudeAboveMeanSeaLevel,location_bearing,location_horizontalAccuracy,location_verticalAccuracy,location_longitude,location_speed,location_local_time,accelerometerUncalibrated_z,accelerometerUncalibrated_y,accelerometerUncalibrated_x,accelerometerUncalibrated_local_time,accelerometer_z,accelerometer_y,accelerometer_x,accelerometer_local_time
0.000000,261.942385,3.718530,180.000000,44.934643,289.352385,249.198217,2.605264,3.000000,-93.170316,0.000000,2025-02-19T16:24:20.999-06:00,-0.126326,-0.990956,-0.076405,2025-02-19T16:24:20.815-06:00,0.539532,-0.094838,-0.156659,2025-02-19T16:24:20.820-06:00
1.000000,261.989687,3.738894,180.000000,44.934647,289.399687,249.198212,2.636778,3.000000,-93.170323,0.223779,2025-02-19T16:24:21.999-06:00,-0.046124,-1.001816,-0.128690,2025-02-19T16:24:21.800-06:00,1.214193,-0.178754,-0.662021,2025-02-19T16:24:21.795-06:00
2.000000,262.100280,3.750953,180.000000,44.934656,289.510280,249.198207,2.655543,3.000000,-93.170330,0.714852,2025-02-19T16:24:22.999-06:00,-0.081178,-0.997240,-0.082421,2025-02-19T16:24:22.795-06:00,0.747432,-0.108046,-0.312722,2025-02-19T16:24:22.800-06:00
3.000000,262.068414,3.746279,180.000000,44.934677,289.478414,249.198204,2.622765,3.000000,-93.170333,1.039081,2025-02-19T16:24:23.999-06:00,-0.115703,-0.996315,-0.012674,2025-02-19T16:24:23.800-06:00,0.328633,-0.080006,0.263567,2025-02-19T16:24:23.795-06:00
4.000000,262.119220,3.727203,180.000000,44.934707,289.529220,249.198206,2.591627,3.000000,-93.170328,1.274336,2025-02-19T16:24:24.999-06:00,-0.126283,-0.994330,-0.032913,2025-02-19T16:24:24.795-06:00,0.154562,-0.054621,0.117791,2025-02-19T16:24:24.800-06:00
5.000000,262.218676,3.765705,180.000000,44.934743,289.628675,249.198206,2.604672,3.000000,-93.170326,1.526612,2025-02-19T16:24:25.999-06:00,-0.196413,-0.972786,-0.064990,2025-02-19T16:24:25.799-06:00,-0.533077,0.151727,-0.114423,2025-02-19T16:24:25.794-06:00
6.000000,262.265739,3.771773,180.000000,44.934781,289.675739,249.198206,2.574438,3.000000,-93.170325,1.553056,2025-02-19T16:24:26.999-06:00,-0.202606,-0.978317,-0.071825,2025-02-19T16:24:26.794-06:00,-0.572569,0.088831,-0.101587,2025-02-19T16:24:26.799-06:00
7.000000,262.368351,3.749546,180.000000,44.934818,289.778350,249.198208,2.545716,3.000000,-93.170319,1.433806,2025-02-19T16:24:27.999-06:00,-0.224547,-0.969489,-0.076295,2025-02-19T16:24:27.799-06:00,-0.762166,0.170158,-0.056979,2025-02-19T16:24:27.794-06:00
8.000000,262.464917,3.749387,180.000000,44.934852,289.874917,249.198208,2.639448,3.000000,-93.170318,1.309013,2025-02-19T16:24:28.999-06:00,-0.284940,-0.956030,-0.100370,2025-02-19T16:24:28.794-06:00,-1.270069,0.285527,-0.265568,2025-02-19T16:24:28.799-06:00
9.000000,262.382862,3.764857,180.000000,44.934882,289.792862,249.198207,2.636804,3.000000,-93.170316,0.994760,2025-02-19T16:24:29.999-06:00,-0.251720,-0.966714,-0.079527,2025-02-19T16:24:29.798-06:00,-0.798092,0.160425,-0.081396,2025-02-19T16:24:29.803-06:00
10.000000,262.296778,3.749293,180.000000,44.934901,289.706778,249.198207,2.604964,3.000000,-93.170315,0.561468,2025-02-19T16:24:30.999-06:00,-0.131858,-0.975861,-0.093181,2025-02-19T16:24:30.803-06:00,0.272705,0.066191,-0.065032,2025-02-19T16:24:30.798-06:00
11.000000,262.412452,3.735969,180.000000,44.934916,289.822452,249.198207,2.594411,3.000000,-93.170314,0.522510,2025-02-19T16:24:31.999-06:00,-0.142576,-0.997521,-0.054958,2025-02-19T16:24:31.798-06:00,0.378899,-0.160850,0.163044,2025-02-19T16:24:31.803-06:00
12.000000,262.293683,3.765513,180.000000,44.934929,289.703683,249.198207,2.564690,3.000000,-93.170314,0.659880,2025-02-19T16:24:32.999-06:00,-0.083579,-0.992004,-0.059380,2025-02-19T16:24:32.803-06:00,1.006169,-0.121860,0.122936,2025-02-19T16:24:32.798-06:00
13.000000,262.067748,3.749979,180.000000,44.934948,289.477748,249.198202,2.570200,3.000000,-93.170320,0.988347,2025-02-19T16:24:33.999-06:00,-0.109530,-0.997900,-0.050201,2025-02-19T16:24:33.797-06:00,0.677070,-0.151902,0.116933,2025-02-19T16:24:33.802-06:00
14.000000,262.118501,3.749886,180.000000,44.934976,289.528501,249.198200,2.557243,3.000000,-93.170321,1.308747,2025-02-19T16:24:34.999-06:00,-0.120876,-0.988332,-0.049558,2025-02-19T16:24:34.802-06:00,0.522133,-0.056508,0.074949,2025-02-19T16:24:34.797-06:00
15.000000,262.042367,3.749635,180.000000,44.935012,289.452367,249.198196,2.594854,3.000000,-93.170325,1.580609,2025-02-19T16:24:35.999-06:00,-0.124319,-0.986817,-0.042980,2025-02-19T16:24:35.797-06:00,0.479025,-0.037813,0.121836,2025-02-19T16:24:35.802-06:00
16.000000,262.026825,3.753860,164.909892,44.935056,289.436825,249.198195,2.565111,3.000000,-93.170324,1.839061,2025-02-19T16:24:36.999-06:00,-0.134332,-0.993516,-0.053661,2025-02-19T16:24:36.802-06:00,0.327740,-0.086972,0.041924,2025-02-19T16:24:36.797-06:00
17.000000,261.905635,2.211734,32.955175,44.935138,289.315635,357.405812,2.536856,3.000000,-93.170314,5.435505,2025-02-19T16:24:37.999-06:00,-0.141046,-0.990207,-0.056352,2025-02-19T16:24:37.796-06:00,0.235565,-0.065556,0.078845,2025-02-19T16:24:37.801-06:00
18.000000,261.969296,2.118968,28.054951,44.935197,289.379296,0.631442,2.504517,3.000000,-93.170272,6.109192,2025-02-19T16:24:38.999-06:00,-0.132196,-0.989757,-0.079100,2025-02-19T16:24:38.801-06:00,0.166359,-0.030417,-0.039020,2025-02-19T16:24:38.796-06:00
19.000000,262.150731,2.076124,25.703503,44.935258,289.560731,0.631442,2.597213,3.000000,-93.170271,6.544450,2025-02-19T16:24:39.999-06:00,-0.128024,-0.990396,-0.062420,2025-02-19T16:24:39.796-06:00,0.221257,-0.046082,0.083628,2025-02-19T16:24:39.801-06:00
20.000000,262.329331,2.017767,22.514768,44.935328,289.739331,0.631442,2.577134,3.000000,-93.170288,7.254580,2025-02-19T16:24:40.999-06:00,-0.186526,-0.980625,-0.081163,2025-02-19T16:24:40.800-06:00,-0.363856,0.057938,-0.126630,2025-02-19T16:24:40.796-06:00
21.000000,262.091222,1.993268,21.235506,44.935401,289.501222,0.631442,2.449911,3.000000,-93.170282,7.605454,2025-02-19T16:24:41.999-06:00,-0.207203,-0.968744,-0.081456,2025-02-19T16:24:41.795-06:00,-0.560342,0.174629,-0.117936,2025-02-19T16:24:41.800-06:00
22.000000,262.209217,2.024112,22.346250,44.935470,289.619217,0.631442,2.349673,3.000000,-93.170281,7.338096,2025-02-19T16:24:42.999-06:00,-0.188074,-0.974053,-0.070833,2025-02-19T16:24:42.800-06:00,-0.306982,0.110002,-0.053234,2025-02-19T16:24:42.795-06:00
23.000000,262.404617,2.042014,23.267324,44.935533,289.814617,0.631442,2.259891,3.000000,-93.170281,7.105185,2025-02-19T16:24:43.999-06:00,-0.185731,-0.977524,-0.080174,2025-02-19T16:24:43.795-06:00,-0.224853,0.060861,-0.061553,2025-02-19T16:24:43.800-06:00
24.000000,262.494527,2.037384,23.140609,44.935599,289.904527,0.075202,2.206918,3.000000,-93.170282,7.133146,2025-02-19T16:24:44.999-06:00,-0.184432,-0.978909,-0.078069,2025-02-19T16:24:44.799-06:00,-0.224953,0.050091,-0.002355,2025-02-19T16:24:44.794-06:00
25.000000,262.276280,2.024500,22.596181,44.935667,289.686280,0.075202,2.152973,3.000000,-93.170282,7.237089,2025-02-19T16:24:45.999-06:00,-0.199640,-0.976259,-0.083125,2025-02-19T16:24:45.794-06:00,-0.321502,0.063961,-0.047676,2025-02-19T16:24:45.799-06:00
26.000000,262.128992,2.007069,22.258578,44.935733,289.538991,0.075202,2.198934,3.000000,-93.170282,7.237385,2025-02-19T16:24:46.999-06:00,-0.210510,-0.965077,-0.079432,2025-02-19T16:24:46.799-06:00,-0.385356,0.164263,-0.019121,2025-02-19T16:24:46.794-06:00
27.000000,261.990704,2.055417,23.536051,44.935796,289.400703,0.075202,2.551704,3.000000,-93.170283,7.046819,2025-02-19T16:24:47.999-06:00,-0.196508,-0.987291,-0.095761,2025-02-19T16:24:47.794-06:00,-0.296154,-0.042030,-0.144894,2025-02-19T16:24:47.799-06:00
28.000000,261.862258,2.049591,24.341959,44.935857,289.272258,0.075202,2.415222,3.000000,-93.170283,6.822417,2025-02-19T16:24:48.999-06:00,-0.169150,-0.977745,-0.061193,2025-02-19T16:24:48.798-06:00,-0.013669,0.048115,0.046799,2025-02-19T16:24:48.803-06:00
29.000000,261.916409,2.045620,24.025396,44.935920,289.326409,0.075202,2.335923,3.000000,-93.170285,6.899070,2025-02-19T16:24:49.999-06:00,-0.196005,-0.971392,-0.071155,2025-02-19T16:24:49.803-06:00,-0.188475,0.113272,-0.062007,2025-02-19T16:24:49.798-06:00
30.000000,261.767654,2.048065,23.567671,44.935985,289.177654,0.075202,2.307098,3.000000,-93.170285,6.993503,2025-02-19T16:24:50.999-06:00,-0.182225,-0.977941,-0.073894,2025-02-19T16:24:50.798-06:00,-0.017500,0.031562,-0.036365,2025-02-19T16:24:50.803-06:00
31.000000,261.600325,2.076031,23.625619,44.936048,289.010325,0.075202,2.231206,3.000000,-93.170285,6.946902,2025-02-19T16:24:51.999-06:00,-0.203532,-0.975046,-0.091554,2025-02-19T16:24:51.803-06:00,-0.232322,0.052238,-0.140827,2025-02-19T16:24:51.798-06:00
32.000000,261.550500,2.098016,23.531209,44.936113,288.960499,0.075202,2.173665,3.000000,-93.170285,6.969804,2025-02-19T16:24:52.999-06:00,-0.212158,-0.975236,-0.085114,2025-02-19T16:24:52.797-06:00,-0.342244,0.060596,-0.071693,2025-02-19T16:24:52.802-06:00
33.000000,261.280314,2.073964,25.081909,44.936172,288.690314,0.075202,2.134958,3.000000,-93.170285,6.617354,2025-02-19T16:24:53.999-06:00,-0.215162,-0.974728,-0.081922,2025-02-19T16:24:53.802-06:00,-0.374667,0.061833,-0.068096,2025-02-19T16:24:53.797-06:00
34.000000,261.277370,2.108088,26.646735,44.936230,288.687370,0.075202,2.259106,3.000000,-93.170285,6.375782,2025-02-19T16:24:54.999-06:00,-0.260929,-0.956944,-0.086455,2025-02-19T16:24:54.797-06:00,-0.732589,0.224160,-0.112314,2025-02-19T16:24:54.802-06:00
35.000000,261.397853,2.140574,28.765493,44.936285,288.807853,358.775543,2.201139,3.000000,-93.170276,5.967432,2025-02-19T16:24:55.999-06:00,-0.293001,-0.952112,-0.096085,2025-02-19T16:24:55.802-06:00,-0.956634,0.252382,-0.205576,2025-02-19T16:24:55.797-06:00
36.000000,261.292990,2.248472,34.175987,44.936330,288.702990,358.325500,2.160911,3.000000,-93.170278,5.071598,2025-02-19T16:24:56.999-06:00,-0.334310,-0.952601,-0.103520,2025-02-19T16:24:56.796-06:00,-1.279095,0.228505,-0.271521,2025-02-19T16:24:56.801-06:00
37.000000,261.074303,2.665740,41.345475,44.936366,288.484302,358.325500,2.134092,3.000000,-93.170280,4.057484,2025-02-19T16:24:57.999-06:00,-0.322020,-0.948484,-0.101690,2025-02-19T16:24:57.801-06:00,-1.061000,0.247419,-0.229703,2025-02-19T16:24:57.796-06:00
38.000000,261.151095,3.177634,62.174122,44.936387,288.561095,359.796348,2.114936,3.000000,-93.170281,2.642397,2025-02-19T16:24:58.999-06:00,-0.201653,-0.979415,-0.072268,2025-02-19T16:24:58.796-06:00,0.147523,-0.050481,0.026562,2025-02-19T16:24:58.801-06:00
39.000000,261.219502,3.566556,77.133601,44.936400,288.629502,359.462222,2.221364,3.000000,-93.170283,1.908733,2025-02-19T16:24:59.999-06:00,-0.153140,-0.970110,-0.057433,2025-02-19T16:24:59.801-06:00,0.486904,0.051397,0.101836,2025-02-19T16:24:59.796-06:00
40.000000,261.095109,3.759749,75.987521,44.936414,288.505109,358.292525,2.334968,3.000000,-93.170286,1.718811,2025-02-19T16:25:00.999-06:00,-0.121729,-0.983273,-0.045786,2025-02-19T16:25:00.795-06:00,1.061836,-0.129870,0.306997,2025-02-19T16:25:00.800-06:00
41.000000,261.132946,3.445457,68.700260,44.936437,288.542946,358.428863,2.330112,3.000000,-93.170287,2.290696,2025-02-19T16:25:01.999-06:00,-0.108658,-1.020260,0.003004,2025-02-19T16:25:01.800-06:00,1.037871,-0.444994,0.691538,2025-02-19T16:25:01.795-06:00
42.000000,261.098829,2.537499,56.726233,44.936470,288.508829,358.492208,2.357483,3.000000,-93.170289,3.370684,2025-02-19T16:25:02.999-06:00,-0.128494,-0.994032,0.072480,2025-02-19T16:25:02.795-06:00,0.739699,-0.160378,1.110327,2025-02-19T16:25:02.800-06:00
43.000000,261.127460,2.320329,44.074797,44.936511,288.537459,348.692657,2.336470,3.000000,-93.170298,4.259685,2025-02-19T16:25:03.999-06:00,-0.169076,-1.001536,0.141539,2025-02-19T16:25:03.800-06:00,0.250897,-0.200256,1.580663,2025-02-19T16:25:03.795-06:00
44.000000,261.198134,2.216655,35.175375,44.936559,288.608134,348.692657,2.321278,3.000000,-93.170309,5.105683,2025-02-19T16:25:05.000-06:00,-0.148456,-0.983997,0.009528,2025-02-19T16:25:04.794-06:00,0.203068,0.018876,0.378517,2025-02-19T16:25:04.799-06:00
45.000000,261.339942,2.144922,30.002972,44.936591,288.749942,317.100555,2.298330,3.000000,-93.170397,5.791944,2025-02-19T16:25:06.000-06:00,-0.111808,-0.982117,-0.158682,2025-02-19T16:25:05.799-06:00,0.504638,0.024999,-1.055198,2025-02-19T16:25:05.794-06:00
46.000000,261.476069,2.104235,27.252546,44.936631,288.886068,317.100555,2.278441,3.000000,-93.170453,6.252234,2025-02-19T16:25:07.000-06:00,-0.127727,-0.981350,-0.176353,2025-02-19T16:25:06.794-06:00,0.420224,0.024102,-1.180838,2025-02-19T16:25:06.799-06:00
47.000000,261.492235,2.059035,24.624203,44.936683,288.902235,317.100555,2.257550,3.000000,-93.170500,6.775246,2025-02-19T16:25:08.000-06:00,-0.199019,-0.966715,-0.193467,2025-02-19T16:25:07.798-06:00,-0.285995,0.167186,-1.327635,2025-02-19T16:25:07.803-06:00
48.000000,261.594766,2.032389,24.188711,44.936741,289.004766,340.417328,2.226519,3.000000,-93.170533,6.805450,2025-02-19T16:25:09.000-06:00,-0.323706,-0.943883,-0.190511,2025-02-19T16:25:08.803-06:00,-1.491575,0.381644,-1.224258,2025-02-19T16:25:08.798-06:00
49.000000,261.628782,2.107311,29.238107,44.936792,289.038782,346.815186,2.191765,3.000000,-93.170550,5.825540,2025-02-19T16:25:10.000-06:00,-0.361578,-0.936194,-0.137854,2025-02-19T16:25:09.798-06:00,-1.761697,0.448716,-0.793262,2025-02-19T16:25:09.803-06:00
50.000000,261.318820,2.287805,44.361106,44.936827,288.728820,353.429596,2.167795,3.000000,-93.170554,4.178809,2025-02-19T16:25:11.000-06:00,-0.224437,-0.943933,-0.028491,2025-02-19T16:25:10.803-06:00,-0.429407,0.377281,0.122970,2025-02-19T16:25:10.798-06:00
51.000000,261.549517,2.534085,70.938215,44.936847,288.959517,358.076904,2.289695,3.000000,-93.170558,2.767274,2025-02-19T16:25:12.000-06:00,-0.171496,-1.001908,-0.082617,2025-02-19T16:25:11.797-06:00,0.208480,-0.234892,-0.218686,2025-02-19T16:25:11.802-06:00
52.000000,261.682898,2.550864,83.938099,44.936867,289.092898,358.076904,2.260726,3.000000,-93.170558,2.410508,2025-02-19T16:25:13.000-06:00,-0.027168,-1.013528,-0.049225,2025-02-19T16:25:12.802-06:00,1.507688,-0.316296,0.237668,2025-02-19T16:25:12.797-06:00
53.000000,261.823299,2.535397,62.852407,44.936895,289.233299,1.198532,2.250985,3.000000,-93.170536,3.105279,2025-02-19T16:25:14.000-06:00,-0.030298,-1.008564,-0.039235,2025-02-19T16:25:13.797-06:00,1.449541,-0.263287,0.330198,2025-02-19T16:25:13.802-06:00
54.000000,262.114140,2.342622,38.110252,44.936941,289.524140,1.198532,2.398770,3.000000,-93.170535,4.707488,2025-02-19T16:25:15.000-06:00,-0.096855,-0.996301,-0.054402,2025-02-19T16:25:14.802-06:00,0.696386,-0.131258,0.158234,2025-02-19T16:25:14.797-06:00
55.000000,262.305849,2.203915,30.163881,44.936995,289.715849,0.311385,2.381417,3.000000,-93.170552,5.681128,2025-02-19T16:25:16.000-06:00,-0.151818,-0.983108,-0.065252,2025-02-19T16:25:15.796-06:00,0.114287,0.005926,0.061737,2025-02-19T16:25:15.801-06:00
56.000000,262.635957,2.153468,26.483916,44.937057,290.045957,0.311385,2.544189,3.000000,-93.170554,6.321062,2025-02-19T16:25:17.000-06:00,-0.215872,-0.969586,-0.074475,2025-02-19T16:25:16.801-06:00,-0.493073,0.141778,-0.013346,2025-02-19T16:25:16.796-06:00
57.000000,262.586670,2.140932,27.023575,44.937116,289.996670,0.311385,2.654243,3.000000,-93.170545,6.216546,2025-02-19T16:25:18.000-06:00,-0.219136,-0.970099,-0.084587,2025-02-19T16:25:17.796-06:00,-0.523386,0.121464,-0.122098,2025-02-19T16:25:17.801-06:00
58.000000,262.895653,2.219173,29.270203,44.937167,290.305653,0.311385,2.577257,3.000000,-93.170546,5.782461,2025-02-19T16:25:19.000-06:00,-0.230731,-0.971340,-0.060230,2025-02-19T16:25:18.801-06:00,-0.579753,0.119347,0.104682,2025-02-19T16:25:18.796-06:00
59.000000,263.142247,2.251740,32.425309,44.937214,290.552247,358.623322,2.848448,3.000000,-93.170545,5.337871,2025-02-19T16:25:20.000-06:00,-0.260480,-0.959929,-0.079678,2025-02-19T16:25:19.795-06:00,-0.836648,0.211445,-0.053965,2025-02-19T16:25:19.800-06:00
60.000000,263.202420,2.302858,38.008124,44.937254,290.612420,355.609039,3.112541,3.000000,-93.170546,4.684920,2025-02-19T16:25:21.000-06:00,-0.316206,-0.950596,-0.103231,2025-02-19T16:25:20.800-06:00,-1.299394,0.289744,-0.245892,2025-02-19T16:25:20.795-06:00
61.000000,263.324508,2.516386,49.911707,44.937284,290.734508,355.609039,3.264217,3.000000,-93.170548,3.674152,2025-02-19T16:25:22.000-06:00,-0.212321,-0.956051,-0.060406,2025-02-19T16:25:21.795-06:00,-0.261003,0.226377,0.088484,2025-02-19T16:25:21.800-06:00
62.000000,263.556373,3.354506,57.196499,44.937305,290.966372,355.609039,3.242498,3.000000,-93.170551,2.674929,2025-02-19T16:25:23.000-06:00,-0.192408,-0.997649,-0.064332,2025-02-19T16:25:22.799-06:00,0.028729,-0.179062,0.072048,2025-02-19T16:25:22.794-06:00
63.000000,263.937353,3.786092,54.568030,44.937322,291.347353,355.609039,3.308144,3.000000,-93.170556,2.308374,2025-02-19T16:25:24.000-06:00,-0.089644,-0.998671,-0.038339,2025-02-19T16:25:23.794-06:00,0.925744,-0.185536,0.290968,2025-02-19T16:25:23.799-06:00
64.000000,264.377211,3.899833,40.801610,44.937346,291.787211,351.452118,3.319634,3.000000,-93.170560,2.636281,2025-02-19T16:25:25.000-06:00,-0.085574,-0.968854,-0.006261,2025-02-19T16:25:24.799-06:00,1.342817,0.045282,0.494474,2025-02-19T16:25:24.794-06:00
65.000000,264.042444,2.611743,45.435794,44.937389,291.452444,357.180397,3.302246,3.000000,-93.170553,3.941685,2025-02-19T16:25:26.000-06:00,-0.118302,-1.004776,-0.036092,2025-02-19T16:25:25.794-06:00,1.165379,-0.336806,0.098148,2025-02-19T16:25:25.799-06:00
66.000000,263.496934,2.229712,33.461891,44.937443,290.906934,356.138174,3.259730,3.000000,-93.170560,5.328054,2025-02-19T16:25:27.000-06:00,-0.129882,-0.995258,-0.066202,2025-02-19T16:25:26.798-06:00,0.976471,-0.240830,-0.143102,2025-02-19T16:25:26.803-06:00
67.000000,263.324284,2.131591,25.872768,44.937499,290.734284,354.511420,3.250475,3.000000,-93.170573,6.475020,2025-02-19T16:25:28.000-06:00,-0.154018,-0.961026,-0.103663,2025-02-19T16:25:27.803-06:00,0.673463,0.102080,-0.105875,2025-02-19T16:25:27.798-06:00
68.000000,262.953075,2.069627,22.635436,44.937563,290.363075,354.804180,3.221115,3.000000,-93.170583,7.175172,2025-02-19T16:25:29.000-06:00,-0.226080,-0.960609,-0.092150,2025-02-19T16:25:28.798-06:00,0.126195,0.061707,-0.039709,2025-02-19T16:25:28.803-06:00
69.000000,262.815690,2.075992,21.234181,44.937630,290.225690,357.130081,3.237410,3.000000,-93.170583,7.437775,2025-02-19T16:25:30.000-06:00,-0.224049,-0.981211,-0.068208,2025-02-19T16:25:29.803-06:00,0.159857,-0.119544,-0.021550,2025-02-19T16:25:29.798-06:00
70.000000,262.421796,2.095060,20.539196,44.937698,289.831796,358.277054,3.297039,3.000000,-93.170582,7.639344,2025-02-19T16:25:31.000-06:00,-0.248398,-0.998462,-0.039356,2025-02-19T16:25:30.797-06:00,-0.419608,-0.212593,-0.028988,2025-02-19T16:25:30.802-06:00
71.000000,262.187779,2.000243,21.079111,44.937766,289.597779,358.908391,3.701601,3.000000,-93.170581,7.677859,2025-02-19T16:25:32.000-06:00,-0.316790,-0.955175,-0.044822,2025-02-19T16:25:31.802-06:00,-1.261711,0.260385,-0.180979,2025-02-19T16:25:31.797-06:00
72.000000,262.101427,2.038724,23.799756,44.937828,289.511427,359.028911,3.513510,3.000000,-93.170581,6.909325,2025-02-19T16:25:33.000-06:00,-0.424235,-0.935721,-0.068804,2025-02-19T16:25:32.797-06:00,-2.301728,0.446755,-0.420438,2025-02-19T16:25:32.802-06:00
73.000000,262.082059,2.225522,34.673987,44.937868,289.492059,358.980109,3.233072,3.000000,-93.170581,5.045896,2025-02-19T16:25:34.000-06:00,-0.336387,-0.948263,-0.071898,2025-02-19T16:25:33.801-06:00,-1.290496,0.292216,-0.242993,2025-02-19T16:25:33.797-06:00
74.000000,262.068812,2.538205,59.089188,44.937892,289.478812,358.411181,3.344864,3.000000,-93.170583,3.167928,2025-02-19T16:25:35.000-06:00,-0.193360,-0.950131,-0.052976,2025-02-19T16:25:34.796-06:00,0.029290,0.276394,-0.034797,2025-02-19T16:25:34.801-06:00
75.000000,262.234427,3.668275,61.269455,44.937911,289.644427,359.416279,3.303612,3.000000,-93.170580,2.236479,2025-02-19T16:25:36.000-06:00,-0.221701,-1.002098,-0.061760,2025-02-19T16:25:35.801-06:00,-0.008327,-0.265513,-0.037435,2025-02-19T16:25:35.796-06:00
76.000000,262.248496,3.615753,68.219676,44.937931,289.658496,359.219202,3.179300,3.000000,-93.170581,2.109063,2025-02-19T16:25:37.000-06:00,-0.126217,-0.982871,-0.031469,2025-02-19T16:25:36.796-06:00,0.965779,-0.100021,0.234118,2025-02-19T16:25:36.801-06:00
77.000000,262.141788,3.355817,72.374712,44.937953,289.551788,359.564698,3.106609,3.000000,-93.170580,2.238747,2025-02-19T16:25:38.000-06:00,-0.142386,-0.987677,-0.031112,2025-02-19T16:25:37.800-06:00,0.789579,-0.136450,0.178615,2025-02-19T16:25:37.795-06:00
78.000000,262.335475,3.187726,50.754007,44.937988,289.745474,359.255710,3.082953,3.000000,-93.170581,3.159076,2025-02-19T16:25:39.000-06:00,-0.154036,-0.984896,-0.035035,2025-02-19T16:25:38.795-06:00,0.680806,-0.115803,0.113947,2025-02-19T16:25:38.800-06:00
79.000000,261.962243,2.578240,51.421010,44.938021,289.372243,359.376786,3.069148,3.000000,-93.170579,3.606441,2025-02-19T16:25:40.000-06:00,-0.139455,-0.985493,-0.029422,2025-02-19T16:25:39.800-06:00,0.769331,-0.100272,0.161892,2025-02-19T16:25:39.795-06:00
80.000000,261.799648,2.334035,44.651270,44.938061,289.209648,359.404298,3.169722,3.000000,-93.170581,4.205520,2025-02-19T16:25:41.000-06:00,-0.139585,-0.991583,-0.058127,2025-02-19T16:25:40.795-06:00,0.695747,-0.152996,-0.019755,2025-02-19T16:25:40.800-06:00
81.000000,261.453476,2.238605,36.471172,44.938110,288.863476,359.743804,3.174408,3.000000,-93.170581,4.971566,2025-02-19T16:25:42.000-06:00,-0.175112,-0.985422,-0.083428,2025-02-19T16:25:41.799-06:00,0.245017,-0.071220,-0.274670,2025-02-19T16:25:41.794-06:00
82.000000,261.400693,2.161764,31.739056,44.938162,288.810693,5.132803,3.224541,3.000000,-93.170581,5.518867,2025-02-19T16:25:43.000-06:00,-0.215821,-0.982936,-0.122902,2025-02-19T16:25:42.794-06:00,-0.252068,-0.030091,-0.672378,2025-02-19T16:25:42.799-06:00
83.000000,261.307055,2.176130,32.505058,44.938209,288.717055,5.572201,3.169441,3.000000,-93.170548,5.411619,2025-02-19T16:25:44.000-06:00,-0.193568,-0.960099,-0.180846,2025-02-19T16:25:43.799-06:00,-0.233305,0.227395,-1.077413,2025-02-19T16:25:43.794-06:00
84.000000,261.441003,2.199388,35.652766,44.938252,288.851003,5.572201,3.432378,3.000000,-93.170554,4.983202,2025-02-19T16:25:45.000-06:00,-0.194129,-0.960969,-0.280431,2025-02-19T16:25:44.794-06:00,-0.151592,0.168583,-1.742773,2025-02-19T16:25:44.799-06:00
85.000000,261.237590,2.236951,37.861733,44.938288,288.647590,5.572201,3.353924,3.000000,-93.170512,4.786816,2025-02-19T16:25:46.000-06:00,-0.167153,-0.955651,-0.271512,2025-02-19T16:25:45.798-06:00,0.004089,0.215944,-1.436047,2025-02-19T16:25:45.803-06:00
86.000000,261.055998,2.261422,39.614076,44.938313,288.465998,50.645786,3.352013,3.000000,-93.170505,4.625603,2025-02-19T16:25:47.000-06:00,-0.139876,-0.962337,-0.248498,2025-02-19T16:25:46.803-06:00,0.200311,0.150538,-1.083973,2025-02-19T16:25:46.798-06:00
87.000000,260.913291,2.230919,37.342522,44.938283,288.323290,89.740318,3.280855,3.000000,-93.170393,4.836419,2025-02-19T16:25:48.000-06:00,-0.115203,-0.995219,-0.122920,2025-02-19T16:25:47.798-06:00,0.220254,-0.132688,0.013286,2025-02-19T16:25:47.803-06:00
88.000000,260.796726,2.203353,33.653986,44.938284,288.206726,89.740318,3.232654,3.000000,-93.170322,5.303711,2025-02-19T16:25:49.000-06:00,-0.141019,-0.983450,-0.102639,2025-02-19T16:25:48.802-06:00,-0.080867,0.015793,0.120736,2025-02-19T16:25:48.797-06:00
89.000000,260.726284,2.126008,29.086683,44.938284,288.136284,89.740318,3.171022,3.000000,-93.170244,5.922387,2025-02-19T16:25:50.000-06:00,-0.166740,-0.974714,-0.080095,2025-02-19T16:25:49.797-06:00,-0.296377,0.090944,0.297970,2025-02-19T16:25:49.802-06:00
90.000000,260.782907,2.119357,28.374854,44.938284,288.192907,89.740318,3.357982,3.000000,-93.170168,6.047280,2025-02-19T16:25:51.000-06:00,-0.174961,-0.982890,-0.089917,2025-02-19T16:25:50.802-06:00,-0.372318,0.020237,0.213838,2025-02-19T16:25:50.797-06:00
91.000000,260.764482,2.118007,27.440763,44.938284,288.174482,89.740318,3.274463,3.000000,-93.170087,6.248929,2025-02-19T16:25:52.000-06:00,-0.193569,-0.975746,-0.097371,2025-02-19T16:25:51.797-06:00,-0.548739,0.065959,0.195637,2025-02-19T16:25:51.802-06:00
92.000000,260.378771,2.110497,27.005086,44.938299,287.788771,89.740318,3.175098,3.000000,-93.170007,6.267091,2025-02-19T16:25:53.000-06:00,-0.209341,-0.965937,-0.095221,2025-02-19T16:25:52.801-06:00,-0.598544,0.167713,0.192251,2025-02-19T16:25:52.796-06:00
93.000000,260.021525,2.151735,27.932501,44.938294,287.431524,89.100098,3.075540,3.000000,-93.169932,6.029269,2025-02-19T16:25:54.000-06:00,-0.197827,-0.987624,-0.084066,2025-02-19T16:25:53.796-06:00,-0.507574,-0.031381,0.209013,2025-02-19T16:25:53.801-06:00
94.000000,259.957157,2.164094,29.614655,44.938296,287.367157,89.100098,3.044927,3.000000,-93.169857,5.816114,2025-02-19T16:25:55.000-06:00,-0.169655,-0.988543,-0.075981,2025-02-19T16:25:54.801-06:00,-0.364396,-0.031924,0.251843,2025-02-19T16:25:54.796-06:00
95.000000,259.926064,2.140929,29.727225,44.938299,287.336064,87.568665,2.949933,3.000000,-93.169782,5.832208,2025-02-19T16:25:56.000-06:00,-0.195896,-0.971490,0.022649,2025-02-19T16:25:55.796-06:00,-0.616601,0.120148,1.320954,2025-02-19T16:25:55.801-06:00
96.000000,260.032429,2.143466,30.331662,44.938302,287.442429,86.066193,2.870772,3.000000,-93.169709,5.718610,2025-02-19T16:25:57.000-06:00,-0.247081,-0.964862,0.127984,2025-02-19T16:25:56.800-06:00,-0.762807,0.127099,2.516155,2025-02-19T16:25:56.795-06:00
97.000000,260.011057,2.118314,28.266105,44.938296,287.421056,73.166496,2.793671,3.000000,-93.169619,6.049203,2025-02-19T16:25:58.000-06:00,-0.269822,-0.987151,0.151251,2025-02-19T16:25:57.795-06:00,-0.636540,-0.166886,2.658482,2025-02-19T16:25:57.800-06:00
98.000000,259.845946,2.111963,27.064171,44.938309,287.255946,73.166496,8.415624,3.000000,-93.169556,6.272716,2025-02-19T16:25:59.000-06:00,-0.210314,-1.000847,0.128482,2025-02-19T16:25:58.800-06:00,-0.055951,-0.235496,2.017014,2025-02-19T16:25:58.795-06:00
99.000000,259.674468,2.075413,24.978167,44.938439,287.084468,0.000000,2.718163,3.000000,-93.169565,6.706402,2025-02-19T16:26:00.000-06:00,-0.165097,-0.980995,0.041132,2025-02-19T16:25:59.795-06:00,0.178919,0.013894,0.684226,2025-02-19T16:25:59.800-06:00
100.000000,259.596332,2.004054,21.970273,44.938505,287.006332,0.000000,2.639171,3.000000,-93.169553,7.359150,2025-02-19T16:26:01.000-06:00,-0.165582,-0.986338,0.045053,2025-02-19T16:26:00.799-06:00,0.035703,-0.005318,0.550738,2025-02-19T16:26:00.794-06:00
101.000000,259.622681,1.987162,20.375218,44.938574,287.032681,0.236655,2.632726,3.000000,-93.169547,7.861853,2025-02-19T16:26:02.000-06:00,-0.151329,-0.993987,-0.020095,2025-02-19T16:26:01.794-06:00,0.101632,-0.079102,-0.100450,2025-02-19T16:26:01.799-06:00
102.000000,259.673170,1.976889,19.157584,44.938649,287.083170,0.236655,2.484976,3.000000,-93.169551,8.311841,2025-02-19T16:26:03.000-06:00,-0.163903,-0.986739,-0.057080,2025-02-19T16:26:02.799-06:00,-0.074106,0.003453,-0.383415,2025-02-19T16:26:02.794-06:00
103.000000,259.642722,1.938689,17.738751,44.938728,287.052722,0.236655,2.733218,3.000000,-93.169553,8.759021,2025-02-19T16:26:04.000-06:00,-0.189723,-0.979601,-0.048776,2025-02-19T16:26:03.803-06:00,-0.288893,0.075052,-0.286906,2025-02-19T16:26:03.798-06:00
104.000000,259.562802,1.937169,17.301482,44.938808,286.972801,0.236655,3.147699,3.000000,-93.169560,8.918061,2025-02-19T16:26:05.000-06:00,-0.180890,-0.973902,-0.063063,2025-02-19T16:26:04.798-06:00,-0.213536,0.132079,-0.394348,2025-02-19T16:26:04.803-06:00
105.000000,259.482494,1.892675,16.735372,44.938891,286.892494,0.236655,3.511104,3.000000,-93.169558,9.069535,2025-02-19T16:26:06.000-06:00,-0.197358,-0.972221,-0.068836,2025-02-19T16:26:05.803-06:00,-0.396220,0.149177,-0.422886,2025-02-19T16:26:05.798-06:00
106.000000,259.587153,1.904792,17.059720,44.938973,286.997153,0.000000,3.105022,3.000000,-93.169558,9.046113,2025-02-19T16:26:07.000-06:00,-0.210206,-0.969307,-0.047700,2025-02-19T16:26:06.798-06:00,-0.406010,0.140957,-0.287265,2025-02-19T16:26:06.803-06:00
107.000000,259.444876,1.919093,17.138872,44.939054,286.854876,0.000000,2.708668,3.000000,-93.169558,9.045719,2025-02-19T16:26:08.000-06:00,-0.222883,-0.971754,-0.034931,2025-02-19T16:26:07.802-06:00,-0.484551,0.137577,-0.222425,2025-02-19T16:26:07.797-06:00
108.000000,259.407231,1.919386,17.318816,44.939133,286.817230,359.512573,2.457551,3.000000,-93.169553,8.897884,2025-02-19T16:26:09.000-06:00,-0.222882,-0.970086,-0.056551,2025-02-19T16:26:08.797-06:00,-0.445983,0.142520,-0.411768,2025-02-19T16:26:08.802-06:00
109.000000,259.157087,1.938275,17.705687,44.939212,286.567086,359.512573,2.296172,3.000000,-93.169555,8.758838,2025-02-19T16:26:10.000-06:00,-0.225900,-0.969070,-0.046734,2025-02-19T16:26:09.802-06:00,-0.388480,0.125693,-0.294331,2025-02-19T16:26:09.797-06:00
110.000000,259.467783,1.948302,18.221490,44.939286,286.877782,359.512573,3.248483,3.000000,-93.169564,8.586319,2025-02-19T16:26:11.000-06:00,-0.209687,-0.978663,-0.061440,2025-02-19T16:26:10.797-06:00,-0.238492,0.033608,-0.334407,2025-02-19T16:26:10.802-06:00
111.000000,259.794859,1.935171,18.183085,44.939363,287.204859,359.512573,3.164985,3.000000,-93.169568,8.591314,2025-02-19T16:26:12.000-06:00,-0.191340,-0.970931,-0.032547,2025-02-19T16:26:11.801-06:00,-0.026831,0.102656,-0.099956,2025-02-19T16:26:11.796-06:00
112.000000,259.952072,1.939437,18.255935,44.939437,287.362072,359.512573,2.964848,3.000000,-93.169568,8.566906,2025-02-19T16:26:13.000-06:00,-0.194849,-0.983181,-0.047418,2025-02-19T16:26:12.796-06:00,-0.070675,-0.025269,-0.192649,2025-02-19T16:26:12.801-06:00
113.000000,259.626062,1.957211,18.024905,44.939515,287.036062,359.512573,2.688701,3.000000,-93.169567,8.705362,2025-02-19T16:26:14.000-06:00,-0.225618,-0.972637,-0.049273,2025-02-19T16:26:13.801-06:00,-0.326968,0.089585,-0.217643,2025-02-19T16:26:13.796-06:00
114.000000,259.154897,1.960988,17.731781,44.939595,286.564897,359.512573,2.445499,3.000000,-93.169563,8.710702,2025-02-19T16:26:15.000-06:00,-0.257688,-0.961701,-0.055663,2025-02-19T16:26:14.795-06:00,-0.626168,0.186446,-0.220062,2025-02-19T16:26:14.800-06:00
115.000000,259.163123,1.965617,18.729495,44.939673,286.573123,0.000000,2.287976,3.000000,-93.169560,8.364508,2025-02-19T16:26:16.000-06:00,-0.284413,-0.956433,-0.058880,2025-02-19T16:26:15.800-06:00,-0.842694,0.227306,-0.265929,2025-02-19T16:26:15.795-06:00
116.000000,258.845029,1.991698,20.739244,44.939742,286.255029,0.000000,2.426807,3.000000,-93.169558,7.704405,2025-02-19T16:26:17.000-06:00,-0.296085,-0.957686,-0.056937,2025-02-19T16:26:16.795-06:00,-0.896106,0.200737,-0.223728,2025-02-19T16:26:16.800-06:00
117.000000,258.671678,2.060097,23.829905,44.939804,286.081678,0.000000,2.294890,3.000000,-93.169557,6.885039,2025-02-19T16:26:18.000-06:00,-0.308809,-0.957801,-0.069825,2025-02-19T16:26:17.800-06:00,-0.982603,0.186404,-0.285671,2025-02-19T16:26:17.795-06:00
118.000000,258.839964,2.112935,28.626759,44.939857,286.249964,0.000000,2.294511,3.000000,-93.169556,5.966802,2025-02-19T16:26:19.000-06:00,-0.312515,-0.946991,-0.078502,2025-02-19T16:26:18.794-06:00,-0.928653,0.281388,-0.304098,2025-02-19T16:26:18.799-06:00
119.000000,258.610268,2.222560,36.524135,44.939901,286.020268,0.742249,2.235082,3.000000,-93.169555,4.892999,2025-02-19T16:26:20.000-06:00,-0.312214,-0.957612,-0.070057,2025-02-19T16:26:19.799-06:00,-0.818093,0.140510,-0.214845,2025-02-19T16:26:19.794-06:00
120.000000,258.307216,2.557800,48.886159,44.939929,285.717216,0.742249,2.294764,3.000000,-93.169560,3.710291,2025-02-19T16:26:21.000-06:00,-0.334500,-0.947457,-0.073278,2025-02-19T16:26:20.794-06:00,-0.940623,0.220654,-0.236474,2025-02-19T16:26:20.799-06:00
121.000000,258.277922,2.840088,68.273117,44.939951,285.687922,0.742249,2.272353,3.000000,-93.169563,2.669002,2025-02-19T16:26:22.000-06:00,-0.326830,-0.950694,-0.070473,2025-02-19T16:26:21.799-06:00,-0.693561,0.138292,-0.161346,2025-02-19T16:26:21.794-06:00
122.000000,258.339612,3.265266,119.395474,44.939962,285.749612,0.742249,2.360670,3.000000,-93.169565,1.392008,2025-02-19T16:26:23.000-06:00,-0.242189,-0.966575,-0.064344,2025-02-19T16:26:22.803-06:00,0.122457,-0.012408,-0.054559,2025-02-19T16:26:22.798-06:00
123.000000,258.475007,3.748753,180.000000,44.939968,285.885006,0.742249,2.605454,3.000000,-93.169567,0.686120,2025-02-19T16:26:24.000-06:00,-0.172651,-0.981003,-0.052735,2025-02-19T16:26:23.798-06:00,0.689210,-0.122858,0.095341,2025-02-19T16:26:23.803-06:00
124.000000,258.562037,3.760711,180.000000,44.939977,285.972037,0.742249,2.597228,3.000000,-93.169568,0.679538,2025-02-19T16:26:25.000-06:00,-0.038667,-1.015402,-0.028752,2025-02-19T16:26:24.803-06:00,1.803090,-0.420138,0.316912,2025-02-19T16:26:24.798-06:00
125.000000,258.638554,3.748237,180.000000,44.939995,286.048553,0.742249,2.706606,3.000000,-93.169569,1.635942,2025-02-19T16:26:26.000-06:00,-0.035569,-1.007638,-0.041259,2025-02-19T16:26:25.797-06:00,1.567979,-0.297390,0.236349,2025-02-19T16:26:25.802-06:00
126.000000,258.754878,2.487556,62.019816,44.940029,286.164877,0.742249,2.647722,3.000000,-93.169569,3.204148,2025-02-19T16:26:27.000-06:00,-0.037947,-0.996902,-0.040651,2025-02-19T16:26:26.802-06:00,1.314113,-0.127794,0.249202,2025-02-19T16:26:26.797-06:00
127.000000,258.765655,2.320166,38.922111,44.940075,286.175655,0.742249,2.731028,3.000000,-93.169569,4.685629,2025-02-19T16:26:28.000-06:00,-0.092085,-0.976534,-0.047636,2025-02-19T16:26:27.797-06:00,0.848133,0.050380,0.258527,2025-02-19T16:26:27.802-06:00
128.000000,258.521272,2.155711,30.519240,44.940129,285.931271,0.742249,2.738592,3.000000,-93.169571,5.719662,2025-02-19T16:26:29.000-06:00,-0.137953,-0.980542,-0.062744,2025-02-19T16:26:28.802-06:00,0.652036,-0.052548,0.133924,2025-02-19T16:26:28.797-06:00
129.000000,258.503396,2.139275,25.336474,44.940189,285.913396,0.485322,2.832322,3.000000,-93.169573,6.561277,2025-02-19T16:26:30.000-06:00,-0.157191,-1.000493,-0.076314,2025-02-19T16:26:29.796-06:00,0.508738,-0.247547,0.029132,2025-02-19T16:26:29.801-06:00
130.000000,258.164595,2.097655,21.970748,44.940256,285.574594,0.485322,2.869564,3.000000,-93.169550,7.277416,2025-02-19T16:26:31.000-06:00,-0.146869,-0.991903,-0.087273,2025-02-19T16:26:30.801-06:00,0.370583,-0.121382,-0.091638,2025-02-19T16:26:30.796-06:00
131.000000,258.177778,1.998498,20.592421,44.940325,285.587778,0.485322,2.733146,3.000000,-93.169549,7.792834,2025-02-19T16:26:32.000-06:00,-0.178818,-0.974560,-0.065241,2025-02-19T16:26:31.796-06:00,0.100576,0.060053,-0.055372,2025-02-19T16:26:31.801-06:00
132.000000,258.341267,1.979097,19.409089,44.940399,285.751267,0.485322,2.721117,3.000000,-93.169548,8.132639,2025-02-19T16:26:33.000-06:00,-0.206988,-0.970518,-0.066574,2025-02-19T16:26:32.801-06:00,-0.209640,0.098228,-0.079154,2025-02-19T16:26:32.796-06:00
133.000000,258.190148,1.970742,19.462579,44.940470,285.600148,0.485322,3.118806,3.000000,-93.169547,8.117672,2025-02-19T16:26:34.000-06:00,-0.218735,-0.977425,-0.077022,2025-02-19T16:26:33.795-06:00,-0.328817,0.034521,-0.136240,2025-02-19T16:26:33.800-06:00
134.000000,258.121095,1.985469,19.899640,44.940542,285.531095,0.485322,2.825984,3.000000,-93.169546,7.975851,2025-02-19T16:26:35.000-06:00,-0.185576,-0.973621,-0.069860,2025-02-19T16:26:34.800-06:00,0.014617,0.057271,-0.058524,2025-02-19T16:26:34.795-06:00
135.000000,257.973113,1.981900,19.735635,44.940614,285.383113,0.187605,3.080343,3.000000,-93.169546,8.022482,2025-02-19T16:26:36.000-06:00,-0.178708,-0.982414,-0.092159,2025-02-19T16:26:35.795-06:00,-0.001605,-0.012492,-0.147708,2025-02-19T16:26:35.800-06:00
136.000000,257.890666,1.955023,19.284311,44.940688,285.300666,0.187605,3.196457,3.000000,-93.169546,8.200883,2025-02-19T16:26:37.000-06:00,-0.201894,-0.973839,-0.071058,2025-02-19T16:26:36.800-06:00,-0.207642,0.069283,-0.092784,2025-02-19T16:26:36.795-06:00
137.000000,257.825176,1.964918,19.179751,44.940762,285.235176,0.187605,3.078130,3.000000,-93.169545,8.265579,2025-02-19T16:26:38.000-06:00,-0.227190,-0.980775,-0.084028,2025-02-19T16:26:37.794-06:00,-0.347548,-0.011968,-0.166590,2025-02-19T16:26:37.799-06:00
138.000000,257.705474,1.953809,18.648605,44.940839,285.115474,359.642792,2.715478,3.000000,-93.169545,8.293855,2025-02-19T16:26:39.000-06:00,-0.213065,-0.957851,-0.052028,2025-02-19T16:26:38.799-06:00,-0.275571,0.226051,0.073773,2025-02-19T16:26:38.794-06:00
139.000000,258.408187,1.957536,19.895566,44.940908,285.818187,359.642792,2.776168,3.000000,-93.169546,7.968719,2025-02-19T16:26:40.000-06:00,-0.226104,-0.963575,-0.074788,2025-02-19T16:26:39.794-06:00,-0.380040,0.162608,-0.017582,2025-02-19T16:26:39.799-06:00
140.000000,258.391765,1.994862,20.832299,44.940980,285.801765,359.642792,2.528252,3.000000,-93.169568,7.745795,2025-02-19T16:26:41.000-06:00,-0.285320,-0.960873,-0.092926,2025-02-19T16:26:40.798-06:00,-0.866840,0.160979,-0.234716,2025-02-19T16:26:40.803-06:00
141.000000,258.152914,2.007450,22.462408,44.941047,285.562914,359.642792,2.634918,3.000000,-93.169561,7.241284,2025-02-19T16:26:42.000-06:00,-0.235417,-0.962208,-0.091156,2025-02-19T16:26:41.803-06:00,-0.377281,0.156059,-0.141942,2025-02-19T16:26:41.798-06:00
142.000000,258.047093,2.060550,25.102539,44.941108,285.457093,359.642822,2.898273,3.000000,-93.169560,6.650207,2025-02-19T16:26:43.000-06:00,-0.220197,-0.970030,-0.083206,2025-02-19T16:26:42.798-06:00,-0.167608,0.057573,-0.118162,2025-02-19T16:26:42.803-06:00
143.000000,258.071067,2.087025,26.485669,44.941164,285.481067,2.630700,3.388102,3.000000,-93.169563,6.379856,2025-02-19T16:26:44.000-06:00,-0.218631,-0.973487,-0.096460,2025-02-19T16:26:43.803-06:00,-0.154763,0.030649,-0.221783,2025-02-19T16:26:43.798-06:00
144.000000,258.143806,2.105477,27.615069,44.941218,285.553806,2.630700,3.379286,3.000000,-93.169542,6.162799,2025-02-19T16:26:45.000-06:00,-0.249458,-0.966433,-0.101165,2025-02-19T16:26:44.797-06:00,-0.509142,0.095483,-0.159528,2025-02-19T16:26:44.802-06:00
145.000000,258.152653,2.150469,29.696538,44.941270,285.562653,2.630700,3.572597,3.000000,-93.169539,5.785171,2025-02-19T16:26:46.000-06:00,-0.284243,-0.950916,-0.083493,2025-02-19T16:26:45.802-06:00,-0.772026,0.243082,-0.063638,2025-02-19T16:26:45.797-06:00
146.000000,258.056191,2.252639,36.927743,44.941314,285.466191,0.705301,3.347940,3.000000,-93.169538,4.839661,2025-02-19T16:26:47.000-06:00,-0.299342,-0.962478,-0.088992,2025-02-19T16:26:46.797-06:00,-0.785268,0.096385,-0.108961,2025-02-19T16:26:46.802-06:00
147.000000,257.847680,2.317621,45.719176,44.941350,285.257680,2.630700,3.185741,3.000000,-93.169533,4.063176,2025-02-19T16:26:48.000-06:00,-0.330978,-0.947484,-0.101941,2025-02-19T16:26:47.802-06:00,-1.169061,0.264827,-0.252781,2025-02-19T16:26:47.797-06:00
148.000000,258.256176,2.956576,52.682680,44.941384,285.666176,2.630700,3.053992,3.000000,-93.169552,3.157562,2025-02-19T16:26:49.000-06:00,-0.187364,-0.978349,-0.077907,2025-02-19T16:26:48.796-06:00,0.346448,-0.064996,0.017585,2025-02-19T16:26:48.801-06:00
149.000000,258.162081,3.670003,62.397547,44.941404,285.572081,2.630700,2.948593,3.000000,-93.169550,2.194586,2025-02-19T16:26:50.000-06:00,-0.035655,-0.999706,-0.182812,2025-02-19T16:26:49.801-06:00,1.730818,-0.266615,-0.842939,2025-02-19T16:26:49.796-06:00
150.000000,257.947020,2.728658,62.671872,44.941433,285.357020,2.630700,2.862357,3.000000,-93.169547,3.029735,2025-02-19T16:26:51.000-06:00,-0.099259,-0.975904,-0.271265,2025-02-19T16:26:50.796-06:00,0.955870,-0.015386,-1.646446,2025-02-19T16:26:50.801-06:00
151.000000,257.984405,2.391064,49.969629,44.941468,285.394405,2.630700,2.790494,3.000000,-93.169526,3.784188,2025-02-19T16:26:52.000-06:00,-0.102613,-0.988641,-0.284905,2025-02-19T16:26:51.800-06:00,0.702660,-0.070033,-1.946165,2025-02-19T16:26:51.795-06:00
