seconds_elapsed,location_altitude,location_speedAccuracy,location_bearingAccuracy,location_latitude,location_altitudeAboveMeanSeaLevel,location_bearing,location_horizontalAccuracy,location_verticalAccuracy,location_longitude,location_speed,location_local_time,accelerometerUncalibrated_z,accelerometerUncalibrated_y,accelerometerUncalibrated_x,accelerometerUncalibrated_local_time,accelerometer_z,accelerometer_y,accelerometer_x,accelerometer_local_time
0.000000,258.747313,2.310139,44.934100,44.939993,286.157312,212.949170,2.357121,3.000000,-93.169620,4.139575,2025-02-19T16:03:06.999-06:00,-0.245317,-0.986108,0.084873,2025-02-19T16:03:06.084-06:00,-0.455812,-0.081015,1.430114,2025-02-19T16:03:06.083-06:00
1.000000,258.679986,2.272201,41.393697,44.939950,286.089985,195.023233,2.384744,3.000000,-93.169626,4.441419,2025-02-19T16:03:07.999-06:00,-0.195214,-0.995331,0.041740,2025-02-19T16:03:07.069-06:00,-0.246652,-0.107174,0.855251,2025-02-19T16:03:07.068-06:00
2.000000,258.935502,2.243637,37.140228,44.939903,286.345502,180.151602,2.382780,3.000000,-93.169618,4.878850,2025-02-19T16:03:08.999-06:00,-0.158118,-0.987123,-0.038607,2025-02-19T16:03:08.074-06:00,-0.048983,0.002279,0.004270,2025-02-19T16:03:08.072-06:00
3.000000,258.976028,2.216459,34.345863,44.939854,286.386028,180.000000,2.379188,3.000000,-93.169610,5.209018,2025-02-19T16:03:09.999-06:00,-0.146461,-0.982409,-0.015566,2025-02-19T16:03:09.068-06:00,0.080862,0.046723,0.192682,2025-02-19T16:03:09.067-06:00
4.000000,259.091962,2.143535,28.985879,44.939798,286.501962,180.000000,2.455346,3.000000,-93.169604,5.941655,2025-02-19T16:03:10.999-06:00,-0.114339,-0.994202,-0.074374,2025-02-19T16:03:10.073-06:00,0.312347,-0.065073,-0.248189,2025-02-19T16:03:10.072-06:00
5.000000,259.075322,2.094543,26.117831,44.939740,286.485322,180.000000,2.432642,3.000000,-93.169598,6.483195,2025-02-19T16:03:12.000-06:00,-0.149008,-0.980882,-0.108037,2025-02-19T16:03:11.068-06:00,0.027364,0.068831,-0.591568,2025-02-19T16:03:11.067-06:00
6.000000,259.821748,2.128358,26.429605,44.939685,287.231748,180.000000,2.402249,3.000000,-93.169593,6.313725,2025-02-19T16:03:13.000-06:00,-0.216509,-0.969172,-0.094262,2025-02-19T16:03:12.073-06:00,-0.612466,0.169512,-0.441209,2025-02-19T16:03:12.072-06:00
7.000000,259.643745,2.130887,27.213601,44.939628,287.053745,180.000000,2.402249,3.000000,-93.169592,6.199993,2025-02-19T16:03:14.000-06:00,-0.155721,-0.987143,-0.062656,2025-02-19T16:03:13.068-06:00,0.011393,-0.004455,-0.126516,2025-02-19T16:03:13.066-06:00
8.000000,259.474657,2.080792,24.730029,44.939566,286.884657,180.000000,2.204690,3.000000,-93.169593,6.660328,2025-02-19T16:03:15.000-06:00,-0.134676,-0.987758,-0.058892,2025-02-19T16:03:14.072-06:00,0.231362,-0.017451,-0.069795,2025-02-19T16:03:14.071-06:00
9.000000,259.587821,2.044107,22.325191,44.939499,286.997821,180.000000,2.206691,3.000000,-93.169591,7.251070,2025-02-19T16:03:16.000-06:00,-0.153781,-0.984520,-0.072842,2025-02-19T16:03:15.067-06:00,0.013352,0.016553,-0.162353,2025-02-19T16:03:15.066-06:00
10.000000,259.674076,2.009385,21.507638,44.939430,287.084076,179.512619,2.144222,3.000000,-93.169588,7.457993,2025-02-19T16:03:17.000-06:00,-0.203851,-0.984043,-0.068076,2025-02-19T16:03:16.072-06:00,-0.453969,0.010487,-0.090005,2025-02-19T16:03:16.071-06:00
11.000000,259.885459,2.015523,21.408989,44.939361,287.295459,179.512619,2.099948,3.000000,-93.169585,7.453986,2025-02-19T16:03:18.000-06:00,-0.165172,-0.972113,-0.069925,2025-02-19T16:03:17.067-06:00,-0.122015,0.145717,-0.120865,2025-02-19T16:03:17.075-06:00
12.000000,259.965463,2.026030,20.614189,44.939291,287.375462,179.512619,2.262191,3.000000,-93.169584,7.677113,2025-02-19T16:03:19.000-06:00,-0.168267,-0.980154,-0.071424,2025-02-19T16:03:18.071-06:00,-0.105061,0.051680,-0.119333,2025-02-19T16:03:18.070-06:00
13.000000,260.099567,2.026617,20.313752,44.939219,287.509567,179.512619,2.547822,3.000000,-93.169584,7.815786,2025-02-19T16:03:20.000-06:00,-0.181310,-0.982322,-0.071305,2025-02-19T16:03:19.066-06:00,-0.219464,0.037881,-0.122632,2025-02-19T16:03:19.075-06:00
14.000000,260.219820,2.031075,20.192961,44.939148,287.629820,179.512619,2.373468,3.000000,-93.169585,7.835922,2025-02-19T16:03:21.000-06:00,-0.204549,-0.970818,-0.077266,2025-02-19T16:03:20.071-06:00,-0.413088,0.136259,-0.152184,2025-02-19T16:03:20.070-06:00
15.000000,260.282133,2.009082,21.206080,44.939080,287.692132,180.000000,2.255766,3.000000,-93.169589,7.589601,2025-02-19T16:03:22.000-06:00,-0.223596,-0.970996,-0.078174,2025-02-19T16:03:21.066-06:00,-0.553365,0.125675,-0.155363,2025-02-19T16:03:21.074-06:00
16.000000,260.556999,2.016883,22.192242,44.939013,287.966998,180.000000,2.175493,3.000000,-93.169591,7.260821,2025-02-19T16:03:23.000-06:00,-0.201149,-0.969194,-0.073048,2025-02-19T16:03:22.070-06:00,-0.304403,0.138494,-0.053021,2025-02-19T16:03:22.069-06:00
17.000000,260.526133,2.010951,22.341583,44.938947,287.936133,180.236633,2.248825,3.000000,-93.169591,7.290772,2025-02-19T16:03:24.000-06:00,-0.175906,-0.967670,-0.055835,2025-02-19T16:03:23.075-06:00,0.071783,0.128200,0.052864,2025-02-19T16:03:23.074-06:00
18.000000,260.610744,2.013838,21.544242,44.938879,288.020744,180.236633,2.174826,3.000000,-93.169591,7.487086,2025-02-19T16:03:25.000-06:00,-0.194692,-0.991830,-0.064166,2025-02-19T16:03:24.070-06:00,-0.128065,-0.094140,-0.155713,2025-02-19T16:03:24.069-06:00
19.000000,260.561924,2.001952,21.261852,44.938811,287.971924,180.236633,2.122052,3.000000,-93.169588,7.575557,2025-02-19T16:03:26.000-06:00,-0.190972,-0.984443,-0.054650,2025-02-19T16:03:25.075-06:00,-0.118886,-0.022361,-0.053471,2025-02-19T16:03:25.073-06:00
20.000000,260.513384,1.996478,21.183903,44.938743,287.923384,180.236633,2.093046,3.000000,-93.169588,7.626109,2025-02-19T16:03:27.000-06:00,-0.180398,-0.977365,-0.074839,2025-02-19T16:03:26.070-06:00,-0.014771,0.049169,-0.149954,2025-02-19T16:03:26.068-06:00
21.000000,260.549372,1.989769,20.854907,44.938674,287.959372,180.236633,2.186776,3.000000,-93.169588,7.688402,2025-02-19T16:03:28.000-06:00,-0.209517,-0.982957,-0.069501,2025-02-19T16:03:27.074-06:00,-0.227012,-0.021716,-0.082700,2025-02-19T16:03:27.073-06:00
22.000000,260.729562,1.988924,20.879035,44.938606,288.139562,180.236633,2.129110,3.000000,-93.169589,7.655188,2025-02-19T16:03:29.000-06:00,-0.211012,-0.964921,-0.065172,2025-02-19T16:03:28.069-06:00,-0.320190,0.170839,-0.056983,2025-02-19T16:03:28.068-06:00
23.000000,260.905971,2.015696,21.909213,44.938541,288.315971,180.236633,2.479286,3.000000,-93.169589,7.332959,2025-02-19T16:03:30.000-06:00,-0.256969,-0.958508,-0.079223,2025-02-19T16:03:29.074-06:00,-0.721531,0.219780,-0.184793,2025-02-19T16:03:29.073-06:00
24.000000,260.989427,2.046621,25.112872,44.938482,288.399427,180.236633,2.560874,3.000000,-93.169592,6.597000,2025-02-19T16:03:31.000-06:00,-0.290668,-0.957634,-0.095890,2025-02-19T16:03:30.069-06:00,-0.909064,0.202699,-0.331338,2025-02-19T16:03:30.067-06:00
25.000000,261.225014,2.187402,29.753313,44.938431,288.635014,180.236633,2.409811,3.000000,-93.169596,5.726302,2025-02-19T16:03:32.000-06:00,-0.269998,-0.958512,-0.112212,2025-02-19T16:03:31.073-06:00,-0.795428,0.212684,-0.513782,2025-02-19T16:03:31.072-06:00
26.000000,261.140658,2.236983,36.080072,44.938389,288.550658,180.545914,2.327848,3.000000,-93.169603,4.961673,2025-02-19T16:03:33.000-06:00,-0.204168,-0.972874,-0.195106,2025-02-19T16:03:32.068-06:00,-0.141680,0.061175,-1.190973,2025-02-19T16:03:32.067-06:00
27.000000,261.354646,2.243725,37.620046,44.938349,288.764646,180.545914,2.393151,3.000000,-93.169638,4.796684,2025-02-19T16:03:34.000-06:00,-0.201399,-0.967714,-0.253976,2025-02-19T16:03:33.073-06:00,-0.193822,0.118262,-1.703330,2025-02-19T16:03:33.072-06:00
28.000000,261.278256,2.277203,40.361939,44.938324,288.688256,221.399917,5.293967,3.000000,-93.169625,4.537126,2025-02-19T16:03:35.000-06:00,-0.183604,-0.963585,-0.196343,2025-02-19T16:03:34.068-06:00,-0.152076,0.192777,-1.245855,2025-02-19T16:03:34.066-06:00
29.000000,261.209814,2.301229,42.580911,44.938312,288.619814,240.300277,8.753097,3.000000,-93.169637,4.348663,2025-02-19T16:03:36.000-06:00,-0.150161,-0.981474,-0.124291,2025-02-19T16:03:35.072-06:00,0.158509,0.021493,-0.576771,2025-02-19T16:03:35.071-06:00
30.000000,261.224281,2.266081,40.350497,44.938309,288.634281,267.568451,2.516885,3.000000,-93.169797,4.550450,2025-02-19T16:03:37.000-06:00,-0.162420,-0.962103,-0.111567,2025-02-19T16:03:36.067-06:00,0.203295,0.181627,-0.332526,2025-02-19T16:03:36.066-06:00
31.000000,261.053172,2.214219,34.586493,44.938313,288.463172,269.100006,2.465196,3.000000,-93.169865,5.180739,2025-02-19T16:03:38.000-06:00,-0.106784,-1.008977,-0.053818,2025-02-19T16:03:37.072-06:00,0.699137,-0.280452,0.229277,2025-02-19T16:03:37.071-06:00
32.000000,261.129322,2.107918,27.303726,44.938314,288.539322,269.100006,2.424642,3.000000,-93.169948,6.255595,2025-02-19T16:03:39.000-06:00,-0.141802,-0.995164,-0.052145,2025-02-19T16:03:38.067-06:00,0.185467,-0.116192,0.357216,2025-02-19T16:03:38.075-06:00
33.000000,261.244768,2.043019,24.121670,44.938317,288.654767,269.740295,2.378186,3.000000,-93.170037,6.840597,2025-02-19T16:03:40.000-06:00,-0.186569,-0.976759,-0.035342,2025-02-19T16:03:39.071-06:00,-0.330656,0.072791,0.430156,2025-02-19T16:03:39.070-06:00
34.000000,260.989168,2.046729,23.405169,44.938321,288.399168,269.740295,2.345374,3.000000,-93.170126,7.083959,2025-02-19T16:03:41.000-06:00,-0.192643,-0.987167,-0.016657,2025-02-19T16:03:40.066-06:00,-0.350053,-0.008144,0.465648,2025-02-19T16:03:40.075-06:00
35.000000,260.911031,2.034085,23.145268,44.938321,288.321031,269.740295,2.441075,3.000000,-93.170215,7.105129,2025-02-19T16:03:42.000-06:00,-0.255788,-0.962881,-0.039749,2025-02-19T16:03:41.071-06:00,-0.941005,0.213038,0.232166,2025-02-19T16:03:41.070-06:00
36.000000,260.895497,2.057578,26.000482,44.938325,288.305496,269.740295,2.413877,3.000000,-93.170292,6.399109,2025-02-19T16:03:43.000-06:00,-0.262983,-0.960546,-0.037957,2025-02-19T16:03:42.066-06:00,-0.949294,0.232749,0.232367,2025-02-19T16:03:42.074-06:00
37.000000,260.756016,2.101052,28.537493,44.938325,288.166016,269.740295,2.338098,3.000000,-93.170367,5.963678,2025-02-19T16:03:44.000-06:00,-0.278068,-0.959132,-0.018510,2025-02-19T16:03:43.071-06:00,-1.009449,0.232599,0.440674,2025-02-19T16:03:43.069-06:00
38.000000,260.699949,2.168750,32.543248,44.938322,288.109949,269.740295,2.281250,3.000000,-93.170435,5.395875,2025-02-19T16:03:45.000-06:00,-0.276991,-0.974268,0.025922,2025-02-19T16:03:44.075-06:00,-0.952768,0.083832,0.868123,2025-02-19T16:03:44.074-06:00
39.000000,260.825659,2.215380,36.489991,44.938311,288.235659,269.740295,2.241072,3.000000,-93.170495,4.913793,2025-02-19T16:03:46.000-06:00,-0.267229,-0.963548,0.089952,2025-02-19T16:03:45.070-06:00,-0.882475,0.163708,1.556789,2025-02-19T16:03:45.069-06:00
40.000000,260.707089,2.237891,37.696592,44.938316,288.117088,269.740295,3.892060,3.000000,-93.170546,4.810321,2025-02-19T16:03:47.000-06:00,-0.224405,-0.986786,0.109664,2025-02-19T16:03:46.075-06:00,-0.323753,-0.071341,1.695995,2025-02-19T16:03:46.074-06:00
41.000000,260.661613,2.206813,34.869776,44.938309,288.071613,223.524221,7.546461,3.000000,-93.170586,5.127352,2025-02-19T16:03:48.000-06:00,-0.199032,-0.979921,0.118457,2025-02-19T16:03:47.070-06:00,-0.068563,-0.010114,1.825784,2025-02-19T16:03:47.068-06:00
42.000000,260.615340,2.159560,31.259566,44.938195,288.025340,205.342057,2.208849,3.000000,-93.170609,5.595267,2025-02-19T16:03:49.000-06:00,-0.179891,-0.986090,0.028343,2025-02-19T16:03:48.074-06:00,0.151150,-0.088060,1.087932,2025-02-19T16:03:48.073-06:00
43.000000,260.550299,2.111229,27.732880,44.938137,287.960299,193.292446,2.302484,3.000000,-93.170622,6.168189,2025-02-19T16:03:50.000-06:00,-0.170348,-0.991437,0.002634,2025-02-19T16:03:49.069-06:00,0.104420,-0.107597,0.806209,2025-02-19T16:03:49.068-06:00
44.000000,260.609351,2.074025,25.657965,44.938076,288.019351,187.923625,2.271415,3.000000,-93.170628,6.548182,2025-02-19T16:03:51.000-06:00,-0.214797,-0.983952,-0.056568,2025-02-19T16:03:50.074-06:00,-0.468924,0.003312,0.074500,2025-02-19T16:03:50.073-06:00
45.000000,260.509682,2.100606,27.415440,44.938021,287.919682,183.867142,2.240202,3.000000,-93.170627,6.187560,2025-02-19T16:03:52.000-06:00,-0.279205,-0.957144,-0.100939,2025-02-19T16:03:51.069-06:00,-1.155248,0.270384,-0.352467,2025-02-19T16:03:51.067-06:00
46.000000,260.360559,2.197294,34.942888,44.937978,287.770559,181.404070,2.216182,3.000000,-93.170621,5.087776,2025-02-19T16:03:53.000-06:00,-0.294012,-0.952362,-0.120785,2025-02-19T16:03:52.073-06:00,-1.204782,0.302979,-0.589396,2025-02-19T16:03:52.072-06:00
47.000000,260.165960,2.300588,45.758467,44.937945,287.575960,180.982529,2.199390,3.000000,-93.170619,4.065137,2025-02-19T16:03:54.000-06:00,-0.302793,-0.948417,-0.107936,2025-02-19T16:03:53.068-06:00,-1.170487,0.320437,-0.504626,2025-02-19T16:03:53.067-06:00
48.000000,260.148791,2.439846,63.009239,44.937920,287.558791,180.735087,2.182774,3.000000,-93.170617,3.091146,2025-02-19T16:03:55.000-06:00,-0.284103,-0.956059,-0.106817,2025-02-19T16:03:54.073-06:00,-0.856844,0.225634,-0.433989,2025-02-19T16:03:54.072-06:00
49.000000,260.198911,3.136990,83.607898,44.937905,287.608911,180.460095,2.168714,3.000000,-93.170615,2.105136,2025-02-19T16:03:56.000-06:00,-0.203302,-0.986670,-0.096087,2025-02-19T16:03:55.068-06:00,-0.130830,-0.080112,-0.273011,2025-02-19T16:03:55.066-06:00
50.000000,260.197324,2.720242,93.709501,44.937886,287.607324,180.460909,2.206694,3.000000,-93.170614,2.105854,2025-02-19T16:03:57.000-06:00,-0.193661,-0.945614,-0.103786,2025-02-19T16:03:56.072-06:00,0.256750,0.260418,-0.178265,2025-02-19T16:03:56.071-06:00
51.000000,260.141321,2.994856,80.153412,44.937866,287.551321,180.515828,2.223839,3.000000,-93.170613,2.298722,2025-02-19T16:03:58.000-06:00,-0.102081,-1.003178,-0.091696,2025-02-19T16:03:57.067-06:00,0.985568,-0.279238,0.013161,2025-02-19T16:03:57.066-06:00
52.000000,260.096689,2.508114,58.691538,44.937835,287.506689,180.465872,2.209849,3.000000,-93.170612,3.287004,2025-02-19T16:03:59.000-06:00,-0.090951,-0.996003,-0.086691,2025-02-19T16:03:58.072-06:00,1.116300,-0.209831,0.066948,2025-02-19T16:03:58.071-06:00
53.000000,260.078116,2.318578,42.270423,44.937792,287.488116,180.484735,2.197505,3.000000,-93.170611,4.401750,2025-02-19T16:04:00.000-06:00,-0.099768,-0.996208,-0.083786,2025-02-19T16:03:59.067-06:00,0.982097,-0.200814,0.042085,2025-02-19T16:03:59.066-06:00
54.000000,260.107802,2.198584,33.011883,44.937740,287.517802,180.173229,2.190516,3.000000,-93.170609,5.382727,2025-02-19T16:04:01.000-06:00,-0.108666,-0.995886,-0.096907,2025-02-19T16:04:00.072-06:00,0.747411,-0.178635,-0.006342,2025-02-19T16:04:00.070-06:00
55.000000,260.227914,2.144580,27.752141,44.937683,287.637914,180.183177,2.238496,3.000000,-93.170608,6.125458,2025-02-19T16:04:02.000-06:00,-0.122158,-1.000130,-0.100090,2025-02-19T16:04:01.066-06:00,0.366110,-0.170091,-0.053771,2025-02-19T16:04:01.075-06:00
56.000000,260.666430,2.541588,22.101421,44.937622,288.076430,179.838453,2.221697,3.000000,-93.170604,6.542087,2025-02-19T16:04:03.000-06:00,-0.127483,-1.002132,-0.091988,2025-02-19T16:04:02.071-06:00,0.013057,-0.128955,-0.161205,2025-02-19T16:04:02.070-06:00
57.000000,261.117284,2.250837,23.147896,44.937559,288.527284,179.372623,2.196539,3.000000,-93.170598,6.819815,2025-02-19T16:04:04.000-06:00,-0.136383,-0.992286,-0.046473,2025-02-19T16:04:03.066-06:00,-0.107760,-0.019868,0.079740,2025-02-19T16:04:03.075-06:00
58.000000,261.472741,2.172298,23.751463,44.937497,288.882741,178.996780,2.171990,3.000000,-93.170594,6.802470,2025-02-19T16:04:05.000-06:00,-0.225034,-0.967283,-0.048521,2025-02-19T16:04:04.071-06:00,-0.865899,0.215780,0.000625,2025-02-19T16:04:04.069-06:00
59.000000,261.630294,2.142582,27.119658,44.937442,289.040294,177.228253,2.251226,3.000000,-93.170585,6.185029,2025-02-19T16:04:06.000-06:00,-0.215223,-0.965364,-0.103688,2025-02-19T16:04:05.075-06:00,-0.732884,0.220354,-0.308656,2025-02-19T16:04:05.074-06:00
60.000000,262.033631,2.342645,29.860307,44.937392,289.443631,178.999313,2.434591,3.000000,-93.170611,5.553081,2025-02-19T16:04:07.000-06:00,-0.213978,-0.956886,-0.112935,2025-02-19T16:04:06.070-06:00,-0.664882,0.281095,-0.258147,2025-02-19T16:04:06.069-06:00
61.000000,262.147600,2.447228,35.192748,44.937349,289.557600,178.999313,2.420896,3.000000,-93.170609,4.818583,2025-02-19T16:04:08.000-06:00,-0.289250,-0.949341,-0.133996,2025-02-19T16:04:07.075-06:00,-1.265345,0.320013,-0.403333,2025-02-19T16:04:07.074-06:00
62.000000,262.024768,2.358176,52.428037,44.937319,289.434767,178.999313,2.491460,3.000000,-93.170609,3.631899,2025-02-19T16:04:09.000-06:00,-0.314747,-0.931183,-0.144100,2025-02-19T16:04:08.070-06:00,-1.105108,0.422073,-0.430936,2025-02-19T16:04:08.068-06:00
63.000000,262.166237,2.541005,85.567794,44.937299,289.576236,178.999313,2.442314,3.000000,-93.170608,2.369796,2025-02-19T16:04:10.000-06:00,-0.307205,-0.962006,-0.122655,2025-02-19T16:04:09.074-06:00,-0.857577,0.079299,-0.166737,2025-02-19T16:04:09.073-06:00
64.000000,262.189251,2.561645,118.918223,44.937285,289.599251,178.999313,2.420620,3.000000,-93.170608,1.715240,2025-02-19T16:04:11.000-06:00,-0.169135,-0.973177,-0.133768,2025-02-19T16:04:10.069-06:00,0.367243,-0.033667,-0.052552,2025-02-19T16:04:10.068-06:00
65.000000,262.108575,2.775451,104.413841,44.937267,289.518575,175.609421,2.487662,3.000000,-93.170584,1.874109,2025-02-19T16:04:12.000-06:00,-0.147416,-0.963004,-0.138802,2025-02-19T16:04:11.074-06:00,0.702833,0.037616,-0.128664,2025-02-19T16:04:11.073-06:00
66.000000,262.332751,2.555820,78.669606,44.937241,289.742750,178.623444,2.615767,3.000000,-93.170561,2.587691,2025-02-19T16:04:13.000-06:00,-0.126371,-0.996039,-0.081087,2025-02-19T16:04:12.069-06:00,0.831795,-0.235577,0.273827,2025-02-19T16:04:12.068-06:00
67.000000,262.370177,2.447887,58.823698,44.937208,289.780177,178.623322,2.606514,3.000000,-93.170564,3.328932,2025-02-19T16:04:14.000-06:00,-0.098194,-0.995039,-0.094187,2025-02-19T16:04:13.074-06:00,0.956970,-0.204082,0.171285,2025-02-19T16:04:13.072-06:00
68.000000,262.397136,2.306816,42.530693,44.937164,289.807136,180.311386,2.601388,3.000000,-93.170566,4.380334,2025-02-19T16:04:15.000-06:00,-0.096107,-0.991112,-0.099716,2025-02-19T16:04:14.068-06:00,0.969690,-0.166673,0.160586,2025-02-19T16:04:14.067-06:00
69.000000,262.475638,2.192892,32.488883,44.937111,289.885638,180.311386,2.582248,3.000000,-93.170567,5.462598,2025-02-19T16:04:16.000-06:00,-0.106178,-0.990439,-0.091174,2025-02-19T16:04:15.073-06:00,0.852480,-0.150898,0.177425,2025-02-19T16:04:15.072-06:00
70.000000,262.550780,2.081027,25.754620,44.937049,289.960780,180.311386,2.578736,3.000000,-93.170569,6.544698,2025-02-19T16:04:17.000-06:00,-0.150745,-0.986444,-0.086995,2025-02-19T16:04:16.068-06:00,0.419511,-0.102556,0.167104,2025-02-19T16:04:16.067-06:00
71.000000,262.400602,2.049803,24.190792,44.936986,289.810601,181.198532,2.523138,3.000000,-93.170571,6.852729,2025-02-19T16:04:18.000-06:00,-0.237818,-0.960934,-0.113341,2025-02-19T16:04:17.073-06:00,-0.420941,0.131726,-0.054451,2025-02-19T16:04:17.071-06:00
72.000000,262.288980,2.095723,26.103096,44.936930,289.698980,181.198532,2.746241,3.000000,-93.170570,6.476208,2025-02-19T16:04:19.000-06:00,-0.261125,-0.958677,-0.120470,2025-02-19T16:04:18.067-06:00,-0.628074,0.153595,-0.110937,2025-02-19T16:04:18.066-06:00
73.000000,262.260830,2.126061,29.219310,44.936878,289.670829,181.198532,2.659975,3.000000,-93.170570,5.873610,2025-02-19T16:04:20.000-06:00,-0.354959,-0.940864,-0.123495,2025-02-19T16:04:19.072-06:00,-1.498128,0.319314,-0.156409,2025-02-19T16:04:19.071-06:00
74.000000,262.114822,2.266476,42.606537,44.936842,289.524821,178.076904,2.577478,3.000000,-93.170569,4.305775,2025-02-19T16:04:21.000-06:00,-0.435234,-0.920885,-0.140808,2025-02-19T16:04:20.067-06:00,-2.220029,0.503391,-0.349090,2025-02-19T16:04:20.066-06:00
75.000000,261.949596,2.500534,88.755706,44.936827,289.359596,173.429581,2.558513,3.000000,-93.170566,2.281552,2025-02-19T16:04:22.000-06:00,-0.299273,-0.959653,-0.112591,2025-02-19T16:04:21.072-06:00,-0.823740,0.113293,-0.061737,2025-02-19T16:04:21.070-06:00
76.000000,261.891638,2.584156,122.879682,44.936817,289.301638,173.429581,2.674578,3.000000,-93.170567,1.645054,2025-02-19T16:04:23.000-06:00,-0.160546,-0.968695,-0.103704,2025-02-19T16:04:22.067-06:00,0.548460,0.008101,0.054558,2025-02-19T16:04:22.075-06:00
77.000000,261.753952,2.528151,101.037501,44.936799,289.163952,173.429581,2.628534,3.000000,-93.170563,2.022235,2025-02-19T16:04:24.000-06:00,-0.138821,-0.991084,-0.075354,2025-02-19T16:04:23.071-06:00,0.927117,-0.245433,0.297242,2025-02-19T16:04:23.070-06:00
78.000000,261.696787,2.569049,70.996159,44.936772,289.106787,170.974579,2.645859,3.000000,-93.170558,2.808088,2025-02-19T16:04:25.000-06:00,-0.107347,-0.991854,-0.068481,2025-02-19T16:04:24.066-06:00,1.110009,-0.203727,0.301612,2025-02-19T16:04:24.075-06:00
79.000000,261.770249,2.381933,48.998050,44.936735,289.180249,166.815186,2.596178,3.000000,-93.170550,3.890602,2025-02-19T16:04:26.000-06:00,-0.121878,-0.993649,-0.053727,2025-02-19T16:04:25.071-06:00,0.929650,-0.214954,0.418796,2025-02-19T16:04:25.070-06:00
80.000000,262.014117,2.247387,37.459683,44.936689,289.424116,160.417297,2.728902,3.000000,-93.170533,4.859187,2025-02-19T16:04:27.000-06:00,-0.132239,-0.997675,-0.045392,2025-02-19T16:04:26.066-06:00,0.747834,-0.242938,0.494470,2025-02-19T16:04:26.074-06:00
81.000000,262.006114,2.149272,31.023695,44.936640,289.416114,156.160706,2.680308,3.000000,-93.170506,5.612372,2025-02-19T16:04:28.000-06:00,-0.188934,-0.983559,-0.016931,2025-02-19T16:04:27.070-06:00,0.086919,-0.072990,0.718754,2025-02-19T16:04:27.069-06:00
82.000000,262.030257,2.154724,30.196252,44.936594,289.440257,150.732285,2.693249,3.000000,-93.170463,5.780597,2025-02-19T16:04:29.000-06:00,-0.234606,-0.974869,-0.006029,2025-02-19T16:04:28.075-06:00,-0.397869,0.026639,0.700478,2025-02-19T16:04:28.074-06:00
83.000000,261.885952,2.155711,30.957254,44.936555,289.295952,145.530701,2.666449,3.000000,-93.170418,5.642366,2025-02-19T16:04:30.000-06:00,-0.208823,-0.975584,-0.027921,2025-02-19T16:04:29.070-06:00,-0.158450,0.034528,0.402685,2025-02-19T16:04:29.069-06:00
84.000000,261.901613,2.146499,30.293630,44.936519,289.311613,138.233734,2.682190,3.000000,-93.170363,5.741315,2025-02-19T16:04:31.000-06:00,-0.184772,-0.964368,-0.186034,2025-02-19T16:04:30.075-06:00,0.025241,0.138386,-0.979968,2025-02-19T16:04:30.073-06:00
85.000000,261.297418,2.139661,30.104469,44.936480,288.707418,150.116165,2.646285,3.000000,-93.170316,5.746618,2025-02-19T16:04:32.000-06:00,-0.245528,-0.941416,-0.290305,2025-02-19T16:04:31.069-06:00,-0.519221,0.343551,-1.860082,2025-02-19T16:04:31.068-06:00
86.000000,261.207089,2.205225,37.368132,44.936436,288.617089,159.605469,2.613971,3.000000,-93.170308,4.777640,2025-02-19T16:04:33.000-06:00,-0.373424,-0.925032,-0.223807,2025-02-19T16:04:32.074-06:00,-1.674684,0.475299,-1.216555,2025-02-19T16:04:32.073-06:00
87.000000,260.939355,2.430010,60.278255,44.936412,288.349355,175.373810,2.583273,3.000000,-93.170307,3.208276,2025-02-19T16:04:34.000-06:00,-0.318013,-0.944437,-0.138997,2025-02-19T16:04:33.069-06:00,-1.096024,0.283451,-0.334899,2025-02-19T16:04:33.068-06:00
88.000000,260.829216,2.708173,90.023374,44.936395,288.239216,175.373810,2.617139,3.000000,-93.170309,2.183380,2025-02-19T16:04:35.000-06:00,-0.202585,-0.968251,-0.123520,2025-02-19T16:04:34.074-06:00,-0.153770,0.073505,-0.105699,2025-02-19T16:04:34.073-06:00
89.000000,260.907038,3.286316,86.413971,44.936379,288.317038,178.325485,2.598874,3.000000,-93.170308,1.927884,2025-02-19T16:04:36.000-06:00,-0.168991,-0.996557,-0.075304,2025-02-19T16:04:35.069-06:00,0.309221,-0.219768,0.291706,2025-02-19T16:04:35.067-06:00
90.000000,261.024243,2.632084,89.187069,44.936358,288.434242,178.325485,2.633489,3.000000,-93.170306,2.252438,2025-02-19T16:04:37.000-06:00,-0.108846,-0.981372,-0.090649,2025-02-19T16:04:36.073-06:00,1.003488,-0.107887,0.235017,2025-02-19T16:04:36.072-06:00
91.000000,260.841645,2.714935,58.474760,44.936327,288.251645,178.775528,2.733093,3.000000,-93.170303,3.186710,2025-02-19T16:04:38.000-06:00,-0.110369,-0.993206,-0.087989,2025-02-19T16:04:37.068-06:00,0.864859,-0.190436,0.236494,2025-02-19T16:04:37.067-06:00
92.000000,261.209980,2.336211,46.570024,44.936288,288.619980,178.775528,2.746356,3.000000,-93.170299,4.038194,2025-02-19T16:04:39.000-06:00,-0.098344,-0.997454,-0.098138,2025-02-19T16:04:38.073-06:00,0.836260,-0.204462,0.128619,2025-02-19T16:04:38.072-06:00
93.000000,261.302943,2.251848,36.794649,44.936242,288.712943,178.775528,2.878530,3.000000,-93.170298,4.929238,2025-02-19T16:04:40.000-06:00,-0.103720,-0.988582,-0.103154,2025-02-19T16:04:39.068-06:00,0.748142,-0.107389,0.064651,2025-02-19T16:04:39.066-06:00
94.000000,261.137329,2.151454,30.279473,44.936189,288.547329,180.075195,2.849441,3.000000,-93.170298,5.752833,2025-02-19T16:04:41.000-06:00,-0.113769,-0.982385,-0.097308,2025-02-19T16:04:40.072-06:00,0.664545,-0.049280,0.079061,2025-02-19T16:04:40.071-06:00
95.000000,261.052975,2.088766,25.895973,44.936128,288.462975,180.075195,2.829296,3.000000,-93.170304,6.524320,2025-02-19T16:04:42.000-06:00,-0.135933,-0.993186,-0.081273,2025-02-19T16:04:41.067-06:00,0.405301,-0.143207,0.273195,2025-02-19T16:04:41.066-06:00
96.000000,261.036603,2.048220,22.982157,44.936063,288.446603,180.075195,2.762616,3.000000,-93.170311,7.176823,2025-02-19T16:04:43.000-06:00,-0.147995,-0.989442,-0.078977,2025-02-19T16:04:42.072-06:00,0.218241,-0.108337,0.325548,2025-02-19T16:04:42.071-06:00
97.000000,261.153801,2.021479,21.940432,44.935995,288.563800,180.075195,2.647286,3.000000,-93.170315,7.464588,2025-02-19T16:04:44.000-06:00,-0.161616,-0.977590,-0.087388,2025-02-19T16:04:43.067-06:00,0.027641,0.037210,0.130044,2025-02-19T16:04:43.066-06:00
98.000000,261.125261,1.982596,20.636727,44.935925,288.535261,180.075195,2.667758,3.000000,-93.170311,7.780711,2025-02-19T16:04:45.000-06:00,-0.150542,-0.975760,-0.105469,2025-02-19T16:04:44.071-06:00,0.113343,0.051795,-0.001028,2025-02-19T16:04:44.070-06:00
99.000000,261.046912,1.963587,19.307330,44.935849,288.456911,180.075195,2.492507,3.000000,-93.170310,8.193465,2025-02-19T16:04:46.000-06:00,-0.161796,-0.979643,-0.105834,2025-02-19T16:04:45.066-06:00,0.069955,0.007242,-0.005772,2025-02-19T16:04:45.075-06:00
100.000000,261.139402,1.961288,18.695517,44.935772,288.549402,180.075195,2.750536,3.000000,-93.170313,8.478565,2025-02-19T16:04:47.000-06:00,-0.191047,-0.997608,-0.119380,2025-02-19T16:04:46.071-06:00,-0.232625,-0.167315,-0.051667,2025-02-19T16:04:46.070-06:00
101.000000,261.278007,1.920054,17.918982,44.935693,288.688007,180.075195,2.492863,3.000000,-93.170313,8.654817,2025-02-19T16:04:48.000-06:00,-0.192878,-0.954063,-0.098658,2025-02-19T16:04:47.066-06:00,-0.310966,0.256809,0.044778,2025-02-19T16:04:47.075-06:00
102.000000,261.323087,1.932968,18.411984,44.935617,288.733087,180.075195,2.323751,3.000000,-93.170314,8.499084,2025-02-19T16:04:49.000-06:00,-0.212611,-0.974631,-0.100948,2025-02-19T16:04:48.071-06:00,-0.471481,0.060687,0.042070,2025-02-19T16:04:48.069-06:00
103.000000,261.354964,1.953015,18.973020,44.935541,288.764964,180.075195,2.213403,3.000000,-93.170314,8.340001,2025-02-19T16:04:50.000-06:00,-0.204263,-0.970080,-0.108324,2025-02-19T16:04:49.075-06:00,-0.356450,0.094775,0.007622,2025-02-19T16:04:49.074-06:00
104.000000,261.496730,1.944496,19.150916,44.935467,288.906730,180.631439,2.396797,3.000000,-93.170311,8.219934,2025-02-19T16:04:51.000-06:00,-0.206139,-0.966398,-0.111133,2025-02-19T16:04:50.070-06:00,-0.319756,0.124622,-0.069321,2025-02-19T16:04:50.069-06:00
105.000000,261.470005,1.958413,19.316677,44.935393,288.880005,180.631439,2.265565,3.000000,-93.170311,8.212860,2025-02-19T16:04:52.000-06:00,-0.186719,-0.974092,-0.100607,2025-02-19T16:04:51.075-06:00,-0.048695,0.045235,-0.036483,2025-02-19T16:04:51.074-06:00
106.000000,261.484939,1.934728,18.692815,44.935317,288.894939,180.631439,2.177962,3.000000,-93.170311,8.385984,2025-02-19T16:04:53.000-06:00,-0.178229,-0.977124,-0.087867,2025-02-19T16:04:52.070-06:00,0.039221,0.019027,0.052196,2025-02-19T16:04:52.068-06:00
107.000000,261.467135,1.912471,17.998807,44.935239,288.877134,180.631439,2.118048,3.000000,-93.170314,8.608248,2025-02-19T16:04:54.000-06:00,-0.205970,-0.977614,-0.099958,2025-02-19T16:04:53.074-06:00,-0.240009,0.010849,-0.032216,2025-02-19T16:04:53.073-06:00
108.000000,261.571050,1.930509,18.359812,44.935164,288.981050,180.631439,2.430039,3.000000,-93.170311,8.512796,2025-02-19T16:04:55.000-06:00,-0.223368,-0.969558,-0.092958,2025-02-19T16:04:54.069-06:00,-0.459365,0.083576,0.182365,2025-02-19T16:04:54.068-06:00
109.000000,261.646109,1.939764,19.238036,44.935091,289.056109,180.631439,2.526580,3.000000,-93.170309,8.167600,2025-02-19T16:04:56.000-06:00,-0.225729,-0.969318,-0.124636,2025-02-19T16:04:55.074-06:00,-0.436665,0.074555,-0.151277,2025-02-19T16:04:55.073-06:00
110.000000,261.833869,1.964569,20.222443,44.935022,289.243869,180.631439,2.667185,3.000000,-93.170305,7.862953,2025-02-19T16:04:57.000-06:00,-0.346269,-0.935260,-0.145141,2025-02-19T16:04:56.069-06:00,-1.571492,0.398362,-0.327697,2025-02-19T16:04:56.068-06:00
111.000000,261.682824,2.116300,29.582574,44.934973,289.092824,180.631439,2.463060,3.000000,-93.170306,5.795662,2025-02-19T16:04:58.000-06:00,-0.448171,-0.915706,-0.159615,2025-02-19T16:04:57.074-06:00,-2.445898,0.567720,-0.458930,2025-02-19T16:04:57.072-06:00
112.000000,261.679512,2.371173,54.155932,44.934946,289.089512,180.631439,2.828749,3.000000,-93.170305,3.507151,2025-02-19T16:04:59.000-06:00,-0.338871,-0.938116,-0.136937,2025-02-19T16:04:58.068-06:00,-1.215798,0.309889,-0.223370,2025-02-19T16:04:58.067-06:00
113.000000,261.784717,2.706197,82.877356,44.934930,289.194717,179.753693,2.662999,3.000000,-93.170305,2.368692,2025-02-19T16:05:00.000-06:00,-0.186919,-0.948658,-0.117653,2025-02-19T16:04:59.073-06:00,0.270703,0.208572,-0.006312,2025-02-19T16:04:59.072-06:00
114.000000,261.532325,2.774276,85.442455,44.934911,288.942325,179.753693,2.831663,3.000000,-93.170311,2.282940,2025-02-19T16:05:01.000-06:00,-0.231444,-0.982002,-0.107776,2025-02-19T16:05:00.068-06:00,0.136918,-0.194449,0.071874,2025-02-19T16:05:00.067-06:00
115.000000,261.647011,2.604675,87.017440,44.934888,289.057011,179.753693,2.933543,3.000000,-93.170311,2.326616,2025-02-19T16:05:02.000-06:00,-0.170478,-0.983395,-0.093636,2025-02-19T16:05:01.073-06:00,0.736541,-0.201881,0.183530,2025-02-19T16:05:01.071-06:00
116.000000,261.471876,2.633711,70.847062,44.934864,288.881876,179.753693,2.853344,3.000000,-93.170311,2.773859,2025-02-19T16:05:03.000-06:00,-0.132534,-0.987777,-0.094454,2025-02-19T16:05:02.067-06:00,1.059874,-0.234437,0.177790,2025-02-19T16:05:02.066-06:00
117.000000,261.377208,2.525426,52.295014,44.934829,288.787207,179.753693,2.904691,3.000000,-93.170311,3.608964,2025-02-19T16:05:04.000-06:00,-0.118212,-0.990022,-0.086754,2025-02-19T16:05:03.072-06:00,1.114374,-0.229655,0.262374,2025-02-19T16:05:03.071-06:00
118.000000,261.355384,2.429090,40.337881,44.934788,288.765384,179.753693,2.885608,3.000000,-93.170311,4.457683,2025-02-19T16:05:05.000-06:00,-0.123522,-0.987766,-0.090737,2025-02-19T16:05:04.067-06:00,0.984544,-0.196469,0.245713,2025-02-19T16:05:04.066-06:00
119.000000,261.305279,2.261820,32.618300,44.934736,288.715279,179.753693,2.904922,3.000000,-93.170312,5.350282,2025-02-19T16:05:06.000-06:00,-0.126521,-0.991020,-0.089181,2025-02-19T16:05:05.072-06:00,0.912326,-0.214464,0.243657,2025-02-19T16:05:05.070-06:00
120.000000,261.195328,2.114665,27.107700,44.934678,288.605328,179.753693,2.829512,3.000000,-93.170313,6.197318,2025-02-19T16:05:07.000-06:00,-0.174540,-0.980426,-0.089888,2025-02-19T16:05:06.066-06:00,0.415192,-0.105801,0.191463,2025-02-19T16:05:06.075-06:00
121.000000,261.272564,2.090574,25.883608,44.934618,288.682564,179.753693,2.792175,3.000000,-93.170311,6.444266,2025-02-19T16:05:08.000-06:00,-0.223100,-0.969550,-0.111370,2025-02-19T16:05:07.071-06:00,-0.102161,0.020042,-0.031384,2025-02-19T16:05:07.070-06:00
122.000000,261.299783,2.088167,26.691230,44.934562,288.709783,179.753693,2.792175,3.000000,-93.170309,6.280061,2025-02-19T16:05:09.000-06:00,-0.246264,-0.957389,-0.101537,2025-02-19T16:05:08.066-06:00,-0.344839,0.139743,0.004824,2025-02-19T16:05:08.075-06:00
123.000000,261.191415,2.166949,29.946440,44.934512,288.601415,179.753693,2.416793,3.000000,-93.170308,5.727422,2025-02-19T16:05:10.000-06:00,-0.306953,-0.951627,-0.116279,2025-02-19T16:05:09.071-06:00,-0.925108,0.196890,-0.133021,2025-02-19T16:05:09.070-06:00
124.000000,261.136735,2.225499,37.196863,44.934470,288.546735,179.753693,2.277862,3.000000,-93.170309,4.788519,2025-02-19T16:05:10.999-06:00,-0.320134,-0.947222,-0.126779,2025-02-19T16:05:10.066-06:00,-1.051815,0.239002,-0.206674,2025-02-19T16:05:10.074-06:00
125.000000,,,,,,,,,,,,-0.287154,-0.935445,-0.149623,2025-02-19T16:05:11.070-06:00,-0.703324,0.347163,-0.443085,2025-02-19T16:05:11.069-06:00
