seconds_elapsed,location_altitude,location_speedAccuracy,location_bearingAccuracy,location_latitude,location_altitudeAboveMeanSeaLevel,location_bearing,location_horizontalAccuracy,location_verticalAccuracy,location_longitude,location_speed,location_local_time,accelerometerUncalibrated_z,accelerometerUncalibrated_y,accelerometerUncalibrated_x,accelerometerUncalibrated_local_time,accelerometer_z,accelerometer_y,accelerometer_x,accelerometer_local_time
0.000000,250.775576,0.550000,9.226845,44.939021,278.185575,119.882850,4.748652,4.029364,-93.177088,4.830000,2025-03-27T21:56:24.000-05:00,-0.248922,-0.993753,0.071377,2025-03-27T21:56:23.499-05:00,-0.245766,-0.200735,0.215367,2025-03-27T21:56:23.511-05:00
1.000000,251.934511,1.670000,31.764679,44.939004,279.344511,112.500035,4.748652,4.029364,-93.177036,4.260000,2025-03-27T21:56:25.000-05:00,-0.159735,-0.971851,0.043285,2025-03-27T21:56:24.484-05:00,0.410563,0.058234,-0.139310,2025-03-27T21:56:24.486-05:00
2.000000,251.753847,0.910000,15.789273,44.939006,279.163847,90.161171,4.748652,4.029364,-93.176978,4.670000,2025-03-27T21:56:26.000-05:00,-0.111265,-1.001977,0.021365,2025-03-27T21:56:25.488-05:00,0.858499,-0.235043,-0.383959,2025-03-27T21:56:25.491-05:00
3.000000,251.587587,0.360000,7.258975,44.939006,278.997587,90.161171,4.748652,4.029364,-93.176919,4.670000,2025-03-27T21:56:27.000-05:00,-0.121235,-0.997531,0.014911,2025-03-27T21:56:26.483-05:00,0.743675,-0.181522,-0.415114,2025-03-27T21:56:26.486-05:00
4.000000,251.468447,0.410000,7.258975,44.939006,278.878447,90.161171,4.748652,4.029364,-93.176832,5.180000,2025-03-27T21:56:28.000-05:00,-0.126574,-0.995352,-0.000777,2025-03-27T21:56:27.488-05:00,0.661516,-0.155789,-0.542091,2025-03-27T21:56:27.491-05:00
5.000000,251.872868,0.560000,7.258975,44.939005,279.282868,90.161171,4.748652,4.029364,-93.176713,7.490000,2025-03-27T21:56:29.000-05:00,-0.128288,-0.993748,0.006053,2025-03-27T21:56:28.483-05:00,0.599471,-0.131900,-0.475962,2025-03-27T21:56:28.486-05:00
6.000000,251.869146,0.400000,7.258975,44.939005,279.279146,90.161171,4.748652,4.029364,-93.176609,8.110000,2025-03-27T21:56:30.000-05:00,-0.148818,-0.990711,0.021416,2025-03-27T21:56:29.488-05:00,0.366369,-0.101054,-0.385633,2025-03-27T21:56:29.490-05:00
7.000000,252.073308,0.420000,7.258975,44.939005,279.483308,90.161171,4.748652,4.029364,-93.176503,8.110000,2025-03-27T21:56:31.000-05:00,-0.176066,-0.989569,0.017280,2025-03-27T21:56:30.483-05:00,0.082110,-0.084496,-0.438719,2025-03-27T21:56:30.485-05:00
8.000000,251.926520,0.308016,7.258975,44.939005,279.336520,90.161171,4.748652,4.029364,-93.176376,8.840000,2025-03-27T21:56:32.000-05:00,-0.191403,-0.978905,0.011938,2025-03-27T21:56:31.488-05:00,-0.092385,0.027003,-0.461683,2025-03-27T21:56:31.490-05:00
9.000000,253.287706,1.270173,10.820573,44.939013,280.697706,90.161171,2.000000,3.000000,-93.176250,9.509595,2025-03-27T21:56:33.000-05:00,-0.220112,-0.962599,0.000712,2025-03-27T21:56:32.483-05:00,-0.375226,0.188764,-0.500169,2025-03-27T21:56:32.485-05:00
10.000000,253.649594,1.269503,10.478041,44.939014,281.059593,90.075394,2.000000,3.000000,-93.176125,9.812162,2025-03-27T21:56:34.000-05:00,-0.195224,-0.989260,0.014798,2025-03-27T21:56:33.487-05:00,-0.177686,-0.060624,-0.327951,2025-03-27T21:56:33.490-05:00
11.000000,253.837122,1.268964,10.453437,44.939015,281.247121,90.075394,2.075648,3.000000,-93.175999,9.831191,2025-03-27T21:56:35.000-05:00,-0.189291,-0.988346,0.011387,2025-03-27T21:56:34.492-05:00,-0.090807,-0.051381,-0.278740,2025-03-27T21:56:34.485-05:00
12.000000,254.243720,1.270792,10.295833,44.939017,281.653720,90.075394,2.042962,3.000000,-93.175868,9.991629,2025-03-27T21:56:36.000-05:00,-0.202744,-0.971949,-0.002617,2025-03-27T21:56:35.487-05:00,-0.223246,0.114080,-0.348768,2025-03-27T21:56:35.490-05:00
13.000000,254.412182,0.903641,7.258004,44.939004,281.822182,90.075394,2.023565,3.000000,-93.175724,10.327726,2025-03-27T21:56:37.000-05:00,-0.240248,-0.957766,-0.028904,2025-03-27T21:56:36.492-05:00,-0.560394,0.236571,-0.573336,2025-03-27T21:56:36.485-05:00
14.000000,254.529285,0.898897,7.258175,44.939015,281.939285,90.075394,2.013160,3.000000,-93.175594,10.275373,2025-03-27T21:56:38.000-05:00,-0.237529,-0.983589,-0.010276,2025-03-27T21:56:37.487-05:00,-0.549214,0.002239,-0.387364,2025-03-27T21:56:37.489-05:00
15.000000,254.249479,0.914103,7.346009,44.939019,281.659479,90.075394,2.076945,3.000000,-93.175467,10.082863,2025-03-27T21:56:39.000-05:00,-0.212062,-0.975611,-0.007360,2025-03-27T21:56:38.492-05:00,-0.184858,0.039529,-0.303955,2025-03-27T21:56:38.484-05:00
16.000000,254.492666,0.903578,7.400837,44.939012,281.902666,90.075394,2.044266,3.000000,-93.175345,9.892335,2025-03-27T21:56:40.000-05:00,-0.212044,-0.989388,-0.004533,2025-03-27T21:56:39.487-05:00,-0.251188,-0.057759,-0.230286,2025-03-27T21:56:39.489-05:00
17.000000,254.079235,0.913054,7.534148,44.939012,281.489235,90.075394,2.341174,3.000000,-93.175222,9.815273,2025-03-27T21:56:41.000-05:00,-0.188389,-0.960777,0.009246,2025-03-27T21:56:40.492-05:00,-0.026664,0.198553,-0.111344,2025-03-27T21:56:40.484-05:00
18.000000,254.794575,0.902264,7.430567,44.939011,282.204575,90.000000,2.196104,3.000000,-93.175096,9.832528,2025-03-27T21:56:42.000-05:00,-0.247619,-0.976167,0.005022,2025-03-27T21:56:41.487-05:00,-0.502177,0.043713,-0.153905,2025-03-27T21:56:41.489-05:00
19.000000,254.362452,0.903916,7.258732,44.939013,281.772452,90.000000,2.111010,3.000000,-93.174961,10.201038,2025-03-27T21:56:43.000-05:00,-0.232755,-0.970766,-0.011202,2025-03-27T21:56:42.491-05:00,-0.362050,0.089287,-0.260200,2025-03-27T21:56:42.484-05:00
20.000000,256.441340,0.907752,7.650938,44.939003,283.851340,90.000000,4.195660,3.000000,-93.174852,9.499322,2025-03-27T21:56:44.000-05:00,-0.294858,-0.943492,-0.023583,2025-03-27T21:56:43.486-05:00,-0.898702,0.347615,-0.400758,2025-03-27T21:56:43.489-05:00
21.000000,256.867984,0.909301,7.837010,44.939003,284.277984,90.000000,6.952981,3.000000,-93.174738,9.319332,2025-03-27T21:56:45.000-05:00,-0.347297,-0.948349,-0.032202,2025-03-27T21:56:44.491-05:00,-1.350789,0.297754,-0.466479,2025-03-27T21:56:44.484-05:00
22.000000,256.220095,0.908795,8.547768,44.939003,283.630095,90.000000,2.032446,3.000000,-93.174630,8.592828,2025-03-27T21:56:46.000-05:00,-0.353292,-0.941921,-0.027897,2025-03-27T21:56:45.486-05:00,-1.318424,0.329073,-0.403034,2025-03-27T21:56:45.489-05:00
23.000000,254.995458,0.904389,10.004975,44.939011,282.405458,90.000000,2.020248,3.000000,-93.174552,7.303234,2025-03-27T21:56:47.000-05:00,-0.343076,-0.946737,-0.019932,2025-03-27T21:56:46.491-05:00,-1.152403,0.267216,-0.337609,2025-03-27T21:56:46.483-05:00
24.000000,254.530570,0.904365,12.067011,44.939011,281.940569,90.000000,2.105391,3.000000,-93.174491,6.024132,2025-03-27T21:56:48.000-05:00,-0.357511,-0.948175,-0.020710,2025-03-27T21:56:47.486-05:00,-1.183830,0.236001,-0.315182,2025-03-27T21:56:47.488-05:00
25.000000,253.910810,0.917156,13.055092,44.939005,281.320809,90.000000,2.159889,3.000000,-93.174422,5.584384,2025-03-27T21:56:49.000-05:00,-0.365936,-0.935591,-0.022491,2025-03-27T21:56:48.491-05:00,-1.121826,0.309602,-0.277500,2025-03-27T21:56:48.483-05:00
26.000000,253.922370,0.912061,23.844113,44.939008,281.332370,90.000000,2.133241,3.000000,-93.174416,3.013235,2025-03-27T21:56:50.000-05:00,-0.271728,-0.965095,-0.001562,2025-03-27T21:56:49.486-05:00,-0.095316,-0.003008,-0.046705,2025-03-27T21:56:49.488-05:00
27.000000,254.060588,0.942528,43.862430,44.939008,281.470588,90.000000,2.174695,3.000000,-93.174410,1.606792,2025-03-27T21:56:51.000-05:00,-0.152807,-0.987121,0.022969,2025-03-27T21:56:50.490-05:00,1.072084,-0.214549,0.184964,2025-03-27T21:56:50.483-05:00
28.000000,254.838136,1.002215,48.924023,44.939009,282.248136,90.000000,2.238750,3.000000,-93.174395,1.398226,2025-03-27T21:56:52.000-05:00,-0.055962,-1.011235,0.042080,2025-03-27T21:56:51.485-05:00,1.951727,-0.433158,0.362129,2025-03-27T21:56:51.488-05:00
29.000000,255.514763,1.081411,28.286000,44.939007,282.924763,90.000000,2.368453,3.000000,-93.174360,2.250165,2025-03-27T21:56:53.000-05:00,-0.065733,-1.008105,0.041404,2025-03-27T21:56:52.490-05:00,1.816440,-0.394425,0.355291,2025-03-27T21:56:52.483-05:00
30.000000,255.596341,0.661687,11.705026,44.939008,283.006341,90.000000,2.331608,3.000000,-93.174285,4.517924,2025-03-27T21:56:54.000-05:00,-0.118482,-0.995452,0.024315,2025-03-27T21:56:53.485-05:00,1.276438,-0.286320,0.188211,2025-03-27T21:56:53.488-05:00
31.000000,255.537316,0.652775,9.117665,44.939009,282.947316,90.000000,2.343454,3.000000,-93.174202,5.792534,2025-03-27T21:56:55.000-05:00,-0.130748,-0.988042,0.023306,2025-03-27T21:56:54.490-05:00,1.161378,-0.167193,0.177656,2025-03-27T21:56:54.483-05:00
32.000000,255.443606,0.655052,7.920877,44.939011,282.853606,89.699287,2.314677,3.000000,-93.174114,6.697111,2025-03-27T21:56:56.000-05:00,-0.141849,-0.986052,0.025263,2025-03-27T21:56:55.485-05:00,1.045505,-0.172056,0.114622,2025-03-27T21:56:55.487-05:00
33.000000,255.462065,0.654809,7.258967,44.939013,282.872065,89.699287,2.269381,3.000000,-93.174011,7.652299,2025-03-27T21:56:57.000-05:00,-0.149066,-0.993699,0.030240,2025-03-27T21:56:56.490-05:00,0.898175,-0.230599,0.139323,2025-03-27T21:56:56.492-05:00
34.000000,255.395563,0.654109,7.258911,44.939014,282.805563,89.699287,2.208101,3.000000,-93.173900,8.499400,2025-03-27T21:56:58.000-05:00,-0.170210,-0.988408,0.019082,2025-03-27T21:56:57.485-05:00,0.530930,-0.133571,0.047179,2025-03-27T21:56:57.487-05:00
35.000000,255.526830,0.655782,7.258667,44.939013,282.936830,89.699287,2.141708,3.000000,-93.173777,9.329038,2025-03-27T21:56:59.000-05:00,-0.196557,-0.980267,-0.002762,2025-03-27T21:56:58.490-05:00,0.148386,-0.035756,-0.018578,2025-03-27T21:56:58.492-05:00
36.000000,255.051368,0.664032,7.252675,44.939016,282.461368,89.699287,2.089227,3.000000,-93.173656,9.537111,2025-03-27T21:57:00.000-05:00,-0.221252,-0.974581,-0.001422,2025-03-27T21:56:59.484-05:00,-0.086496,0.024357,0.059861,2025-03-27T21:56:59.487-05:00
37.000000,255.157647,0.687003,7.258218,44.939018,282.567647,89.733627,2.055266,3.000000,-93.173532,9.647709,2025-03-27T21:57:01.000-05:00,-0.185404,-0.991085,-0.005334,2025-03-27T21:57:00.489-05:00,0.081929,-0.098145,0.054836,2025-03-27T21:57:00.492-05:00
38.000000,255.767307,0.709472,7.253382,44.939006,283.177307,89.733627,2.289210,3.000000,-93.173395,10.366309,2025-03-27T21:57:02.000-05:00,-0.204270,-0.970664,-0.026804,2025-03-27T21:57:01.484-05:00,-0.086411,0.096467,-0.037241,2025-03-27T21:57:01.487-05:00
39.000000,254.631217,0.774072,7.253327,44.939007,282.041216,89.733627,2.752776,3.000000,-93.173246,11.174659,2025-03-27T21:57:03.000-05:00,-0.227821,-0.998978,-0.017925,2025-03-27T21:57:02.489-05:00,-0.315946,-0.177609,-0.066497,2025-03-27T21:57:02.492-05:00
40.000000,254.911444,0.909974,7.258708,44.939011,282.321443,90.109161,2.482515,3.000000,-93.173120,10.793208,2025-03-27T21:57:04.000-05:00,-0.210356,-0.941538,-0.048140,2025-03-27T21:57:03.484-05:00,-0.255012,0.390796,-0.152839,2025-03-27T21:57:03.486-05:00
41.000000,254.232863,0.914935,7.256196,44.939021,281.642863,90.109161,2.267993,3.000000,-93.172979,11.029025,2025-03-27T21:57:05.000-05:00,-0.248404,-0.986193,-0.040179,2025-03-27T21:57:04.489-05:00,-0.522770,-0.053933,-0.193797,2025-03-27T21:57:04.491-05:00
42.000000,254.216312,0.700156,7.256986,44.939019,281.626311,90.109161,2.153147,3.000000,-93.172867,10.100645,2025-03-27T21:57:06.000-05:00,-0.245396,-0.974959,-0.042542,2025-03-27T21:57:05.484-05:00,-0.580346,0.070755,-0.137318,2025-03-27T21:57:05.486-05:00
43.000000,255.222275,0.694400,7.253683,44.939007,282.632275,90.109161,2.088864,3.000000,-93.172756,9.251368,2025-03-27T21:57:07.000-05:00,-0.254340,-0.971771,-0.041204,2025-03-27T21:57:06.489-05:00,-0.606424,0.085624,-0.085725,2025-03-27T21:57:06.491-05:00
44.000000,254.936863,0.699158,7.258361,44.939014,282.346862,90.109161,2.273017,3.000000,-93.172634,9.461872,2025-03-27T21:57:08.000-05:00,-0.233280,-0.970060,-0.037272,2025-03-27T21:57:07.483-05:00,-0.363503,0.095232,-0.005502,2025-03-27T21:57:07.486-05:00
45.000000,254.487626,0.710958,7.244697,44.939020,281.897626,90.109161,2.163954,3.000000,-93.172536,8.505000,2025-03-27T21:57:09.000-05:00,-0.182814,-0.967690,-0.024389,2025-03-27T21:57:08.488-05:00,0.163516,0.111455,0.160834,2025-03-27T21:57:08.491-05:00
46.000000,255.202259,0.697194,7.258813,44.939016,282.612259,90.109161,2.105850,3.000000,-93.172417,8.919628,2025-03-27T21:57:10.000-05:00,-0.209230,-0.976484,-0.059477,2025-03-27T21:57:09.483-05:00,-0.045438,0.013887,-0.176431,2025-03-27T21:57:09.486-05:00
47.000000,256.035253,0.674714,7.253200,44.939014,283.445253,89.691170,2.100217,3.000000,-93.172296,9.268175,2025-03-27T21:57:11.000-05:00,-0.210680,-0.979552,-0.057503,2025-03-27T21:57:10.488-05:00,-0.119174,-0.002253,-0.141545,2025-03-27T21:57:10.491-05:00
48.000000,256.030480,0.718413,7.258678,44.939014,283.440480,89.691170,2.121718,3.000000,-93.172188,8.751095,2025-03-27T21:57:12.000-05:00,-0.233331,-0.965489,-0.089426,2025-03-27T21:57:11.483-05:00,-0.317779,0.119357,-0.279240,2025-03-27T21:57:11.485-05:00
49.000000,256.857543,0.746810,7.249108,44.939016,284.267543,89.691170,2.078253,3.000000,-93.172074,8.752525,2025-03-27T21:57:13.000-05:00,-0.297826,-0.958157,-0.068082,2025-03-27T21:57:12.488-05:00,-0.890106,0.185732,-0.208378,2025-03-27T21:57:12.490-05:00
50.000000,257.082470,0.725473,7.576656,44.939011,284.492470,89.691170,2.052546,3.000000,-93.171984,7.746019,2025-03-27T21:57:14.000-05:00,-0.264505,-0.952644,-0.057093,2025-03-27T21:57:13.483-05:00,-0.559789,0.243797,-0.155991,2025-03-27T21:57:13.485-05:00
51.000000,257.308878,0.703703,7.721125,44.939009,284.718877,88.184273,2.076913,3.000000,-93.171892,7.349424,2025-03-27T21:57:15.000-05:00,-0.272633,-0.967508,-0.033283,2025-03-27T21:57:14.488-05:00,-0.486557,0.061763,0.092084,2025-03-27T21:57:14.490-05:00
52.000000,257.539424,0.691721,8.381543,44.939010,284.949424,88.184273,2.055019,3.000000,-93.171813,6.678838,2025-03-27T21:57:16.000-05:00,-0.330670,-0.952540,-0.049392,2025-03-27T21:57:15.483-05:00,-1.039318,0.207421,-0.101029,2025-03-27T21:57:15.485-05:00
53.000000,257.033562,0.752592,12.847352,44.939007,284.443562,87.450523,2.216327,3.000000,-93.171765,4.712276,2025-03-27T21:57:17.000-05:00,-0.389117,-0.932364,-0.071526,2025-03-27T21:57:16.487-05:00,-1.515801,0.379734,-0.275151,2025-03-27T21:57:16.490-05:00
54.000000,256.601645,0.749179,15.099120,44.939008,284.011645,87.450523,2.180272,3.000000,-93.171714,3.671467,2025-03-27T21:57:18.000-05:00,-0.383103,-0.932639,-0.063281,2025-03-27T21:57:17.492-05:00,-1.332867,0.346914,-0.221995,2025-03-27T21:57:17.485-05:00
55.000000,257.023096,0.693295,27.786810,44.939008,284.433095,87.450523,2.163034,3.000000,-93.171695,1.983145,2025-03-27T21:57:19.000-05:00,-0.247942,-0.967767,-0.038008,2025-03-27T21:57:18.487-05:00,0.026200,-0.006495,0.005615,2025-03-27T21:57:18.490-05:00
56.000000,258.043465,0.927535,31.066477,44.939010,285.453464,87.450523,2.200589,3.000000,-93.171680,1.357734,2025-03-27T21:57:20.000-05:00,-0.137854,-0.990626,-0.001978,2025-03-27T21:57:19.492-05:00,1.121711,-0.228934,0.280920,2025-03-27T21:57:19.485-05:00
57.000000,258.106101,0.735060,35.885518,44.939013,285.516100,87.450523,2.294255,3.000000,-93.171659,1.484366,2025-03-27T21:57:21.000-05:00,-0.055138,-1.014107,0.010479,2025-03-27T21:57:20.487-05:00,1.870226,-0.443337,0.324908,2025-03-27T21:57:20.489-05:00
58.000000,258.186706,0.702957,19.299812,44.939016,285.596706,87.450523,2.264829,3.000000,-93.171615,2.904316,2025-03-27T21:57:22.000-05:00,-0.093366,-1.005675,0.004708,2025-03-27T21:57:21.492-05:00,1.455512,-0.349422,0.266820,2025-03-27T21:57:21.484-05:00
59.000000,257.942591,0.698262,13.082547,44.939020,285.352591,87.450523,2.240754,3.000000,-93.171549,4.306731,2025-03-27T21:57:23.000-05:00,-0.112351,-0.988901,-0.004144,2025-03-27T21:57:22.487-05:00,1.219221,-0.191736,0.234442,2025-03-27T21:57:22.489-05:00
60.000000,258.214306,0.682715,10.159575,44.939025,285.624306,87.450523,2.220691,3.000000,-93.171471,5.441141,2025-03-27T21:57:24.000-05:00,-0.112694,-0.993304,-0.001423,2025-03-27T21:57:23.492-05:00,1.274728,-0.215933,0.309511,2025-03-27T21:57:23.484-05:00
61.000000,258.062002,0.673366,8.524572,44.939032,285.472002,88.985840,2.214041,3.000000,-93.171385,6.399474,2025-03-27T21:57:25.000-05:00,-0.126664,-1.004447,-0.012974,2025-03-27T21:57:24.486-05:00,1.050344,-0.305144,0.068033,2025-03-27T21:57:24.489-05:00
62.000000,258.371554,0.663335,7.249063,44.939038,285.781554,88.985840,2.193430,3.000000,-93.171281,7.566377,2025-03-27T21:57:26.000-05:00,-0.171830,-0.995079,-0.029684,2025-03-27T21:57:25.491-05:00,0.284557,-0.167354,-0.117102,2025-03-27T21:57:25.484-05:00
63.000000,258.306360,0.663257,7.256466,44.939023,285.716359,90.505760,2.151742,3.000000,-93.171173,8.171527,2025-03-27T21:57:27.000-05:00,-0.210457,-0.986553,-0.033535,2025-03-27T21:57:26.486-05:00,-0.119915,-0.072367,-0.180453,2025-03-27T21:57:26.489-05:00
64.000000,258.351964,0.681705,7.257078,44.939022,285.761964,90.505760,2.109598,3.000000,-93.171068,8.193580,2025-03-27T21:57:28.000-05:00,-0.185303,-0.968294,-0.042614,2025-03-27T21:57:27.491-05:00,0.059533,0.136969,-0.208719,2025-03-27T21:57:27.484-05:00
65.000000,258.343726,0.657999,7.258940,44.939021,285.753726,90.505760,2.076579,3.000000,-93.170958,8.448299,2025-03-27T21:57:29.000-05:00,-0.173630,-0.991450,-0.020691,2025-03-27T21:57:28.486-05:00,0.169007,-0.112369,-0.071818,2025-03-27T21:57:28.488-05:00
66.000000,258.789834,0.663928,7.248061,44.939021,286.199834,90.505760,2.050151,3.000000,-93.170849,8.582954,2025-03-27T21:57:30.000-05:00,-0.191869,-0.980644,-0.016423,2025-03-27T21:57:29.491-05:00,-0.036879,0.026035,-0.004983,2025-03-27T21:57:29.483-05:00
67.000000,258.513175,0.675352,7.257242,44.939021,285.923174,90.000000,2.033490,3.000000,-93.170748,8.267265,2025-03-27T21:57:31.000-05:00,-0.212723,-0.970634,-0.016896,2025-03-27T21:57:30.486-05:00,-0.182168,0.071881,0.022701,2025-03-27T21:57:30.488-05:00
68.000000,258.327312,0.698291,7.258971,44.939029,285.737312,90.000000,2.021822,3.000000,-93.170630,8.716904,2025-03-27T21:57:32.000-05:00,-0.218708,-0.978121,-0.028663,2025-03-27T21:57:31.491-05:00,-0.292068,0.061536,-0.041487,2025-03-27T21:57:31.483-05:00
69.000000,258.610040,0.673161,7.256805,44.939030,286.020039,90.000000,2.088390,3.000000,-93.170510,9.106679,2025-03-27T21:57:33.000-05:00,-0.232861,-0.964837,-0.021209,2025-03-27T21:57:32.485-05:00,-0.408227,0.171792,-0.097874,2025-03-27T21:57:32.488-05:00
70.000000,258.521021,0.676243,7.258918,44.939022,285.931021,90.000000,2.057071,3.000000,-93.170401,8.821139,2025-03-27T21:57:34.000-05:00,-0.280335,-0.969997,-0.026903,2025-03-27T21:57:33.490-05:00,-0.724042,0.079464,-0.178727,2025-03-27T21:57:33.483-05:00
71.000000,259.324046,0.688865,7.245719,44.939030,286.734045,90.000000,2.270486,3.000000,-93.170302,8.137060,2025-03-27T21:57:35.000-05:00,-0.269243,-0.955173,-0.021424,2025-03-27T21:57:34.485-05:00,-0.715909,0.249852,-0.098496,2025-03-27T21:57:34.488-05:00
72.000000,259.252218,0.849848,8.971756,44.939021,286.662218,90.000000,3.705941,3.176208,-93.170205,7.677053,2025-03-27T21:57:36.000-05:00,-0.245232,-0.953275,-0.023833,2025-03-27T21:57:35.490-05:00,-0.337129,0.227800,-0.062684,2025-03-27T21:57:35.483-05:00
73.000000,259.483324,0.744954,8.756242,44.939027,286.893324,90.000000,3.257633,3.224123,-93.170127,6.893931,2025-03-27T21:57:37.000-05:00,-0.249271,-0.976513,-0.073294,2025-03-27T21:57:36.485-05:00,-0.347095,0.004407,-0.546402,2025-03-27T21:57:36.487-05:00
74.000000,259.107435,0.684287,8.546674,44.939027,286.517435,90.000000,2.901856,3.043754,-93.170045,6.483711,2025-03-27T21:57:38.000-05:00,-0.254454,-0.969418,-0.052974,2025-03-27T21:57:37.490-05:00,-0.338303,0.060494,-0.389378,2025-03-27T21:57:37.492-05:00
75.000000,259.119842,0.679965,8.972889,44.939015,286.529842,90.000000,2.713076,3.000000,-93.169968,6.133487,2025-03-27T21:57:39.000-05:00,-0.264033,-0.959090,0.024529,2025-03-27T21:57:38.485-05:00,-0.415195,0.156488,0.282699,2025-03-27T21:57:38.487-05:00
76.000000,259.970091,0.725471,9.798594,44.939010,287.380090,90.000000,2.638237,3.000000,-93.169892,5.961435,2025-03-27T21:57:40.000-05:00,-0.322280,-0.951199,0.032942,2025-03-27T21:57:39.490-05:00,-0.840923,0.198840,0.191915,2025-03-27T21:57:39.492-05:00
77.000000,258.954046,0.690435,11.628664,44.939013,286.364045,90.000000,2.629107,3.000000,-93.169840,4.739067,2025-03-27T21:57:41.000-05:00,-0.289347,-0.956729,0.014968,2025-03-27T21:57:40.484-05:00,-0.552331,0.150824,-0.034733,2025-03-27T21:57:40.487-05:00
78.000000,259.238781,0.682874,13.170478,44.939012,286.648781,90.000000,2.564324,3.000000,-93.169787,4.186329,2025-03-27T21:57:42.000-05:00,-0.350455,-0.942701,0.014756,2025-03-27T21:57:41.489-05:00,-1.035724,0.262316,-0.053979,2025-03-27T21:57:41.492-05:00
79.000000,259.240146,0.684383,19.568295,44.939011,286.650146,90.000000,2.531990,3.000000,-93.169759,2.811831,2025-03-27T21:57:43.000-05:00,-0.335053,-0.947683,-0.005426,2025-03-27T21:57:42.484-05:00,-0.795364,0.190046,-0.186032,2025-03-27T21:57:42.487-05:00
