seconds_elapsed,location_altitude,location_speedAccuracy,location_bearingAccuracy,location_latitude,location_altitudeAboveMeanSeaLevel,location_bearing,location_horizontalAccuracy,location_verticalAccuracy,location_longitude,location_speed,location_local_time,accelerometerUncalibrated_z,accelerometerUncalibrated_y,accelerometerUncalibrated_x,accelerometerUncalibrated_local_time,accelerometer_z,accelerometer_y,accelerometer_x,accelerometer_local_time
0.000000,250.539880,0.643921,9.814445,44.941629,277.949880,181.250960,2.956417,3.000000,-93.177240,5.314909,2025-03-27T21:27:58.999-05:00,-0.165821,-0.986859,-0.017572,2025-03-27T21:27:58.359-05:00,0.532712,-0.117402,0.121497,2025-03-27T21:27:58.361-05:00
1.000000,251.026240,0.725885,9.689371,44.941573,278.436239,180.920856,2.910023,3.000000,-93.177243,6.010364,2025-03-27T21:27:59.999-05:00,-0.164091,-0.985122,-0.011583,2025-03-27T21:27:59.344-05:00,0.616862,-0.113220,0.153510,2025-03-27T21:27:59.346-05:00
2.000000,250.085151,0.891784,11.910025,44.941523,277.495151,184.312956,2.943854,3.000000,-93.177258,6.017959,2025-03-27T21:28:00.999-05:00,-0.152737,-0.994877,0.017862,2025-03-27T21:28:00.339-05:00,0.649424,-0.189026,0.301551,2025-03-27T21:28:00.341-05:00
3.000000,250.687656,0.652166,7.256128,44.941440,278.097655,179.209248,2.802215,3.000000,-93.177244,7.551138,2025-03-27T21:28:01.999-05:00,-0.139610,-0.993139,0.004091,2025-03-27T21:28:01.343-05:00,0.711072,-0.156340,0.165270,2025-03-27T21:28:01.346-05:00
4.000000,250.699715,0.674590,7.257933,44.941362,278.109715,178.529492,2.624075,3.000000,-93.177241,8.370277,2025-03-27T21:28:02.999-05:00,-0.145767,-0.975512,-0.014580,2025-03-27T21:28:02.338-05:00,0.655718,0.017331,0.052343,2025-03-27T21:28:02.341-05:00
5.000000,250.628822,0.656617,7.258938,44.941274,278.038822,179.089171,2.514298,3.000000,-93.177240,9.348707,2025-03-27T21:28:03.999-05:00,-0.160494,-1.017349,-0.015006,2025-03-27T21:28:03.343-05:00,0.526889,-0.395688,0.016397,2025-03-27T21:28:03.346-05:00
6.000000,250.315214,0.677910,7.258706,44.941179,277.725214,179.566039,2.552177,3.000000,-93.177239,10.175959,2025-03-27T21:28:04.999-05:00,-0.191747,-0.960612,0.028416,2025-03-27T21:28:04.338-05:00,0.123821,0.174124,0.107136,2025-03-27T21:28:04.340-05:00
7.000000,251.211526,0.654019,7.250107,44.941087,278.621526,177.772398,2.335321,3.000000,-93.177232,10.365411,2025-03-27T21:28:05.999-05:00,-0.177284,-0.990168,-0.002056,2025-03-27T21:28:05.343-05:00,0.215328,-0.100810,-0.099991,2025-03-27T21:28:05.345-05:00
8.000000,251.040847,0.655481,7.258793,44.940978,278.450847,180.251159,2.192258,3.000000,-93.177238,11.422890,2025-03-27T21:28:06.999-05:00,-0.207496,-0.972384,-0.011567,2025-03-27T21:28:06.338-05:00,-0.128879,0.082215,-0.178711,2025-03-27T21:28:06.340-05:00
9.000000,252.105734,0.693636,7.250290,44.940870,279.515734,183.810779,2.102226,3.000000,-93.177253,11.871796,2025-03-27T21:28:07.999-05:00,-0.224040,-0.968032,-0.000840,2025-03-27T21:28:07.342-05:00,-0.273033,0.126935,-0.097987,2025-03-27T21:28:07.345-05:00
10.000000,251.551906,0.653828,7.258858,44.940772,278.961906,179.154357,2.122313,3.000000,-93.177239,11.537336,2025-03-27T21:28:08.999-05:00,-0.227565,-0.976774,0.008979,2025-03-27T21:28:08.347-05:00,-0.313709,0.034715,-0.000214,2025-03-27T21:28:08.340-05:00
11.000000,251.371139,0.647717,7.258969,44.940663,278.781139,179.806023,2.078767,3.000000,-93.177242,11.844572,2025-03-27T21:28:09.999-05:00,-0.228112,-0.969517,0.004995,2025-03-27T21:28:09.342-05:00,-0.336879,0.099862,0.002824,2025-03-27T21:28:09.345-05:00
12.000000,251.128448,0.645926,7.258772,44.940558,278.538448,180.728510,2.264532,3.000000,-93.177246,11.823615,2025-03-27T21:28:10.999-05:00,-0.237160,-0.976010,-0.003339,2025-03-27T21:28:10.347-05:00,-0.446652,0.065064,0.012087,2025-03-27T21:28:10.339-05:00
13.000000,251.549665,0.639897,7.257945,44.940450,278.959665,179.852753,2.138808,3.000000,-93.177244,11.902866,2025-03-27T21:28:11.999-05:00,-0.245174,-0.962588,-0.019301,2025-03-27T21:28:11.342-05:00,-0.502920,0.180647,-0.067801,2025-03-27T21:28:11.344-05:00
14.000000,251.395791,0.637644,7.258887,44.940345,278.805791,179.567588,2.250958,3.000000,-93.177244,11.749271,2025-03-27T21:28:12.999-05:00,-0.223084,-0.983801,-0.021598,2025-03-27T21:28:12.346-05:00,-0.303278,-0.021985,-0.070166,2025-03-27T21:28:12.339-05:00
15.000000,251.585392,0.637341,7.258690,44.940242,278.995392,180.601763,2.148569,3.000000,-93.177249,11.518864,2025-03-27T21:28:13.999-05:00,-0.218439,-0.985322,-0.015865,2025-03-27T21:28:13.341-05:00,-0.267810,-0.033209,-0.007414,2025-03-27T21:28:13.344-05:00
16.000000,251.755817,0.639936,7.258748,44.940130,279.165817,179.418285,2.990645,3.000000,-93.177247,12.066312,2025-03-27T21:28:14.999-05:00,-0.232641,-0.935483,-0.027377,2025-03-27T21:28:14.346-05:00,-0.423964,0.440476,-0.039637,2025-03-27T21:28:14.339-05:00
17.000000,251.895771,0.638277,7.258912,44.940026,279.305771,179.341860,2.521725,3.000000,-93.177246,11.734514,2025-03-27T21:28:15.999-05:00,-0.271113,-0.970071,-0.054254,2025-03-27T21:28:15.341-05:00,-0.432824,0.049608,-0.235299,2025-03-27T21:28:15.343-05:00
18.000000,251.851001,0.645819,7.258868,44.939920,279.261001,179.372609,2.275163,3.000000,-93.177245,11.662154,2025-03-27T21:28:16.999-05:00,-0.255189,-0.979559,-0.022735,2025-03-27T21:28:16.346-05:00,-0.600268,0.005914,-0.087213,2025-03-27T21:28:16.338-05:00
19.000000,251.963197,0.648321,7.258417,44.939822,279.373197,179.987619,2.147663,3.000000,-93.177246,11.192378,2025-03-27T21:28:17.999-05:00,-0.246490,-0.958000,-0.002702,2025-03-27T21:28:17.341-05:00,-0.383755,0.202496,-0.019753,2025-03-27T21:28:17.343-05:00
20.000000,252.178396,0.644069,7.258252,44.939719,279.588396,180.606955,2.079741,3.000000,-93.177248,11.222282,2025-03-27T21:28:18.999-05:00,-0.222229,-0.974555,-0.006749,2025-03-27T21:28:18.345-05:00,-0.143900,0.028960,-0.012143,2025-03-27T21:28:18.338-05:00
21.000000,251.992541,0.643876,7.258950,44.939617,279.402541,179.992013,2.043281,3.000000,-93.177247,11.336405,2025-03-27T21:28:19.999-05:00,-0.210265,-0.984549,-0.004952,2025-03-27T21:28:19.340-05:00,-0.055279,-0.043378,-0.001229,2025-03-27T21:28:19.343-05:00
22.000000,252.132905,0.643172,7.258535,44.939514,279.542905,179.891833,2.023377,3.000000,-93.177248,11.483073,2025-03-27T21:28:20.999-05:00,-0.215880,-0.977002,0.001408,2025-03-27T21:28:20.345-05:00,-0.065729,-0.005709,0.005122,2025-03-27T21:28:20.338-05:00
23.000000,252.424729,0.646029,7.257755,44.939408,279.834729,180.025208,2.012466,3.000000,-93.177248,11.610710,2025-03-27T21:28:21.999-05:00,-0.216565,-0.969007,0.004467,2025-03-27T21:28:21.340-05:00,-0.044497,0.082819,0.026172,2025-03-27T21:28:21.342-05:00
24.000000,252.468501,0.712792,7.258728,44.939312,279.878501,180.380371,2.238535,3.000000,-93.177250,11.081359,2025-03-27T21:28:22.999-05:00,-0.230018,-0.974303,-0.004307,2025-03-27T21:28:22.345-05:00,-0.153176,0.024132,-0.033511,2025-03-27T21:28:22.347-05:00
25.000000,251.882277,0.863945,7.256165,44.939223,279.292276,181.213980,2.165834,3.000000,-93.177255,10.283280,2025-03-27T21:28:23.999-05:00,-0.236067,-0.972495,-0.018935,2025-03-27T21:28:23.339-05:00,-0.209568,0.040369,-0.112029,2025-03-27T21:28:23.342-05:00
26.000000,251.833664,0.667252,7.258933,44.939093,279.243664,180.946328,2.083759,3.000000,-93.177255,11.900688,2025-03-27T21:28:24.999-05:00,-0.235222,-0.967731,-0.013823,2025-03-27T21:28:24.344-05:00,-0.224576,0.092963,-0.028589,2025-03-27T21:28:24.347-05:00
27.000000,252.130862,0.655790,7.258637,44.938991,279.540861,179.542266,2.044474,3.000000,-93.177250,11.552152,2025-03-27T21:28:25.999-05:00,-0.229964,-0.946949,-0.014810,2025-03-27T21:28:25.339-05:00,-0.059131,0.268457,-0.012355,2025-03-27T21:28:25.342-05:00
28.000000,252.129747,0.670532,7.258952,44.938883,279.539747,179.643837,2.023535,3.000000,-93.177250,11.817315,2025-03-27T21:28:26.999-05:00,-0.234590,-0.992380,0.013895,2025-03-27T21:28:26.344-05:00,-0.095273,-0.175275,0.123122,2025-03-27T21:28:26.346-05:00
29.000000,252.049486,0.645388,7.258958,44.938779,279.459486,180.859794,2.015770,3.000000,-93.177256,11.766433,2025-03-27T21:28:27.999-05:00,-0.217462,-0.979991,-0.006089,2025-03-27T21:28:27.339-05:00,0.000411,-0.038134,0.031539,2025-03-27T21:28:27.341-05:00
30.000000,251.771055,0.652535,7.258066,44.938675,279.181054,178.200336,2.008377,3.000000,-93.177247,11.612444,2025-03-27T21:28:28.999-05:00,-0.215369,-0.973634,0.002566,2025-03-27T21:28:28.344-05:00,0.044714,0.018370,0.052893,2025-03-27T21:28:28.346-05:00
31.000000,250.916019,0.682115,7.247983,44.938570,278.326019,177.336263,2.131161,3.000000,-93.177241,11.592872,2025-03-27T21:28:29.999-05:00,-0.230867,-0.971505,0.005288,2025-03-27T21:28:29.338-05:00,-0.080727,0.032671,0.061455,2025-03-27T21:28:29.341-05:00
32.000000,252.032661,0.659973,7.258737,44.938453,279.442661,181.981330,2.067882,3.000000,-93.177260,12.337514,2025-03-27T21:28:30.999-05:00,-0.231129,-0.976587,-0.005863,2025-03-27T21:28:30.343-05:00,-0.099807,-0.010176,-0.009179,2025-03-27T21:28:30.346-05:00
33.000000,252.156628,0.659240,7.258392,44.938343,279.566628,179.550731,2.035200,3.000000,-93.177251,12.320865,2025-03-27T21:28:31.999-05:00,-0.241139,-0.966551,-0.000513,2025-03-27T21:28:31.338-05:00,-0.180882,0.080909,0.013561,2025-03-27T21:28:31.341-05:00
34.000000,251.657948,0.650660,7.257825,44.938225,279.067948,179.325776,2.017962,3.000000,-93.177249,12.764990,2025-03-27T21:28:32.999-05:00,-0.246463,-0.966703,-0.010851,2025-03-27T21:28:32.343-05:00,-0.222137,0.075407,-0.085308,2025-03-27T21:28:32.345-05:00
35.000000,252.292223,0.680583,7.258421,44.938120,279.702223,179.140547,2.009245,3.000000,-93.177247,12.185362,2025-03-27T21:28:33.999-05:00,-0.240683,-0.969329,-0.008465,2025-03-27T21:28:33.338-05:00,-0.144545,0.046103,-0.077893,2025-03-27T21:28:33.340-05:00
36.000000,252.523107,0.671467,7.258307,44.938015,279.933107,179.786000,2.004840,3.000000,-93.177248,11.750902,2025-03-27T21:28:34.999-05:00,-0.246438,-0.984433,0.006953,2025-03-27T21:28:34.342-05:00,-0.236110,-0.100593,0.011348,2025-03-27T21:28:34.345-05:00
37.000000,252.787962,0.675117,7.257431,44.937911,280.197962,179.647738,2.002554,3.000000,-93.177247,11.525297,2025-03-27T21:28:35.999-05:00,-0.237639,-0.951083,-0.022625,2025-03-27T21:28:35.347-05:00,-0.173408,0.242821,-0.096902,2025-03-27T21:28:35.340-05:00
38.000000,253.961078,0.761067,7.246745,44.937800,281.371078,182.436714,2.001344,3.000000,-93.177258,11.969173,2025-03-27T21:28:36.999-05:00,-0.241291,-0.962134,0.001319,2025-03-27T21:28:36.342-05:00,-0.038367,0.096179,0.074462,2025-03-27T21:28:36.345-05:00
39.000000,253.048104,0.654462,7.258779,44.937696,280.458104,180.307335,2.000714,3.000000,-93.177252,11.844001,2025-03-27T21:28:37.999-05:00,-0.243599,-0.975816,0.006864,2025-03-27T21:28:37.347-05:00,-0.127672,-0.033137,0.057290,2025-03-27T21:28:37.339-05:00
40.000000,252.894174,0.648995,7.258459,44.937592,280.304174,180.210358,2.054719,3.000000,-93.177252,11.619552,2025-03-27T21:28:38.999-05:00,-0.244130,-0.972535,0.004826,2025-03-27T21:28:38.342-05:00,-0.125551,0.004281,0.038515,2025-03-27T21:28:38.344-05:00
41.000000,253.193984,0.644863,7.258903,44.937489,280.603984,179.028895,2.029178,3.000000,-93.177249,11.464763,2025-03-27T21:28:39.999-05:00,-0.230397,-0.976126,-0.003407,2025-03-27T21:28:39.347-05:00,0.016928,-0.033206,-0.053216,2025-03-27T21:28:39.339-05:00
42.000000,252.751960,0.650343,7.258017,44.937375,280.161960,178.099440,2.015342,3.000000,-93.177243,12.205296,2025-03-27T21:28:40.999-05:00,-0.227842,-0.963572,0.001810,2025-03-27T21:28:40.341-05:00,0.054346,0.086943,0.002320,2025-03-27T21:28:40.344-05:00
43.000000,253.307230,0.643467,7.258448,44.937275,280.717230,181.622032,2.008146,3.000000,-93.177254,11.621105,2025-03-27T21:28:41.999-05:00,-0.247129,-0.969370,-0.002957,2025-03-27T21:28:41.346-05:00,-0.143629,0.030410,0.041468,2025-03-27T21:28:41.339-05:00
44.000000,253.728618,0.673856,7.256107,44.937171,281.138617,180.790469,2.004335,3.000000,-93.177252,11.514409,2025-03-27T21:28:42.999-05:00,-0.242543,-0.972280,-0.003950,2025-03-27T21:28:42.341-05:00,-0.097764,0.008347,0.016896,2025-03-27T21:28:42.343-05:00
45.000000,253.635624,0.681755,7.257924,44.937070,281.045624,177.048824,2.012292,3.000000,-93.177237,11.381361,2025-03-27T21:28:43.999-05:00,-0.232991,-0.968150,0.003097,2025-03-27T21:28:43.346-05:00,-0.010196,0.038538,0.094494,2025-03-27T21:28:43.338-05:00
46.000000,253.950491,0.652598,7.257680,44.936962,281.360491,179.369357,2.006508,3.000000,-93.177243,11.620658,2025-03-27T21:28:44.999-05:00,-0.226508,-0.963090,-0.021732,2025-03-27T21:28:44.341-05:00,0.130816,0.074588,-0.007496,2025-03-27T21:28:44.343-05:00
47.000000,253.628283,0.670289,7.258800,44.936856,281.038283,180.293054,2.041810,3.000000,-93.177246,11.720060,2025-03-27T21:28:45.999-05:00,-0.236469,-0.984442,-0.006726,2025-03-27T21:28:45.345-05:00,-0.008265,-0.124788,0.047244,2025-03-27T21:28:45.338-05:00
48.000000,253.922294,0.674741,7.258044,44.936749,281.332293,179.966392,2.022170,3.000000,-93.177244,11.812929,2025-03-27T21:28:46.999-05:00,-0.227998,-0.970215,-0.013929,2025-03-27T21:28:46.340-05:00,0.033928,0.021499,-0.013767,2025-03-27T21:28:46.343-05:00
49.000000,254.094088,0.666065,7.257754,44.936644,281.504088,180.042886,2.011749,3.000000,-93.177244,11.807240,2025-03-27T21:28:47.999-05:00,-0.233124,-0.974413,-0.026521,2025-03-27T21:28:47.345-05:00,-0.010752,-0.013247,-0.072896,2025-03-27T21:28:47.338-05:00
50.000000,253.719400,0.744902,7.258962,44.936532,281.129400,180.237721,3.011261,3.000000,-93.177245,12.203613,2025-03-27T21:28:48.999-05:00,-0.239229,-0.969600,-0.023020,2025-03-27T21:28:48.340-05:00,-0.068263,0.027015,-0.027354,2025-03-27T21:28:48.342-05:00
51.000000,253.153349,0.907125,7.258279,44.936422,280.563349,179.887630,3.013818,3.000000,-93.177244,12.251612,2025-03-27T21:28:49.999-05:00,-0.256921,-0.970774,-0.015391,2025-03-27T21:28:49.345-05:00,-0.303425,0.031029,0.037424,2025-03-27T21:28:49.347-05:00
52.000000,254.018291,0.675164,7.256708,44.936330,281.428291,180.430741,2.550410,3.000000,-93.177248,11.336605,2025-03-27T21:28:50.999-05:00,-0.251647,-0.958050,-0.016023,2025-03-27T21:28:50.340-05:00,-0.190836,0.142676,0.005327,2025-03-27T21:28:50.342-05:00
53.000000,253.755695,0.654563,7.258975,44.936229,281.165695,179.047270,2.295476,3.000000,-93.177245,11.189062,2025-03-27T21:28:51.999-05:00,-0.245774,-0.972919,-0.029740,2025-03-27T21:28:51.344-05:00,-0.140653,-0.003999,-0.081742,2025-03-27T21:28:51.347-05:00
54.000000,254.021976,0.646267,7.258058,44.936127,281.431975,180.152825,2.160009,3.000000,-93.177249,11.253854,2025-03-27T21:28:52.999-05:00,-0.218993,-0.962596,-0.024550,2025-03-27T21:28:52.339-05:00,0.089687,0.107054,-0.013846,2025-03-27T21:28:52.342-05:00
55.000000,254.023030,0.656978,7.258786,44.936030,281.433030,179.028805,2.087250,3.000000,-93.177245,10.922012,2025-03-27T21:28:53.999-05:00,-0.230157,-0.970256,-0.012165,2025-03-27T21:28:53.344-05:00,0.177515,-0.015721,-0.043340,2025-03-27T21:28:53.346-05:00
56.000000,254.238874,1.831097,13.314059,44.935928,281.648874,181.402495,2.073143,3.000000,-93.177254,11.140690,2025-03-27T21:28:54.999-05:00,-0.211839,-0.985796,0.001128,2025-03-27T21:28:54.339-05:00,0.225017,-0.135303,0.117469,2025-03-27T21:28:54.341-05:00
57.000000,253.508086,1.820970,13.024465,44.935825,280.918086,181.879690,2.039570,3.000000,-93.177259,11.312888,2025-03-27T21:28:55.999-05:00,-0.211553,-0.980124,-0.007292,2025-03-27T21:28:55.344-05:00,0.174480,-0.069368,0.123014,2025-03-27T21:28:55.346-05:00
58.000000,253.606361,1.809677,12.444575,44.935717,281.016361,180.923931,2.021190,3.000000,-93.177259,11.775789,2025-03-27T21:28:56.999-05:00,-0.215147,-0.975893,-0.006761,2025-03-27T21:28:56.339-05:00,0.130018,-0.025844,0.167785,2025-03-27T21:28:56.341-05:00
59.000000,253.858257,1.810081,12.344068,44.935609,281.268257,180.482118,2.011169,3.000000,-93.177260,11.880757,2025-03-27T21:28:57.999-05:00,-0.211980,-0.971595,-0.006734,2025-03-27T21:28:57.343-05:00,0.156594,0.016849,0.153592,2025-03-27T21:28:57.346-05:00
60.000000,253.917555,1.787824,12.279392,44.935505,281.327555,178.404175,2.005950,3.000000,-93.177253,11.794908,2025-03-27T21:28:58.999-05:00,-0.221402,-0.977953,-0.008180,2025-03-27T21:28:58.338-05:00,0.067259,-0.044064,0.125477,2025-03-27T21:28:58.341-05:00
61.000000,254.114010,1.760383,11.761304,44.935394,281.524010,178.772410,2.003114,3.000000,-93.177252,12.127970,2025-03-27T21:28:59.999-05:00,-0.214175,-0.976141,-0.017854,2025-03-27T21:28:59.343-05:00,0.118010,-0.021586,0.038681,2025-03-27T21:28:59.345-05:00
62.000000,254.440847,1.771029,11.539280,44.935282,281.850847,178.612073,2.083811,3.000000,-93.177247,12.435428,2025-03-27T21:29:00.999-05:00,-0.227335,-0.985418,-0.011874,2025-03-27T21:29:00.338-05:00,-0.045295,-0.104213,0.049257,2025-03-27T21:29:00.340-05:00
63.000000,254.776577,1.789629,11.754991,44.935172,282.186577,180.000000,2.043368,3.000000,-93.177246,12.330736,2025-03-27T21:29:01.999-05:00,-0.254160,-0.938506,-0.019189,2025-03-27T21:29:01.343-05:00,-0.275403,0.340103,0.054886,2025-03-27T21:29:01.345-05:00
64.000000,254.761712,1.795260,12.024046,44.935064,282.171711,180.247818,2.022509,3.000000,-93.177243,12.098025,2025-03-27T21:29:02.999-05:00,-0.266858,-0.975413,-0.021567,2025-03-27T21:29:02.347-05:00,-0.294293,-0.033123,-0.026292,2025-03-27T21:29:02.340-05:00
65.000000,254.802576,1.789869,12.294662,44.934960,282.212576,180.247818,2.719557,3.000000,-93.177235,11.794800,2025-03-27T21:29:03.999-05:00,-0.240034,-0.965683,-0.029470,2025-03-27T21:29:03.342-05:00,-0.118593,0.077227,-0.066479,2025-03-27T21:29:03.345-05:00
66.000000,254.793777,1.810031,12.497692,44.934854,282.203777,180.247818,2.380178,3.000000,-93.177230,11.734777,2025-03-27T21:29:04.999-05:00,-0.244082,-0.970204,-0.035231,2025-03-27T21:29:04.347-05:00,-0.149132,0.027594,-0.076198,2025-03-27T21:29:04.340-05:00
67.000000,255.125037,1.824631,12.768609,44.934750,282.535037,180.247818,2.573327,3.000000,-93.177228,11.577107,2025-03-27T21:29:05.999-05:00,-0.272342,-0.960675,-0.037208,2025-03-27T21:29:05.342-05:00,-0.399495,0.109075,-0.109242,2025-03-27T21:29:05.344-05:00
68.000000,254.925500,1.795426,13.028612,44.934651,282.335500,180.000000,2.307272,3.000000,-93.177227,11.165829,2025-03-27T21:29:06.999-05:00,-0.332560,-0.947048,-0.042477,2025-03-27T21:29:06.347-05:00,-0.992495,0.254318,-0.149726,2025-03-27T21:29:06.339-05:00
69.000000,255.293445,1.829007,14.806301,44.934565,282.703445,179.934442,2.169991,3.000000,-93.177231,9.991766,2025-03-27T21:29:07.999-05:00,-0.357874,-0.944456,-0.067510,2025-03-27T21:29:07.342-05:00,-1.203045,0.264640,-0.312412,2025-03-27T21:29:07.344-05:00
70.000000,255.330280,1.916651,17.710911,44.934487,282.740280,178.993755,2.097359,3.000000,-93.177229,8.733108,2025-03-27T21:29:08.999-05:00,-0.362295,-0.946811,-0.068637,2025-03-27T21:29:08.346-05:00,-1.234751,0.235990,-0.281265,2025-03-27T21:29:08.339-05:00
