seconds_elapsed,location_altitude,location_speedAccuracy,location_bearingAccuracy,location_latitude,location_altitudeAboveMeanSeaLevel,location_bearing,location_horizontalAccuracy,location_verticalAccuracy,location_longitude,location_speed,location_local_time,accelerometerUncalibrated_z,accelerometerUncalibrated_y,accelerometerUncalibrated_x,accelerometerUncalibrated_local_time,accelerometer_z,accelerometer_y,accelerometer_x,accelerometer_local_time
0.000000,265.344739,2.259958,39.400426,44.934328,292.754739,311.878563,3.301704,3.000000,-93.166983,4.621264,2025-03-27T21:50:53.000-05:00,-0.166477,-0.999119,-0.097099,2025-03-27T21:50:52.989-05:00,0.469549,-0.224188,-0.922156,2025-03-27T21:50:52.992-05:00
1.000000,264.932963,2.238671,37.039140,44.934379,292.342963,340.527503,3.236619,3.000000,-93.166990,4.897339,2025-03-27T21:50:54.000-05:00,-0.120254,-0.994840,-0.005776,2025-03-27T21:50:53.974-05:00,0.668766,-0.114764,-0.222641,2025-03-27T21:50:53.977-05:00
2.000000,265.117276,2.134932,28.915775,44.934440,292.527276,354.665534,3.216104,3.000000,-93.166988,5.950220,2025-03-27T21:50:55.000-05:00,-0.136735,-0.990226,0.031179,2025-03-27T21:50:54.979-05:00,0.522308,-0.088338,0.221690,2025-03-27T21:50:54.972-05:00
3.000000,264.890365,2.054513,24.056223,44.934507,292.300365,357.085752,3.117462,3.000000,-93.166990,6.906997,2025-03-27T21:50:56.000-05:00,-0.118860,-1.002203,0.034608,2025-03-27T21:50:55.974-05:00,0.645256,-0.200990,0.310064,2025-03-27T21:50:55.977-05:00
4.000000,264.823930,1.984261,20.387739,44.934580,292.233930,358.647164,3.084973,3.000000,-93.166988,7.876053,2025-03-27T21:50:57.000-05:00,-0.119248,-0.998806,0.033677,2025-03-27T21:50:56.979-05:00,0.532183,-0.129940,0.366009,2025-03-27T21:50:56.972-05:00
5.000000,264.833800,1.895555,17.102014,44.934663,292.243800,359.947033,2.828167,3.000000,-93.166983,8.960404,2025-03-27T21:50:58.000-05:00,-0.140239,-0.994462,0.013446,2025-03-27T21:50:57.974-05:00,0.288284,-0.096745,0.304908,2025-03-27T21:50:57.976-05:00
6.000000,264.812778,1.848257,14.919677,44.934758,292.222778,0.210497,2.592129,3.000000,-93.166981,10.008824,2025-03-27T21:50:59.000-05:00,-0.164102,-0.986722,0.002303,2025-03-27T21:50:58.979-05:00,0.009884,0.002149,0.227676,2025-03-27T21:50:58.971-05:00
7.000000,264.754697,1.827915,13.818378,44.934858,292.164697,0.046587,2.350954,3.000000,-93.166980,10.693691,2025-03-27T21:51:00.000-05:00,-0.159498,-0.984073,-0.005287,2025-03-27T21:50:59.974-05:00,0.028565,0.024323,0.146653,2025-03-27T21:50:59.976-05:00
8.000000,264.699060,1.813559,13.072237,44.934959,292.109060,359.525460,2.275039,3.000000,-93.166983,11.241082,2025-03-27T21:51:01.000-05:00,-0.186192,-0.990632,0.001308,2025-03-27T21:51:00.979-05:00,-0.260071,-0.034193,0.186626,2025-03-27T21:51:00.971-05:00
9.000000,264.717645,1.777471,12.243473,44.935065,292.127645,359.964602,2.169515,3.000000,-93.166983,11.762746,2025-03-27T21:51:02.000-05:00,-0.195800,-0.967333,-0.014378,2025-03-27T21:51:01.973-05:00,-0.366460,0.191482,0.085701,2025-03-27T21:51:01.976-05:00
10.000000,264.746337,1.779353,12.017123,44.935174,292.156336,0.122061,2.122651,3.000000,-93.166983,11.997316,2025-03-27T21:51:03.000-05:00,-0.212740,-0.986519,-0.001779,2025-03-27T21:51:02.978-05:00,-0.396032,-0.010896,0.047780,2025-03-27T21:51:02.971-05:00
11.000000,264.887864,1.773612,11.831926,44.935285,292.297863,0.494828,2.063790,3.000000,-93.166983,12.146208,2025-03-27T21:51:04.000-05:00,-0.207318,-0.977143,0.009876,2025-03-27T21:51:03.973-05:00,-0.471648,0.096633,0.097280,2025-03-27T21:51:03.976-05:00
12.000000,265.279160,1.745768,11.487352,44.935395,292.689160,0.241547,2.033351,3.000000,-93.166984,12.310453,2025-03-27T21:51:05.000-05:00,-0.202275,-0.979191,0.009370,2025-03-27T21:51:04.978-05:00,-0.420257,0.081009,0.165835,2025-03-27T21:51:04.971-05:00
13.000000,265.148385,1.764391,11.447248,44.935510,292.558385,0.272680,2.017021,3.000000,-93.166981,12.487179,2025-03-27T21:51:06.000-05:00,-0.205359,-0.976977,0.002221,2025-03-27T21:51:05.973-05:00,-0.410838,0.087710,0.160078,2025-03-27T21:51:05.975-05:00
14.000000,265.093453,1.784749,11.434897,44.935625,292.503453,359.940373,2.820076,3.000000,-93.166980,12.645581,2025-03-27T21:51:07.000-05:00,-0.205863,-0.975212,-0.009626,2025-03-27T21:51:06.978-05:00,-0.408201,0.113447,0.024976,2025-03-27T21:51:06.970-05:00
15.000000,264.956455,1.756372,11.120757,44.935742,292.366455,359.809200,2.412914,3.000000,-93.166980,12.795711,2025-03-27T21:51:08.000-05:00,-0.212031,-0.986491,-0.014621,2025-03-27T21:51:07.973-05:00,-0.433904,-0.020190,-0.047049,2025-03-27T21:51:07.975-05:00
16.000000,264.823175,1.751526,11.048416,44.935859,292.233175,359.688284,2.360995,3.000000,-93.166981,12.845320,2025-03-27T21:51:09.000-05:00,-0.221173,-0.965130,0.007087,2025-03-27T21:51:08.978-05:00,-0.425431,0.196629,0.065141,2025-03-27T21:51:08.970-05:00
17.000000,264.596558,1.724730,10.916364,44.935974,292.006558,359.416883,2.181565,3.000000,-93.166982,12.801924,2025-03-27T21:51:10.000-05:00,-0.206741,-0.984023,0.011836,2025-03-27T21:51:09.972-05:00,-0.287071,-0.002309,0.115100,2025-03-27T21:51:09.975-05:00
18.000000,264.577171,1.754266,11.064693,44.936091,291.987171,359.065156,2.091254,3.000000,-93.166984,12.846535,2025-03-27T21:51:11.000-05:00,-0.203429,-0.960407,-0.013213,2025-03-27T21:51:10.977-05:00,-0.184348,0.220925,-0.073380,2025-03-27T21:51:10.970-05:00
19.000000,264.335468,1.748444,10.899025,44.936209,291.745468,359.557387,2.045476,3.000000,-93.166981,12.998380,2025-03-27T21:51:12.000-05:00,-0.201384,-0.993515,0.003380,2025-03-27T21:51:11.972-05:00,-0.158354,-0.107860,0.038261,2025-03-27T21:51:11.975-05:00
20.000000,264.532117,1.720879,10.620158,44.936329,291.942116,359.751985,2.022647,3.000000,-93.166981,13.129439,2025-03-27T21:51:13.000-05:00,-0.184368,-0.983005,0.007429,2025-03-27T21:51:12.977-05:00,-0.003020,0.000165,0.120636,2025-03-27T21:51:12.970-05:00
21.000000,264.696488,1.710952,10.285538,44.936452,292.106488,0.064107,2.011117,3.000000,-93.166979,13.478273,2025-03-27T21:51:14.000-05:00,-0.207625,-0.976146,-0.002510,2025-03-27T21:51:13.972-05:00,-0.188199,0.051291,0.031378,2025-03-27T21:51:13.974-05:00
22.000000,264.880213,1.727401,10.184365,44.936579,292.290213,0.063171,2.005353,3.000000,-93.166978,13.742390,2025-03-27T21:51:15.000-05:00,-0.208393,-0.980771,-0.011972,2025-03-27T21:51:14.977-05:00,-0.193236,0.018474,-0.072097,2025-03-27T21:51:14.979-05:00
23.000000,265.032938,1.711814,10.032477,44.936704,292.442938,0.272201,2.002574,3.000000,-93.166978,13.825483,2025-03-27T21:51:16.000-05:00,-0.215998,-0.981374,-0.006088,2025-03-27T21:51:15.972-05:00,-0.262808,0.004432,-0.024267,2025-03-27T21:51:15.974-05:00
24.000000,265.215196,1.745733,10.209583,44.936828,292.625196,0.561911,2.001240,3.000000,-93.166978,13.853722,2025-03-27T21:51:17.000-05:00,-0.196189,-0.977944,0.006389,2025-03-27T21:51:16.977-05:00,-0.099838,0.045263,0.112652,2025-03-27T21:51:16.979-05:00
25.000000,265.735717,1.722446,10.007112,44.936954,293.145717,0.309320,2.000595,3.000000,-93.166979,13.942196,2025-03-27T21:51:18.000-05:00,-0.208491,-0.967819,-0.005292,2025-03-27T21:51:17.972-05:00,-0.156690,0.131621,-0.010122,2025-03-27T21:51:17.974-05:00
26.000000,265.609214,1.713338,9.799288,44.937082,293.019213,0.405834,2.000282,3.000000,-93.166977,14.165669,2025-03-27T21:51:19.000-05:00,-0.224768,-0.980221,-0.006804,2025-03-27T21:51:18.976-05:00,-0.291963,0.002550,0.020950,2025-03-27T21:51:18.979-05:00
27.000000,265.633017,1.714816,9.788418,44.937210,293.043017,0.554790,2.000134,3.000000,-93.166976,14.194762,2025-03-27T21:51:20.000-05:00,-0.204038,-0.977858,-0.005015,2025-03-27T21:51:19.971-05:00,-0.115220,0.035474,0.050222,2025-03-27T21:51:19.974-05:00
28.000000,265.815950,1.711876,9.664845,44.937342,293.225950,0.506847,2.000062,3.000000,-93.166973,14.349614,2025-03-27T21:51:21.000-05:00,-0.215138,-0.983686,0.000877,2025-03-27T21:51:20.976-05:00,-0.194741,-0.028002,0.021537,2025-03-27T21:51:20.979-05:00
29.000000,266.077076,1.734026,9.701033,44.937471,293.487076,0.565767,3.513180,3.000000,-93.166977,14.478263,2025-03-27T21:51:22.000-05:00,-0.223370,-0.965935,-0.007340,2025-03-27T21:51:21.971-05:00,-0.261832,0.141161,-0.056919,2025-03-27T21:51:21.974-05:00
30.000000,266.360391,1.711856,9.613479,44.937599,293.770391,0.565767,2.711338,3.000000,-93.166980,14.424146,2025-03-27T21:51:23.000-05:00,-0.222276,-0.979459,-0.005254,2025-03-27T21:51:22.976-05:00,-0.230738,0.007022,-0.073602,2025-03-27T21:51:22.978-05:00
31.000000,266.429808,1.720587,9.813191,44.937724,293.839808,0.565767,2.335441,3.000000,-93.166979,14.204284,2025-03-27T21:51:24.000-05:00,-0.219379,-0.966829,0.005813,2025-03-27T21:51:23.971-05:00,-0.165888,0.122733,0.048467,2025-03-27T21:51:23.973-05:00
32.000000,266.879075,1.720011,9.848645,44.937852,294.289074,0.000000,2.249471,3.000000,-93.166978,14.144858,2025-03-27T21:51:25.000-05:00,-0.223298,-0.951970,-0.017340,2025-03-27T21:51:24.976-05:00,-0.150073,0.251315,-0.075504,2025-03-27T21:51:24.978-05:00
33.000000,267.066109,1.702197,9.756993,44.937980,294.476109,0.000000,2.117430,3.000000,-93.166977,14.132295,2025-03-27T21:51:26.000-05:00,-0.222631,-0.954858,-0.011648,2025-03-27T21:51:25.971-05:00,0.029492,0.190677,-0.036234,2025-03-27T21:51:25.973-05:00
34.000000,266.735280,1.721133,9.899245,44.938106,294.145279,0.000000,2.055781,3.000000,-93.166977,14.085868,2025-03-27T21:51:27.000-05:00,-0.233758,-0.979882,-0.001504,2025-03-27T21:51:26.975-05:00,-0.034072,-0.063861,0.032098,2025-03-27T21:51:26.978-05:00
35.000000,266.524439,1.694228,9.696915,44.938234,293.934439,0.435814,2.026293,3.000000,-93.166977,14.154807,2025-03-27T21:51:28.000-05:00,-0.239817,-0.969847,0.014582,2025-03-27T21:51:27.970-05:00,-0.089496,0.031229,0.088739,2025-03-27T21:51:27.973-05:00
36.000000,266.359625,1.714579,9.746841,44.938364,293.769625,0.435814,2.012288,3.000000,-93.166976,14.252222,2025-03-27T21:51:29.000-05:00,-0.234047,-0.962641,0.004448,2025-03-27T21:51:28.975-05:00,-0.029570,0.101336,0.003900,2025-03-27T21:51:28.978-05:00
37.000000,266.262755,1.713749,9.735821,44.938493,293.672755,0.435814,2.005770,3.000000,-93.166975,14.261947,2025-03-27T21:51:30.000-05:00,-0.241329,-0.979320,0.011235,2025-03-27T21:51:29.970-05:00,-0.114785,-0.056676,0.078282,2025-03-27T21:51:29.973-05:00
38.000000,266.011016,1.717447,9.706423,44.938623,293.421016,0.435814,2.002689,3.000000,-93.166974,14.335854,2025-03-27T21:51:31.000-05:00,-0.244610,-0.968860,-0.007763,2025-03-27T21:51:30.975-05:00,-0.155665,0.041716,-0.028462,2025-03-27T21:51:30.977-05:00
39.000000,265.654132,0.306305,7.258858,44.938756,293.064131,0.435814,2.001240,3.000000,-93.166974,14.363081,2025-03-27T21:51:32.000-05:00,-0.267569,-0.971807,-0.009050,2025-03-27T21:51:31.970-05:00,-0.361638,0.013115,-0.060481,2025-03-27T21:51:31.972-05:00
40.000000,265.333354,0.303414,7.258674,44.938884,292.743354,0.435814,2.159081,3.000000,-93.166973,14.166497,2025-03-27T21:51:33.000-05:00,-0.278181,-0.960115,-0.026527,2025-03-27T21:51:32.975-05:00,-0.513982,0.135830,-0.126782,2025-03-27T21:51:32.977-05:00
41.000000,265.194420,0.309359,7.258965,44.939010,292.604419,0.283017,2.074466,3.000000,-93.166975,13.792858,2025-03-27T21:51:34.000-05:00,-0.283510,-0.944025,-0.045268,2025-03-27T21:51:33.970-05:00,-0.490733,0.274524,-0.162981,2025-03-27T21:51:33.972-05:00
42.000000,264.975606,0.288643,7.258503,44.939131,292.385606,0.283017,2.035627,3.000000,-93.166975,13.454908,2025-03-27T21:51:35.000-05:00,-0.326378,-0.949827,-0.054008,2025-03-27T21:51:34.974-05:00,-0.840042,0.197043,-0.201811,2025-03-27T21:51:34.977-05:00
43.000000,264.549652,0.278256,7.258515,44.939241,291.959651,0.225595,2.017890,3.000000,-93.166974,12.637188,2025-03-27T21:51:36.000-05:00,-0.329787,-0.950150,-0.041822,2025-03-27T21:51:35.979-05:00,-0.854418,0.192473,-0.137385,2025-03-27T21:51:35.972-05:00
44.000000,264.278733,0.274215,7.258621,44.939346,291.688732,0.225595,2.009087,3.000000,-93.166971,11.730042,2025-03-27T21:51:37.000-05:00,-0.319484,-0.948855,-0.034700,2025-03-27T21:51:36.974-05:00,-0.698365,0.190641,-0.090771,2025-03-27T21:51:36.977-05:00
45.000000,264.118509,0.290991,7.258854,44.939443,291.528509,359.584442,2.004817,3.000000,-93.166969,10.895672,2025-03-27T21:51:38.000-05:00,-0.316956,-0.957670,-0.028949,2025-03-27T21:51:37.979-05:00,-0.590139,0.086154,-0.063974,2025-03-27T21:51:37.972-05:00
46.000000,264.126812,0.297046,7.258906,44.939536,291.536812,0.000000,2.002633,3.000000,-93.166969,10.175256,2025-03-27T21:51:39.000-05:00,-0.329162,-0.942554,-0.037242,2025-03-27T21:51:38.974-05:00,-0.603180,0.201773,-0.130991,2025-03-27T21:51:38.976-05:00
47.000000,263.827141,0.300427,7.258940,44.939619,291.237141,359.692200,2.001499,3.000000,-93.166970,9.399554,2025-03-27T21:51:40.000-05:00,-0.346416,-0.946718,-0.036956,2025-03-27T21:51:39.979-05:00,-0.722376,0.146084,-0.173868,2025-03-27T21:51:39.971-05:00
48.000000,263.698959,0.302130,7.258956,44.939696,291.108959,359.692200,2.000874,3.000000,-93.166969,8.417448,2025-03-27T21:51:41.000-05:00,-0.358869,-0.941932,-0.038406,2025-03-27T21:51:40.974-05:00,-0.823095,0.189328,-0.175275,2025-03-27T21:51:40.976-05:00
49.000000,263.628136,0.323843,7.258823,44.939761,291.038136,359.692200,2.000534,3.000000,-93.166969,7.364713,2025-03-27T21:51:42.000-05:00,-0.370754,-0.938116,-0.038842,2025-03-27T21:51:41.979-05:00,-0.864722,0.208205,-0.198862,2025-03-27T21:51:41.971-05:00
50.000000,263.504738,0.327560,7.258733,44.939814,290.914738,0.000000,2.000376,3.000000,-93.166968,6.006940,2025-03-27T21:51:43.000-05:00,-0.352914,-0.944731,-0.029591,2025-03-27T21:51:42.973-05:00,-0.654682,0.131492,-0.105621,2025-03-27T21:51:42.976-05:00
51.000000,263.398817,0.328686,7.258554,44.939857,290.808817,0.000000,2.000280,3.000000,-93.166965,4.798962,2025-03-27T21:51:44.000-05:00,-0.339923,-0.948330,-0.036185,2025-03-27T21:51:43.978-05:00,-0.561615,0.102469,-0.085814,2025-03-27T21:51:43.971-05:00
52.000000,263.350332,0.332509,7.803360,44.939891,290.760332,0.000000,2.000224,3.000000,-93.166964,3.801348,2025-03-27T21:51:45.000-05:00,-0.342378,-0.945399,-0.040948,2025-03-27T21:51:44.973-05:00,-0.555188,0.120488,-0.096484,2025-03-27T21:51:44.976-05:00
53.000000,263.300744,0.328086,9.421318,44.939916,290.710744,0.000000,2.000187,3.000000,-93.166963,2.717575,2025-03-27T21:51:46.000-05:00,-0.321402,-0.952134,-0.036195,2025-03-27T21:51:45.978-05:00,-0.331159,0.051767,-0.047326,2025-03-27T21:51:45.971-05:00
54.000000,263.379263,0.319772,14.645544,44.939932,290.789263,0.000000,2.000160,3.000000,-93.166962,1.703131,2025-03-27T21:51:47.000-05:00,-0.294905,-0.957279,-0.030210,2025-03-27T21:51:46.973-05:00,-0.039937,-0.010527,0.007079,2025-03-27T21:51:46.975-05:00
55.000000,263.424987,0.312492,24.451875,44.939942,290.834987,0.000000,2.000140,3.000000,-93.166960,1.020119,2025-03-27T21:51:48.000-05:00,-0.285837,-0.959764,-0.027235,2025-03-27T21:51:47.978-05:00,0.066399,-0.038341,0.022401,2025-03-27T21:51:47.970-05:00
56.000000,263.458348,0.310270,50.533414,44.939946,290.868348,0.000000,2.031433,3.000000,-93.166960,0.493641,2025-03-27T21:51:49.000-05:00,-0.266512,-0.963847,-0.022846,2025-03-27T21:51:48.973-05:00,0.240387,-0.075070,0.057601,2025-03-27T21:51:48.975-05:00
57.000000,263.486708,0.310566,180.000000,44.939947,290.896708,0.000000,2.104417,3.000000,-93.166960,0.072171,2025-03-27T21:51:50.000-05:00,-0.239355,-0.970959,-0.017028,2025-03-27T21:51:49.978-05:00,0.454042,-0.126045,0.100333,2025-03-27T21:51:49.970-05:00
58.000000,263.528942,0.310811,180.000000,44.939948,290.938942,0.000000,2.094924,3.000000,-93.166959,0.060020,2025-03-27T21:51:51.000-05:00,-0.238490,-0.970845,-0.017513,2025-03-27T21:51:50.973-05:00,0.447012,-0.121958,0.088524,2025-03-27T21:51:50.975-05:00
59.000000,263.553986,0.310625,180.000000,44.939948,290.963985,0.000000,2.121286,3.000000,-93.166958,0.042157,2025-03-27T21:51:52.000-05:00,-0.238682,-0.970762,-0.017609,2025-03-27T21:51:51.977-05:00,0.452699,-0.123036,0.096542,2025-03-27T21:51:51.970-05:00
60.000000,263.691316,0.312268,180.000000,44.939949,291.101315,0.000000,2.154240,3.000000,-93.166957,0.045813,2025-03-27T21:51:53.000-05:00,-0.238383,-0.970680,-0.017199,2025-03-27T21:51:52.972-05:00,0.450683,-0.121801,0.097191,2025-03-27T21:51:52.975-05:00
61.000000,263.744050,0.311895,180.000000,44.939951,291.154050,0.000000,2.217846,3.000000,-93.166957,0.034579,2025-03-27T21:51:54.000-05:00,-0.238723,-0.970775,-0.017443,2025-03-27T21:51:53.977-05:00,0.437022,-0.116206,0.090330,2025-03-27T21:51:53.970-05:00
62.000000,263.876038,0.310691,180.000000,44.939952,291.286038,0.000000,2.233188,3.000000,-93.166957,0.040475,2025-03-27T21:51:55.000-05:00,-0.238469,-0.970746,-0.017281,2025-03-27T21:51:54.972-05:00,0.413118,-0.110904,0.087623,2025-03-27T21:51:54.975-05:00
63.000000,263.959915,0.310533,180.000000,44.939954,291.369914,0.000000,2.229123,3.000000,-93.166957,0.021604,2025-03-27T21:51:56.000-05:00,-0.238819,-0.970670,-0.017560,2025-03-27T21:51:55.977-05:00,0.381290,-0.101672,0.080995,2025-03-27T21:51:55.979-05:00
64.000000,264.045872,0.310677,180.000000,44.939955,291.455872,0.000000,2.250553,3.000000,-93.166957,0.021529,2025-03-27T21:51:57.000-05:00,-0.238710,-0.970794,-0.016818,2025-03-27T21:51:56.972-05:00,0.351253,-0.092719,0.079794,2025-03-27T21:51:56.974-05:00
65.000000,264.151653,0.310548,180.000000,44.939957,291.561653,0.000000,2.275411,3.000000,-93.166958,0.029415,2025-03-27T21:51:58.000-05:00,-0.238469,-0.970799,-0.017366,2025-03-27T21:51:57.977-05:00,0.319399,-0.083512,0.069190,2025-03-27T21:51:57.979-05:00
66.000000,264.154897,0.307913,180.000000,44.939957,291.564897,0.000000,2.282410,3.000000,-93.166958,0.000000,2025-03-27T21:51:59.000-05:00,-0.238551,-0.970622,-0.017615,2025-03-27T21:51:58.972-05:00,0.285130,-0.073207,0.061233,2025-03-27T21:51:58.974-05:00
67.000000,264.154897,0.307913,180.000000,44.939957,291.564897,0.000000,2.278324,3.000000,-93.166958,0.000000,2025-03-27T21:52:00.000-05:00,-0.238715,-0.970766,-0.017242,2025-03-27T21:51:59.976-05:00,0.253199,-0.065644,0.058606,2025-03-27T21:51:59.979-05:00
68.000000,264.154897,0.307913,180.000000,44.939957,291.564897,0.000000,2.270385,3.000000,-93.166958,0.000000,2025-03-27T21:52:01.000-05:00,-0.238869,-0.970798,-0.016982,2025-03-27T21:52:00.971-05:00,0.224733,-0.057567,0.056534,2025-03-27T21:52:00.974-05:00
69.000000,264.154897,0.307913,180.000000,44.939957,291.564897,0.000000,2.256866,3.000000,-93.166958,0.000000,2025-03-27T21:52:02.000-05:00,-0.238605,-0.970871,-0.017285,2025-03-27T21:52:01.976-05:00,0.199944,-0.051096,0.047941,2025-03-27T21:52:01.979-05:00
70.000000,264.154897,0.307913,180.000000,44.939957,291.564897,0.000000,2.251915,3.000000,-93.166958,0.000000,2025-03-27T21:52:03.000-05:00,-0.238407,-0.970748,-0.017535,2025-03-27T21:52:02.971-05:00,0.179871,-0.043378,0.039621,2025-03-27T21:52:02.974-05:00
71.000000,264.154897,0.307913,180.000000,44.939957,291.564897,0.000000,2.308402,3.000000,-93.166958,0.000000,2025-03-27T21:52:04.000-05:00,-0.238675,-0.970739,-0.017266,2025-03-27T21:52:03.976-05:00,0.158539,-0.039177,0.038961,2025-03-27T21:52:03.978-05:00
72.000000,264.154897,0.307913,180.000000,44.939957,291.564897,0.000000,2.292982,3.000000,-93.166958,0.000000,2025-03-27T21:52:05.000-05:00,-0.238623,-0.970708,-0.017472,2025-03-27T21:52:04.971-05:00,0.143036,-0.034701,0.034300,2025-03-27T21:52:04.973-05:00
73.000000,264.154897,0.307913,180.000000,44.939957,291.564897,0.000000,2.278333,3.000000,-93.166958,0.000000,2025-03-27T21:52:06.000-05:00,-0.238691,-0.970809,-0.017082,2025-03-27T21:52:05.976-05:00,0.127890,-0.031302,0.037547,2025-03-27T21:52:05.978-05:00
74.000000,264.154897,0.307913,180.000000,44.939957,291.564897,0.000000,2.264416,3.000000,-93.166958,0.000000,2025-03-27T21:52:07.000-05:00,-0.238685,-0.970604,-0.017382,2025-03-27T21:52:06.971-05:00,0.115950,-0.026588,0.031040,2025-03-27T21:52:06.973-05:00
75.000000,264.154897,0.307913,180.000000,44.939957,291.564897,0.000000,2.281393,3.000000,-93.166958,0.000000,2025-03-27T21:52:08.000-05:00,-0.226940,-0.972774,-0.015096,2025-03-27T21:52:07.975-05:00,0.218872,-0.044872,0.049472,2025-03-27T21:52:07.978-05:00
76.000000,264.154897,0.307913,180.000000,44.939957,291.564897,0.000000,2.277060,3.000000,-93.166958,0.000000,2025-03-27T21:52:09.000-05:00,-0.172429,-0.986697,-0.003781,2025-03-27T21:52:08.970-05:00,0.719366,-0.171825,0.148142,2025-03-27T21:52:08.973-05:00
77.000000,264.775623,0.310389,67.589732,44.939966,292.185623,0.000000,2.271481,3.000000,-93.166961,0.369057,2025-03-27T21:52:10.000-05:00,-0.007855,-1.023315,0.031870,2025-03-27T21:52:09.975-05:00,2.225980,-0.503915,0.458585,2025-03-27T21:52:09.978-05:00
78.000000,264.744641,0.335147,13.134615,44.939982,292.154640,0.000000,2.257907,3.000000,-93.166961,1.898444,2025-03-27T21:52:11.000-05:00,-0.082954,-1.009622,0.020465,2025-03-27T21:52:10.970-05:00,1.367720,-0.340162,0.275806,2025-03-27T21:52:10.973-05:00
79.000000,264.598278,0.339434,7.256901,44.940019,292.008277,0.000000,2.248597,3.000000,-93.166960,3.856123,2025-03-27T21:52:12.000-05:00,-0.113271,-1.001072,0.031290,2025-03-27T21:52:11.975-05:00,0.897457,-0.217770,0.298490,2025-03-27T21:52:11.977-05:00
80.000000,264.544061,0.349680,7.257098,44.940067,291.954060,0.000000,2.236168,3.000000,-93.166960,5.245700,2025-03-27T21:52:13.000-05:00,-0.093919,-0.999795,0.000016,2025-03-27T21:52:12.970-05:00,0.957804,-0.177564,0.148795,2025-03-27T21:52:12.972-05:00
81.000000,264.400076,0.349944,7.257202,44.940124,291.810076,0.000000,2.224359,3.000000,-93.166958,6.329310,2025-03-27T21:52:14.000-05:00,-0.109688,-0.973117,-0.002148,2025-03-27T21:52:13.975-05:00,0.868515,0.063638,0.153754,2025-03-27T21:52:13.977-05:00
82.000000,264.100142,0.323050,7.258877,44.940192,291.510142,0.195505,2.209574,3.000000,-93.166959,7.614300,2025-03-27T21:52:15.000-05:00,-0.110471,-1.008901,0.010195,2025-03-27T21:52:14.970-05:00,0.869792,-0.280841,0.129807,2025-03-27T21:52:14.972-05:00
83.000000,263.665583,0.291514,7.258857,44.940270,291.075583,0.195505,2.178713,3.000000,-93.166958,8.881028,2025-03-27T21:52:16.000-05:00,-0.121392,-1.008012,0.013804,2025-03-27T21:52:15.975-05:00,0.599032,-0.245272,0.097868,2025-03-27T21:52:15.977-05:00
84.000000,263.503219,0.301925,7.258962,44.940361,290.913218,0.195505,2.130503,3.000000,-93.166957,10.152736,2025-03-27T21:52:17.000-05:00,-0.150739,-0.994224,0.010717,2025-03-27T21:52:16.979-05:00,0.260037,-0.099285,0.052159,2025-03-27T21:52:16.972-05:00
85.000000,263.242227,0.283975,7.258840,44.940462,290.652227,0.195505,2.081982,3.000000,-93.166955,11.263372,2025-03-27T21:52:18.000-05:00,-0.172348,-0.985006,-0.001706,2025-03-27T21:52:17.974-05:00,0.029909,0.021649,-0.013373,2025-03-27T21:52:17.977-05:00
86.000000,263.066814,0.281806,7.258773,44.940568,290.476814,0.195505,2.524508,3.000000,-93.166953,12.027551,2025-03-27T21:52:19.000-05:00,-0.208804,-0.964677,-0.005444,2025-03-27T21:52:18.979-05:00,-0.323681,0.164548,-0.088751,2025-03-27T21:52:18.972-05:00
87.000000,262.833905,0.279967,7.258679,44.940678,290.243905,0.195505,2.330999,3.000000,-93.166953,12.410081,2025-03-27T21:52:20.000-05:00,-0.247844,-0.975664,0.040942,2025-03-27T21:52:19.974-05:00,-0.619214,0.067623,0.163274,2025-03-27T21:52:19.977-05:00
88.000000,262.663806,0.280973,7.258476,44.940793,290.073806,359.438293,2.410604,3.000000,-93.166954,12.432660,2025-03-27T21:52:21.000-05:00,-0.229692,-0.978397,0.019201,2025-03-27T21:52:20.979-05:00,-0.490578,0.051226,-0.007085,2025-03-27T21:52:20.971-05:00
89.000000,262.435101,0.266937,7.257818,44.940907,289.845101,359.107178,2.914771,3.000000,-93.166960,12.691632,2025-03-27T21:52:22.000-05:00,-0.233738,-0.970843,0.010006,2025-03-27T21:52:21.974-05:00,-0.506952,0.122092,-0.110564,2025-03-27T21:52:21.976-05:00
90.000000,262.277245,0.277864,7.258267,44.941022,289.687245,0.206407,2.464666,3.000000,-93.166963,12.887673,2025-03-27T21:52:23.000-05:00,-0.236021,-0.969186,-0.002354,2025-03-27T21:52:22.979-05:00,-0.484991,0.121604,-0.218378,2025-03-27T21:52:22.971-05:00
91.000000,262.101496,0.283144,7.258171,44.941135,289.511495,0.206407,2.236274,3.000000,-93.166965,12.722122,2025-03-27T21:52:24.000-05:00,-0.260274,-0.994251,0.007002,2025-03-27T21:52:23.974-05:00,-0.707461,-0.128535,-0.186778,2025-03-27T21:52:23.976-05:00
92.000000,261.983361,0.288780,7.258339,44.941248,289.393361,0.206407,2.120047,3.000000,-93.166965,12.639370,2025-03-27T21:52:25.000-05:00,-0.242940,-0.916803,-0.007007,2025-03-27T21:52:24.978-05:00,-0.565553,0.637184,-0.150580,2025-03-27T21:52:24.971-05:00
93.000000,262.180510,0.322927,7.258649,44.941360,289.590510,0.000000,2.060887,3.000000,-93.166964,12.269385,2025-03-27T21:52:26.000-05:00,-0.325011,-1.078655,0.014329,2025-03-27T21:52:25.973-05:00,-1.177875,-0.970017,-0.127597,2025-03-27T21:52:25.976-05:00
