seconds_elapsed,location_altitude,location_speedAccuracy,location_bearingAccuracy,location_latitude,location_altitudeAboveMeanSeaLevel,location_bearing,location_horizontalAccuracy,location_verticalAccuracy,location_longitude,location_speed,location_local_time,accelerometerUncalibrated_z,accelerometerUncalibrated_y,accelerometerUncalibrated_x,accelerometerUncalibrated_local_time,accelerometer_z,accelerometer_y,accelerometer_x,accelerometer_local_time
0.000000,262.660640,2.366399,50.446671,44.941246,290.070640,119.111315,3.001953,3.000000,-93.167090,3.767554,2025-03-27T21:46:17.999-05:00,-0.164715,-0.993418,-0.175039,2025-03-27T21:46:17.296-05:00,0.363486,-0.128442,-1.577200,2025-03-27T21:46:17.304-05:00
1.000000,262.686915,2.291168,41.705351,44.941199,290.096915,145.682074,2.943015,3.000000,-93.167066,4.418445,2025-03-27T21:46:18.999-05:00,-0.131736,-0.987802,-0.129425,2025-03-27T21:46:18.291-05:00,0.437563,-0.055221,-1.211106,2025-03-27T21:46:18.289-05:00
2.000000,262.944978,2.214903,34.566433,44.941147,290.354978,168.995263,2.895283,3.000000,-93.167065,5.175571,2025-03-27T21:46:19.999-05:00,-0.108954,-1.002875,-0.008826,2025-03-27T21:46:19.286-05:00,0.643283,-0.157826,-0.136988,2025-03-27T21:46:19.284-05:00
3.000000,263.256516,2.119442,27.235631,44.941089,290.666515,181.253586,2.890057,3.000000,-93.167065,6.250211,2025-03-27T21:46:20.999-05:00,-0.120557,-0.997186,0.012010,2025-03-27T21:46:20.291-05:00,0.525234,-0.127632,0.152082,2025-03-27T21:46:20.289-05:00
4.000000,263.267597,2.058608,22.911904,44.941023,290.677597,181.253586,2.821747,3.000000,-93.167064,7.170666,2025-03-27T21:46:22.000-05:00,-0.129152,-0.994419,0.028468,2025-03-27T21:46:21.286-05:00,0.402016,-0.089516,0.356505,2025-03-27T21:46:21.284-05:00
5.000000,263.189690,1.993913,19.877714,44.940951,290.599690,180.861191,2.710525,3.000000,-93.167067,8.010678,2025-03-27T21:46:23.000-05:00,-0.155669,-0.992084,0.013477,2025-03-27T21:46:22.291-05:00,0.106790,-0.062731,0.225620,2025-03-27T21:46:22.288-05:00
6.000000,263.353804,1.995937,17.984786,44.940874,290.763804,180.861191,2.545576,3.000000,-93.167067,8.578544,2025-03-27T21:46:24.000-05:00,-0.195480,-0.978815,0.022392,2025-03-27T21:46:23.286-05:00,-0.268068,0.075675,0.214197,2025-03-27T21:46:23.283-05:00
7.000000,263.366867,1.975054,17.167345,44.940793,290.776867,180.112579,2.374711,3.000000,-93.167067,8.810851,2025-03-27T21:46:25.000-05:00,-0.198677,-0.978053,0.013049,2025-03-27T21:46:24.291-05:00,-0.338956,0.075632,0.154824,2025-03-27T21:46:24.288-05:00
8.000000,263.606273,2.025922,16.654392,44.940713,291.016273,180.112579,2.244187,3.000000,-93.167065,8.897316,2025-03-27T21:46:26.000-05:00,-0.246280,-0.969680,0.007792,2025-03-27T21:46:25.286-05:00,-0.753278,0.145996,0.088314,2025-03-27T21:46:25.283-05:00
9.000000,263.784765,1.988986,17.808082,44.940637,291.194765,180.112579,2.328548,3.000000,-93.167066,8.621192,2025-03-27T21:46:27.000-05:00,-0.253259,-0.967428,0.012695,2025-03-27T21:46:26.290-05:00,-0.837542,0.190946,0.066636,2025-03-27T21:46:26.288-05:00
10.000000,263.785763,2.013115,18.916213,44.940564,291.195763,180.112579,2.221641,3.000000,-93.167066,8.219687,2025-03-27T21:46:28.000-05:00,-0.256371,-0.965549,0.000546,2025-03-27T21:46:27.285-05:00,-0.743780,0.179753,0.024877,2025-03-27T21:46:27.283-05:00
11.000000,263.909832,2.045971,19.772784,44.940492,291.319832,180.112579,2.263988,3.000000,-93.167067,7.940323,2025-03-27T21:46:29.000-05:00,-0.262193,-0.966516,0.005305,2025-03-27T21:46:28.290-05:00,-0.802444,0.165213,0.074924,2025-03-27T21:46:28.288-05:00
12.000000,264.036297,2.036793,20.962784,44.940423,291.446296,180.112579,2.383377,3.000000,-93.167061,7.592706,2025-03-27T21:46:30.000-05:00,-0.308056,-0.955472,-0.017424,2025-03-27T21:46:29.285-05:00,-1.151370,0.259819,-0.115457,2025-03-27T21:46:29.283-05:00
13.000000,264.287038,2.232890,24.335598,44.940368,291.697038,180.112579,2.271280,3.000000,-93.167065,6.575366,2025-03-27T21:46:31.000-05:00,-0.328850,-0.950007,-0.018982,2025-03-27T21:46:30.290-05:00,-1.310924,0.302209,-0.127746,2025-03-27T21:46:30.288-05:00
14.000000,264.269319,2.428889,29.237361,44.940319,291.679319,179.591095,2.198140,3.000000,-93.167066,5.499790,2025-03-27T21:46:32.000-05:00,-0.350234,-0.942499,-0.021435,2025-03-27T21:46:31.285-05:00,-1.457330,0.356493,-0.137412,2025-03-27T21:46:31.283-05:00
15.000000,264.193683,2.836047,37.223375,44.940283,291.603683,179.591095,2.158512,3.000000,-93.167068,4.230581,2025-03-27T21:46:33.000-05:00,-0.364313,-0.942969,-0.026416,2025-03-27T21:46:32.290-05:00,-1.486207,0.334043,-0.161888,2025-03-27T21:46:32.287-05:00
16.000000,264.398050,3.527318,46.278002,44.940259,291.808050,179.591095,2.132093,3.000000,-93.167072,2.877307,2025-03-27T21:46:34.000-05:00,-0.350817,-0.944996,-0.028445,2025-03-27T21:46:33.285-05:00,-1.224641,0.286490,-0.141739,2025-03-27T21:46:33.292-05:00
17.000000,264.464291,4.084558,56.766559,44.940246,291.874290,179.591095,2.113223,3.000000,-93.167072,1.613937,2025-03-27T21:46:35.000-05:00,-0.313771,-0.953531,-0.018636,2025-03-27T21:46:34.290-05:00,-0.744753,0.171944,-0.031911,2025-03-27T21:46:34.287-05:00
18.000000,264.507167,3.778208,180.000000,44.940244,291.917167,179.591095,2.099070,3.000000,-93.167075,0.556035,2025-03-27T21:46:36.000-05:00,-0.253098,-0.967590,-0.009707,2025-03-27T21:46:35.285-05:00,-0.126826,0.028921,0.068028,2025-03-27T21:46:35.292-05:00
19.000000,264.398505,3.734660,180.000000,44.940246,291.808504,179.591095,2.088062,3.000000,-93.167075,0.135162,2025-03-27T21:46:37.000-05:00,-0.211262,-0.977147,-0.002015,2025-03-27T21:46:36.290-05:00,0.311024,-0.070985,0.139513,2025-03-27T21:46:36.287-05:00
20.000000,264.179421,3.728137,180.000000,44.940250,291.589421,179.591095,2.079256,3.000000,-93.167070,0.043500,2025-03-27T21:46:38.000-05:00,-0.212126,-0.977197,-0.001107,2025-03-27T21:46:37.284-05:00,0.306434,-0.071996,0.140834,2025-03-27T21:46:37.292-05:00
21.000000,264.124298,3.736690,180.000000,44.940250,291.534298,179.591095,2.073766,3.000000,-93.167068,0.047707,2025-03-27T21:46:39.000-05:00,-0.211778,-0.977119,-0.001997,2025-03-27T21:46:38.289-05:00,0.307860,-0.071223,0.124863,2025-03-27T21:46:38.287-05:00
22.000000,264.237579,3.732581,180.000000,44.940247,291.647579,179.591095,2.067619,3.000000,-93.167069,0.060998,2025-03-27T21:46:40.000-05:00,-0.211946,-0.977358,-0.001308,2025-03-27T21:46:39.284-05:00,0.294868,-0.069531,0.122672,2025-03-27T21:46:39.292-05:00
23.000000,264.269788,3.739512,180.000000,44.940245,291.679788,179.591095,2.062417,3.000000,-93.167070,0.071792,2025-03-27T21:46:41.000-05:00,-0.211960,-0.977095,-0.001557,2025-03-27T21:46:40.289-05:00,0.268576,-0.061756,0.110104,2025-03-27T21:46:40.287-05:00
24.000000,264.175553,3.733833,180.000000,44.940246,291.585552,179.591095,2.073615,3.000000,-93.167068,0.061817,2025-03-27T21:46:42.000-05:00,-0.212121,-0.976947,-0.001558,2025-03-27T21:46:41.284-05:00,0.250522,-0.055813,0.100091,2025-03-27T21:46:41.291-05:00
25.000000,264.111137,3.725436,180.000000,44.940245,291.521137,179.591095,2.114568,3.000000,-93.167068,0.000000,2025-03-27T21:46:43.000-05:00,-0.211913,-0.977133,-0.001530,2025-03-27T21:46:42.289-05:00,0.226415,-0.051778,0.099295,2025-03-27T21:46:42.286-05:00
26.000000,264.111137,3.718890,180.000000,44.940245,291.521137,179.591095,2.160323,3.000000,-93.167068,0.000000,2025-03-27T21:46:44.000-05:00,-0.185022,-0.983450,0.003405,2025-03-27T21:46:43.284-05:00,0.463435,-0.104869,0.134346,2025-03-27T21:46:43.291-05:00
27.000000,264.441045,3.764137,180.000000,44.940238,291.851045,179.591095,2.151038,3.000000,-93.167073,0.309174,2025-03-27T21:46:45.000-05:00,-0.122795,-0.996778,0.015434,2025-03-27T21:46:44.289-05:00,1.015381,-0.224889,0.247185,2025-03-27T21:46:44.286-05:00
28.000000,264.511101,3.760899,180.000000,44.940225,291.921100,179.591095,2.165334,3.000000,-93.167073,1.121253,2025-03-27T21:46:46.000-05:00,-0.058024,-1.011721,0.027850,2025-03-27T21:46:45.284-05:00,1.564579,-0.349117,0.360694,2025-03-27T21:46:45.291-05:00
29.000000,264.701341,2.597608,82.729784,44.940198,292.111341,179.591095,2.156632,3.000000,-93.167074,2.503330,2025-03-27T21:46:47.000-05:00,-0.072952,-1.006477,0.020754,2025-03-27T21:46:46.289-05:00,1.287957,-0.271911,0.301551,2025-03-27T21:46:46.286-05:00
30.000000,264.744256,2.409297,47.854703,44.940157,292.154256,179.591095,2.148801,3.000000,-93.167076,3.953053,2025-03-27T21:46:48.000-05:00,-0.095332,-1.002013,0.014219,2025-03-27T21:46:47.283-05:00,1.016017,-0.217977,0.228609,2025-03-27T21:46:47.291-05:00
31.000000,264.622320,2.262170,35.036835,44.940109,292.032320,179.591095,2.141360,3.000000,-93.167072,5.121515,2025-03-27T21:46:49.000-05:00,-0.118452,-0.997127,0.011007,2025-03-27T21:46:48.288-05:00,0.750730,-0.157840,0.212201,2025-03-27T21:46:48.286-05:00
32.000000,264.724129,2.141665,27.639080,44.940050,292.134129,179.591095,2.134292,3.000000,-93.167071,6.152730,2025-03-27T21:46:50.000-05:00,-0.113513,-0.994292,0.002934,2025-03-27T21:46:49.283-05:00,0.750052,-0.126332,0.117721,2025-03-27T21:46:49.291-05:00
33.000000,264.796547,2.030114,22.677987,44.939982,292.206547,180.917892,2.123498,3.000000,-93.167072,7.247275,2025-03-27T21:46:51.000-05:00,-0.122216,-1.003922,0.002619,2025-03-27T21:46:50.288-05:00,0.646424,-0.208605,0.105843,2025-03-27T21:46:50.286-05:00
34.000000,264.856176,1.983898,19.300293,44.939908,292.266175,180.917892,2.105455,3.000000,-93.167071,8.267814,2025-03-27T21:46:52.000-05:00,-0.106992,-0.998762,0.004548,2025-03-27T21:46:51.283-05:00,0.686447,-0.140423,0.018716,2025-03-27T21:46:51.290-05:00
35.000000,264.881445,1.914734,16.706125,44.939825,292.291445,180.917892,2.079645,3.000000,-93.167072,9.256991,2025-03-27T21:46:53.000-05:00,-0.123648,-0.999923,0.019393,2025-03-27T21:46:52.288-05:00,0.510095,-0.154125,0.103076,2025-03-27T21:46:52.285-05:00
36.000000,265.012706,1.864862,14.705783,44.939733,292.422706,180.917892,2.052664,3.000000,-93.167075,10.173563,2025-03-27T21:46:54.000-05:00,-0.136905,-0.995470,0.022743,2025-03-27T21:46:53.283-05:00,0.350104,-0.098287,0.128500,2025-03-27T21:46:53.290-05:00
37.000000,265.009486,1.854108,13.310060,44.939635,292.419486,180.917892,2.032050,3.000000,-93.167076,10.961988,2025-03-27T21:46:55.000-05:00,-0.153645,-0.987283,0.024849,2025-03-27T21:46:54.288-05:00,0.145047,-0.021737,0.157450,2025-03-27T21:46:54.285-05:00
38.000000,265.098298,1.784113,12.515332,44.939532,292.508298,180.210192,2.018538,3.000000,-93.167075,11.547366,2025-03-27T21:46:56.000-05:00,-0.148439,-0.997051,0.015179,2025-03-27T21:46:55.283-05:00,0.162624,-0.104333,0.049346,2025-03-27T21:46:55.290-05:00
39.000000,265.307239,1.774550,11.809163,44.939423,292.717238,180.495626,2.009914,3.000000,-93.167077,12.171597,2025-03-27T21:46:57.000-05:00,-0.146838,-0.989034,0.019801,2025-03-27T21:46:56.287-05:00,0.162502,-0.030428,0.070494,2025-03-27T21:46:56.285-05:00
40.000000,265.384634,1.743391,11.008779,44.939306,292.794634,180.453791,2.005137,3.000000,-93.167079,12.828365,2025-03-27T21:46:58.000-05:00,-0.154503,-0.986339,0.023470,2025-03-27T21:46:57.292-05:00,0.091275,-0.008699,0.155777,2025-03-27T21:46:57.290-05:00
41.000000,265.505658,1.736957,10.478472,44.939186,292.915658,180.039639,2.002598,3.000000,-93.167078,13.429048,2025-03-27T21:46:59.000-05:00,-0.158342,-0.987588,0.001223,2025-03-27T21:46:58.287-05:00,-0.024474,0.015747,-0.017004,2025-03-27T21:46:58.285-05:00
42.000000,265.618109,1.736891,10.133831,44.939063,293.028109,180.246084,2.001286,3.000000,-93.167076,13.885055,2025-03-27T21:47:00.000-05:00,-0.178201,-0.985550,-0.001416,2025-03-27T21:46:59.292-05:00,-0.163865,0.012077,-0.040299,2025-03-27T21:46:59.290-05:00
43.000000,265.617637,1.717298,9.752071,44.938933,293.027637,180.329501,2.000614,3.000000,-93.167078,14.265934,2025-03-27T21:47:01.000-05:00,-0.195454,-0.979289,0.011147,2025-03-27T21:47:00.287-05:00,-0.329827,0.055274,0.118692,2025-03-27T21:47:00.285-05:00
44.000000,265.616009,1.691758,9.514446,44.938805,293.026009,180.472366,2.000291,3.000000,-93.167076,14.406058,2025-03-27T21:47:02.000-05:00,-0.210412,-0.974261,-0.011531,2025-03-27T21:47:01.292-05:00,-0.469352,0.132690,-0.124915,2025-03-27T21:47:01.289-05:00
45.000000,265.697687,1.710935,9.604600,44.938677,293.107686,180.219040,2.000137,3.000000,-93.167076,14.433098,2025-03-27T21:47:03.000-05:00,-0.207082,-0.980642,-0.013218,2025-03-27T21:47:02.287-05:00,-0.451353,0.077302,-0.118505,2025-03-27T21:47:02.284-05:00
46.000000,265.971354,1.709306,9.571665,44.938548,293.381354,180.219040,2.000064,3.000000,-93.167080,14.467893,2025-03-27T21:47:04.000-05:00,-0.205414,-0.975750,-0.000122,2025-03-27T21:47:03.292-05:00,-0.398441,0.095347,-0.006752,2025-03-27T21:47:03.289-05:00
47.000000,266.139739,1.694019,9.406970,44.938415,293.549739,179.689194,2.000030,3.000000,-93.167082,14.590190,2025-03-27T21:47:05.000-05:00,-0.209826,-0.977836,-0.002430,2025-03-27T21:47:04.287-05:00,-0.377597,0.076303,-0.000019,2025-03-27T21:47:04.284-05:00
48.000000,266.326712,1.729617,9.541075,44.938282,293.736712,179.689194,2.000014,3.000000,-93.167082,14.686953,2025-03-27T21:47:06.000-05:00,-0.206056,-0.975452,-0.004889,2025-03-27T21:47:05.291-05:00,-0.340252,0.093200,-0.037190,2025-03-27T21:47:05.289-05:00
49.000000,266.563941,1.725434,9.477645,44.938150,293.973941,179.070343,2.028769,3.000000,-93.167082,14.749011,2025-03-27T21:47:07.000-05:00,-0.215231,-0.977942,-0.011395,2025-03-27T21:47:06.286-05:00,-0.383110,0.053629,-0.101192,2025-03-27T21:47:06.284-05:00
50.000000,266.664355,1.710853,9.413062,44.938019,294.074355,180.672806,2.013328,3.000000,-93.167078,14.725517,2025-03-27T21:47:08.000-05:00,-0.214425,-0.964097,-0.012325,2025-03-27T21:47:07.291-05:00,-0.307432,0.195435,-0.088541,2025-03-27T21:47:07.289-05:00
51.000000,266.591804,1.686810,9.216030,44.937885,294.001804,180.672806,2.006075,3.000000,-93.167079,14.830523,2025-03-27T21:47:09.000-05:00,-0.222069,-0.957518,0.003732,2025-03-27T21:47:08.286-05:00,-0.279052,0.221845,0.026674,2025-03-27T21:47:08.284-05:00
52.000000,266.315374,1.700178,9.240320,44.937750,293.725373,181.013901,2.002767,3.000000,-93.167079,14.905790,2025-03-27T21:47:10.000-05:00,-0.222833,-0.964310,-0.014861,2025-03-27T21:47:09.291-05:00,-0.190853,0.145083,-0.032425,2025-03-27T21:47:09.289-05:00
53.000000,266.020894,1.687720,9.136421,44.937615,293.430893,180.398483,2.001256,3.000000,-93.167081,14.960586,2025-03-27T21:47:11.000-05:00,-0.240530,-0.972218,-0.003479,2025-03-27T21:47:10.286-05:00,-0.280337,0.049300,0.021980,2025-03-27T21:47:10.283-05:00
54.000000,265.952912,1.698905,9.179076,44.937479,293.362912,180.398483,2.331488,3.000000,-93.167084,14.993688,2025-03-27T21:47:12.000-05:00,-0.230612,-0.972234,-0.009475,2025-03-27T21:47:11.291-05:00,-0.231793,0.063074,-0.083909,2025-03-27T21:47:11.288-05:00
55.000000,265.674149,1.699160,9.154387,44.937344,293.084149,180.398483,2.149926,3.000000,-93.167084,15.034991,2025-03-27T21:47:13.000-05:00,-0.239608,-0.969737,-0.010884,2025-03-27T21:47:12.286-05:00,-0.250877,0.065253,-0.091850,2025-03-27T21:47:12.283-05:00
56.000000,265.356530,1.701558,9.193715,44.937210,292.766530,180.000000,2.068078,3.000000,-93.167084,14.991741,2025-03-27T21:47:14.000-05:00,-0.237028,-0.969994,-0.004165,2025-03-27T21:47:13.291-05:00,-0.252331,0.076296,0.010270,2025-03-27T21:47:13.288-05:00
57.000000,265.049231,1.707116,9.177230,44.937071,292.459230,178.838928,2.113423,3.000000,-93.167089,15.067218,2025-03-27T21:47:15.000-05:00,-0.241771,-0.980472,-0.011255,2025-03-27T21:47:14.286-05:00,-0.333773,0.006254,-0.008578,2025-03-27T21:47:14.283-05:00
58.000000,264.980963,1.717276,9.190827,44.936932,292.390963,178.838928,3.032985,3.000000,-93.167094,15.135682,2025-03-27T21:47:16.000-05:00,-0.228135,-0.967329,-0.007088,2025-03-27T21:47:15.290-05:00,-0.150614,0.069472,0.044985,2025-03-27T21:47:15.288-05:00
59.000000,264.805444,1.696782,9.070167,44.936795,292.215443,178.838928,2.462022,3.000000,-93.167092,15.153915,2025-03-27T21:47:17.000-05:00,-0.231883,-0.975383,-0.006561,2025-03-27T21:47:16.285-05:00,-0.154125,0.004204,0.016994,2025-03-27T21:47:16.283-05:00
60.000000,264.737034,1.695484,9.011553,44.936658,292.147034,178.838928,2.206767,3.000000,-93.167092,15.242069,2025-03-27T21:47:18.000-05:00,-0.227038,-0.973350,-0.007715,2025-03-27T21:47:17.290-05:00,-0.119206,0.029622,0.013172,2025-03-27T21:47:17.288-05:00
61.000000,264.531428,1.695176,8.943371,44.936517,291.941428,179.746888,2.091460,3.000000,-93.167092,15.356520,2025-03-27T21:47:19.000-05:00,-0.227407,-0.973133,-0.008759,2025-03-27T21:47:18.285-05:00,-0.121051,0.034118,0.010028,2025-03-27T21:47:18.283-05:00
62.000000,264.401285,1.690555,8.853270,44.936376,291.811285,179.811714,2.039977,3.000000,-93.167094,15.469844,2025-03-27T21:47:20.000-05:00,-0.233173,-0.969984,-0.030367,2025-03-27T21:47:19.290-05:00,-0.141983,0.057840,-0.106747,2025-03-27T21:47:19.287-05:00
63.000000,264.038533,1.688198,8.848427,44.936237,291.448533,180.172521,2.017684,3.000000,-93.167095,15.456015,2025-03-27T21:47:21.000-05:00,-0.257164,-0.962024,-0.035818,2025-03-27T21:47:20.285-05:00,-0.370460,0.132195,-0.146064,2025-03-27T21:47:20.292-05:00
64.000000,263.855951,1.704952,9.117311,44.936101,291.265951,180.373734,2.007800,3.000000,-93.167097,15.148556,2025-03-27T21:47:22.000-05:00,-0.255251,-0.973377,-0.030500,2025-03-27T21:47:21.290-05:00,-0.333956,0.018918,-0.139030,2025-03-27T21:47:21.287-05:00
65.000000,263.740599,1.720841,9.346953,44.935967,291.150599,180.787157,2.003508,3.000000,-93.167100,14.916540,2025-03-27T21:47:23.000-05:00,-0.235490,-0.968986,-0.008807,2025-03-27T21:47:22.285-05:00,-0.119706,0.058284,0.066497,2025-03-27T21:47:22.292-05:00
66.000000,263.430797,1.700151,9.256286,44.935834,290.840796,180.402897,2.001605,3.000000,-93.167099,14.880606,2025-03-27T21:47:24.000-05:00,-0.230500,-0.974195,-0.010278,2025-03-27T21:47:23.290-05:00,-0.053065,-0.002860,0.079504,2025-03-27T21:47:23.287-05:00
67.000000,263.164383,1.699800,9.210865,44.935699,290.574382,180.200093,2.000728,3.000000,-93.167100,14.950267,2025-03-27T21:47:25.000-05:00,-0.229236,-0.969362,-0.006830,2025-03-27T21:47:24.284-05:00,-0.033346,0.044634,0.111192,2025-03-27T21:47:24.292-05:00
68.000000,263.015756,1.696639,9.146306,44.935564,290.425756,179.844342,2.000330,3.000000,-93.167099,15.027370,2025-03-27T21:47:26.000-05:00,-0.233997,-0.975779,-0.016125,2025-03-27T21:47:25.289-05:00,-0.074586,-0.013955,0.030914,2025-03-27T21:47:25.287-05:00
69.000000,262.883227,1.693310,9.165537,44.935430,290.293227,179.747963,2.000150,3.000000,-93.167098,14.966534,2025-03-27T21:47:27.000-05:00,-0.270419,-0.963586,-0.036325,2025-03-27T21:47:26.284-05:00,-0.411895,0.093794,-0.143444,2025-03-27T21:47:26.292-05:00
70.000000,262.826515,1.704644,9.444419,44.935300,290.236515,179.969352,2.000068,3.000000,-93.167098,14.622652,2025-03-27T21:47:28.000-05:00,-0.251560,-0.967148,-0.024357,2025-03-27T21:47:27.289-05:00,-0.207413,0.055674,-0.043209,2025-03-27T21:47:27.287-05:00
71.000000,262.714389,1.710007,9.576775,44.935171,290.124388,180.003061,2.173284,3.000000,-93.167097,14.466374,2025-03-27T21:47:29.000-05:00,-0.252734,-0.968525,-0.014827,2025-03-27T21:47:28.284-05:00,-0.235311,0.042423,0.014541,2025-03-27T21:47:28.291-05:00
72.000000,262.659811,1.705652,9.731978,44.935044,290.069811,179.959232,2.096646,3.000000,-93.167098,14.199408,2025-03-27T21:47:30.000-05:00,-0.270901,-0.964581,-0.014796,2025-03-27T21:47:29.289-05:00,-0.345647,0.074191,0.026617,2025-03-27T21:47:29.286-05:00
73.000000,262.622149,1.724112,10.074925,44.934918,290.032149,179.776319,2.045416,3.000000,-93.167098,13.864393,2025-03-27T21:47:31.000-05:00,-0.297151,-0.961006,-0.015097,2025-03-27T21:47:30.284-05:00,-0.583753,0.105467,0.002873,2025-03-27T21:47:30.291-05:00
74.000000,262.548613,1.712377,10.512116,44.934799,289.958613,179.584353,2.021664,3.000000,-93.167100,13.198397,2025-03-27T21:47:32.000-05:00,-0.346076,-0.942907,0.025330,2025-03-27T21:47:31.289-05:00,-1.015049,0.260659,0.452214,2025-03-27T21:47:31.286-05:00
75.000000,262.357906,1.769729,11.777549,44.934690,289.767906,176.241139,2.010754,3.000000,-93.167088,12.173445,2025-03-27T21:47:33.000-05:00,-0.366698,-0.939978,0.028954,2025-03-27T21:47:32.284-05:00,-1.170087,0.277455,0.450707,2025-03-27T21:47:32.291-05:00
76.000000,262.296005,1.812674,13.379078,44.934594,289.706005,172.938549,2.005613,3.000000,-93.167066,10.976762,2025-03-27T21:47:34.000-05:00,-0.407891,-0.933470,-0.067254,2025-03-27T21:47:33.288-05:00,-1.514697,0.335072,-0.421013,2025-03-27T21:47:33.286-05:00
77.000000,262.231693,1.865447,16.401479,44.934514,289.641693,172.993611,2.139906,3.000000,-93.167052,9.212464,2025-03-27T21:47:35.000-05:00,-0.413530,-0.928937,-0.119871,2025-03-27T21:47:34.283-05:00,-1.605363,0.374767,-0.847872,2025-03-27T21:47:34.291-05:00
78.000000,262.278761,1.997138,21.925147,44.934450,289.688761,175.138997,2.173134,3.000000,-93.167048,7.378870,2025-03-27T21:47:36.000-05:00,-0.320421,-0.951920,-0.085001,2025-03-27T21:47:35.288-05:00,-0.698473,0.160833,-0.476381,2025-03-27T21:47:35.286-05:00
79.000000,,,,,,,,,,,,-0.264071,-0.964518,-0.030680,2025-03-27T21:47:36.283-05:00,-0.128385,0.029014,0.047986,2025-03-27T21:47:36.291-05:00
