seconds_elapsed,location_altitude,location_speedAccuracy,location_bearingAccuracy,location_latitude,location_altitudeAboveMeanSeaLevel,location_bearing,location_horizontalAccuracy,location_verticalAccuracy,location_longitude,location_speed,location_local_time,accelerometerUncalibrated_z,accelerometerUncalibrated_y,accelerometerUncalibrated_x,accelerometerUncalibrated_local_time,accelerometer_z,accelerometer_y,accelerometer_x,accelerometer_local_time
0.000000,256.352875,0.257618,7.257667,44.941406,283.762875,202.259527,2.421443,3.000000,-93.169607,5.039560,2025-03-27T21:33:22.999-05:00,-0.280836,-0.966720,0.100941,2025-03-27T21:33:22.355-05:00,-0.621434,0.090010,1.137145,2025-03-27T21:33:22.358-05:00
1.000000,256.375150,0.301286,7.258907,44.941354,283.785150,186.788077,2.368762,3.000000,-93.169613,5.274587,2025-03-27T21:33:23.999-05:00,-0.245177,-0.985647,0.023010,2025-03-27T21:33:23.340-05:00,-0.398932,-0.057811,0.376772,2025-03-27T21:33:23.343-05:00
2.000000,256.498909,0.303405,7.258582,44.941305,283.908909,182.630753,2.327789,3.000000,-93.169612,5.237396,2025-03-27T21:33:24.999-05:00,-0.195701,-0.958350,-0.023334,2025-03-27T21:33:24.345-05:00,-0.043011,0.202166,0.077536,2025-03-27T21:33:24.338-05:00
3.000000,256.575876,0.280314,7.254143,44.941253,283.985876,182.630753,2.295010,3.000000,-93.169610,5.720243,2025-03-27T21:33:25.999-05:00,-0.159432,-1.001758,-0.017882,2025-03-27T21:33:25.340-05:00,0.470629,-0.233479,-0.019883,2025-03-27T21:33:25.343-05:00
4.000000,256.436433,0.289405,7.258498,44.941194,283.846432,182.630753,2.268191,3.000000,-93.169608,6.591061,2025-03-27T21:33:26.999-05:00,-0.159229,-0.993419,0.011445,2025-03-27T21:33:26.345-05:00,0.309850,-0.111400,0.004365,2025-03-27T21:33:26.337-05:00
5.000000,256.646496,0.301577,7.258887,44.941130,284.056496,179.642807,2.237005,3.000000,-93.169606,7.111020,2025-03-27T21:33:27.999-05:00,-0.205993,-0.975960,-0.001919,2025-03-27T21:33:27.340-05:00,-0.131288,0.061949,-0.151557,2025-03-27T21:33:27.342-05:00
6.000000,256.753454,0.310060,7.258941,44.941065,284.163454,179.642807,2.199530,3.000000,-93.169604,7.267311,2025-03-27T21:33:28.999-05:00,-0.194584,-0.977378,-0.007373,2025-03-27T21:33:28.345-05:00,-0.026553,0.026119,-0.225605,2025-03-27T21:33:28.337-05:00
7.000000,256.936225,0.308685,7.258971,44.940997,284.346225,179.642807,2.165164,3.000000,-93.169601,7.543645,2025-03-27T21:33:29.999-05:00,-0.187492,-0.985204,-0.009860,2025-03-27T21:33:29.339-05:00,-0.016546,-0.021862,-0.274080,2025-03-27T21:33:29.342-05:00
8.000000,256.977183,0.308925,7.258971,44.940926,284.387183,179.642807,2.125521,3.000000,-93.169601,7.833995,2025-03-27T21:33:30.999-05:00,-0.207517,-0.972255,-0.021174,2025-03-27T21:33:30.344-05:00,-0.114541,0.075025,-0.372520,2025-03-27T21:33:30.337-05:00
9.000000,256.982353,0.304493,7.258888,44.940856,284.392352,179.642807,2.091373,3.000000,-93.169603,7.902645,2025-03-27T21:33:31.999-05:00,-0.211173,-0.968548,-0.012527,2025-03-27T21:33:31.339-05:00,-0.159945,0.106162,-0.281083,2025-03-27T21:33:31.342-05:00
10.000000,257.033764,0.299785,7.258363,44.940783,284.443763,180.187592,2.065121,3.000000,-93.169599,8.045092,2025-03-27T21:33:32.999-05:00,-0.230031,-0.980770,-0.009196,2025-03-27T21:33:32.344-05:00,-0.385281,0.020028,-0.262309,2025-03-27T21:33:32.336-05:00
11.000000,256.972111,0.305750,7.258934,44.940708,284.382111,180.187592,2.043710,3.000000,-93.169604,8.101432,2025-03-27T21:33:33.999-05:00,-0.241710,-0.968559,-0.004391,2025-03-27T21:33:33.339-05:00,-0.480418,0.126464,-0.250892,2025-03-27T21:33:33.341-05:00
12.000000,256.944597,0.302902,7.258735,44.940636,284.354597,180.187592,2.029409,3.000000,-93.169601,7.936555,2025-03-27T21:33:34.999-05:00,-0.257166,-0.960658,-0.019981,2025-03-27T21:33:34.344-05:00,-0.530519,0.173669,-0.343963,2025-03-27T21:33:34.336-05:00
13.000000,257.137995,0.298657,7.258246,44.940566,284.547995,180.187592,2.221912,3.000000,-93.169601,7.591846,2025-03-27T21:33:35.999-05:00,-0.268623,-0.965363,-0.016555,2025-03-27T21:33:35.338-05:00,-0.670045,0.139357,-0.316940,2025-03-27T21:33:35.341-05:00
14.000000,257.259527,0.302923,7.258871,44.940500,284.669527,180.187592,2.463982,3.000000,-93.169600,7.239590,2025-03-27T21:33:36.999-05:00,-0.266265,-0.965998,-0.025590,2025-03-27T21:33:36.343-05:00,-0.618295,0.130641,-0.371075,2025-03-27T21:33:36.336-05:00
15.000000,257.173708,0.305495,7.258953,44.940438,284.583708,180.485291,2.562416,3.000000,-93.169600,6.834399,2025-03-27T21:33:37.999-05:00,-0.264870,-0.960026,-0.025589,2025-03-27T21:33:37.338-05:00,-0.527457,0.163466,-0.310177,2025-03-27T21:33:37.341-05:00
16.000000,257.333325,0.306381,7.258968,44.940381,284.743325,180.485291,2.405024,3.000000,-93.169600,6.348619,2025-03-27T21:33:38.999-05:00,-0.313152,-0.950773,-0.046989,2025-03-27T21:33:38.343-05:00,-0.990205,0.266261,-0.446716,2025-03-27T21:33:38.336-05:00
17.000000,257.479978,0.314165,7.258920,44.940333,284.889978,180.485291,2.318737,3.000000,-93.169602,5.406900,2025-03-27T21:33:39.999-05:00,-0.296967,-0.949034,-0.088596,2025-03-27T21:33:39.338-05:00,-0.718745,0.252179,-0.886721,2025-03-27T21:33:39.340-05:00
18.000000,257.375835,0.302144,7.258765,44.940293,284.785835,180.485291,2.265614,3.000000,-93.169610,4.650744,2025-03-27T21:33:40.999-05:00,-0.354580,-0.941200,-0.004589,2025-03-27T21:33:40.343-05:00,-1.170819,0.299884,-0.129702,2025-03-27T21:33:40.345-05:00
19.000000,257.452507,0.307449,8.284324,44.940263,284.862507,180.485291,2.376301,3.000000,-93.169615,3.388558,2025-03-27T21:33:41.999-05:00,-0.379067,-0.940107,-0.026831,2025-03-27T21:33:41.338-05:00,-1.360659,0.300084,-0.289363,2025-03-27T21:33:41.340-05:00
20.000000,257.649776,0.314395,12.678943,44.940245,285.059776,180.485291,2.374353,3.000000,-93.169614,1.968351,2025-03-27T21:33:43.000-05:00,-0.332705,-0.945052,-0.027013,2025-03-27T21:33:42.342-05:00,-0.899715,0.250442,-0.295770,2025-03-27T21:33:42.345-05:00
21.000000,257.688252,0.310883,26.777911,44.940236,285.098252,180.485291,2.336978,3.000000,-93.169614,0.931844,2025-03-27T21:33:44.000-05:00,-0.244161,-0.970718,-0.006607,2025-03-27T21:33:43.337-05:00,0.004739,-0.011929,-0.057098,2025-03-27T21:33:43.340-05:00
22.000000,257.531130,0.310113,29.792314,44.940229,284.941129,180.485291,2.309095,3.000000,-93.169615,0.837465,2025-03-27T21:33:45.000-05:00,-0.140521,-0.991803,0.001848,2025-03-27T21:33:44.342-05:00,0.989924,-0.210512,0.122123,2025-03-27T21:33:44.345-05:00
23.000000,257.619308,0.319944,15.105995,44.940216,285.029308,180.485291,2.280995,3.000000,-93.169615,1.651264,2025-03-27T21:33:46.000-05:00,-0.054328,-1.004894,0.012382,2025-03-27T21:33:45.337-05:00,1.744837,-0.316573,0.263650,2025-03-27T21:33:45.339-05:00
24.000000,257.760401,0.322441,7.937160,44.940185,285.170401,180.485291,2.257579,3.000000,-93.169616,3.143446,2025-03-27T21:33:47.000-05:00,-0.105535,-1.028363,0.017532,2025-03-27T21:33:46.342-05:00,1.152553,-0.527483,0.301931,2025-03-27T21:33:46.344-05:00
25.000000,258.000931,0.337566,7.256417,44.940148,285.410931,180.485291,2.237765,3.000000,-93.169617,4.127036,2025-03-27T21:33:48.000-05:00,-0.119950,-0.967756,-0.011455,2025-03-27T21:33:47.337-05:00,0.939815,0.081564,0.138480,2025-03-27T21:33:47.339-05:00
26.000000,258.147948,0.314710,7.258876,44.940102,285.557948,180.485291,2.220782,3.000000,-93.169616,4.914005,2025-03-27T21:33:49.000-05:00,-0.152535,-0.985659,-0.022417,2025-03-27T21:33:48.341-05:00,0.836350,-0.144670,0.137414,2025-03-27T21:33:48.344-05:00
27.000000,258.107898,0.291224,7.258563,44.940050,285.517897,180.742203,2.206063,3.000000,-93.169613,5.749561,2025-03-27T21:33:50.000-05:00,-0.157533,-0.984865,-0.017743,2025-03-27T21:33:49.336-05:00,0.925808,-0.178524,0.199953,2025-03-27T21:33:49.339-05:00
28.000000,257.927748,0.265450,7.257020,44.939990,285.337748,180.742203,2.207208,3.000000,-93.169610,6.562623,2025-03-27T21:33:51.000-05:00,-0.183731,-1.009843,-0.032438,2025-03-27T21:33:50.341-05:00,0.498338,-0.374404,0.004516,2025-03-27T21:33:50.344-05:00
29.000000,258.106625,0.332474,7.257965,44.939925,285.516625,180.742203,2.201642,3.000000,-93.169605,7.205710,2025-03-27T21:33:52.000-05:00,-0.136492,-0.988732,-0.024277,2025-03-27T21:33:51.336-05:00,0.712361,-0.110740,0.018033,2025-03-27T21:33:51.338-05:00
30.000000,258.403034,0.301966,7.258939,44.939856,285.813033,180.000000,2.171796,3.000000,-93.169603,7.753126,2025-03-27T21:33:53.000-05:00,-0.157348,-0.983562,-0.040415,2025-03-27T21:33:52.341-05:00,0.462991,-0.049771,-0.106054,2025-03-27T21:33:52.343-05:00
31.000000,258.329760,0.295740,7.258848,44.939778,285.739760,180.000000,2.132850,3.000000,-93.169606,8.491517,2025-03-27T21:33:54.000-05:00,-0.168735,-0.987448,-0.034298,2025-03-27T21:33:53.336-05:00,0.290839,-0.082196,-0.007655,2025-03-27T21:33:53.338-05:00
32.000000,258.459805,0.286448,7.258598,44.939699,285.869805,180.000000,2.105834,3.000000,-93.169604,8.866394,2025-03-27T21:33:55.000-05:00,-0.203408,-0.972665,-0.044573,2025-03-27T21:33:54.340-05:00,-0.082743,0.082028,-0.088019,2025-03-27T21:33:54.343-05:00
33.000000,258.560252,0.285263,7.258156,44.939617,285.970252,180.000000,2.068463,3.000000,-93.169603,8.999281,2025-03-27T21:33:56.000-05:00,-0.213344,-0.979001,-0.045940,2025-03-27T21:33:55.345-05:00,-0.182158,0.009410,-0.094181,2025-03-27T21:33:55.338-05:00
34.000000,258.661524,0.292001,7.258235,44.939536,286.071524,180.000000,2.044169,3.000000,-93.169605,9.029349,2025-03-27T21:33:57.000-05:00,-0.216716,-0.970901,-0.050887,2025-03-27T21:33:56.340-05:00,-0.217484,0.071073,-0.099659,2025-03-27T21:33:56.343-05:00
35.000000,258.808418,0.293468,7.258199,44.939454,286.218418,179.512604,2.028354,3.000000,-93.169609,9.146911,2025-03-27T21:33:58.000-05:00,-0.221766,-0.987539,-0.055241,2025-03-27T21:33:57.345-05:00,-0.311397,-0.051355,-0.087372,2025-03-27T21:33:57.337-05:00
36.000000,259.007491,0.306272,7.258962,44.939372,286.417491,179.512604,2.440077,3.000000,-93.169608,9.207522,2025-03-27T21:33:59.000-05:00,-0.216431,-0.964928,-0.037501,2025-03-27T21:33:58.340-05:00,-0.242617,0.176849,0.020634,2025-03-27T21:33:58.342-05:00
37.000000,259.160848,0.288231,7.257672,44.939278,286.570847,179.512604,3.147373,3.000000,-93.169615,9.545818,2025-03-27T21:34:00.000-05:00,-0.214566,-0.972316,-0.034903,2025-03-27T21:33:59.345-05:00,-0.245374,0.067734,0.081668,2025-03-27T21:33:59.337-05:00
38.000000,259.090938,0.300762,7.258753,44.939209,286.500938,179.512604,2.907413,3.000000,-93.169611,8.991174,2025-03-27T21:34:01.000-05:00,-0.228814,-0.966335,-0.068013,2025-03-27T21:34:00.340-05:00,-0.365350,0.123026,-0.154451,2025-03-27T21:34:00.342-05:00
39.000000,259.073132,0.294334,7.258075,44.939128,286.483132,179.512604,2.578776,3.000000,-93.169607,8.917827,2025-03-27T21:34:02.000-05:00,-0.233568,-0.966590,-0.071524,2025-03-27T21:34:01.344-05:00,-0.341488,0.121930,-0.129643,2025-03-27T21:34:01.337-05:00
40.000000,259.563783,0.295020,7.258138,44.939047,286.973783,180.000000,2.395824,3.000000,-93.169606,8.857921,2025-03-27T21:34:03.000-05:00,-0.226081,-0.966089,-0.069717,2025-03-27T21:34:02.339-05:00,-0.272397,0.123916,-0.112012,2025-03-27T21:34:02.342-05:00
41.000000,259.796250,0.291512,7.257593,44.938968,287.206250,180.000000,2.687962,3.000000,-93.169609,8.688076,2025-03-27T21:34:04.000-05:00,-0.241309,-0.966818,-0.050853,2025-03-27T21:34:03.344-05:00,-0.269524,0.086187,-0.130429,2025-03-27T21:34:03.337-05:00
42.000000,259.767591,0.292466,7.257746,44.938892,287.177591,180.236633,2.450764,3.000000,-93.169611,8.543797,2025-03-27T21:34:05.000-05:00,-0.253965,-0.965803,-0.056334,2025-03-27T21:34:04.339-05:00,-0.375157,0.086063,-0.178509,2025-03-27T21:34:04.341-05:00
43.000000,259.770678,0.294081,7.257981,44.938815,287.180678,180.236633,2.296421,3.000000,-93.169615,8.429208,2025-03-27T21:34:06.000-05:00,-0.247366,-0.963795,-0.063594,2025-03-27T21:34:05.344-05:00,-0.401277,0.146613,-0.224957,2025-03-27T21:34:05.336-05:00
44.000000,259.833975,0.293828,7.257970,44.938746,287.243975,180.236633,2.230099,3.000000,-93.169616,7.919278,2025-03-27T21:34:07.000-05:00,-0.249148,-0.962902,-0.051812,2025-03-27T21:34:06.339-05:00,-0.341438,0.109685,-0.125384,2025-03-27T21:34:06.341-05:00
45.000000,259.747976,0.293146,7.257953,44.938678,287.157976,180.236633,2.157777,3.000000,-93.169618,7.733272,2025-03-27T21:34:08.000-05:00,-0.255486,-0.971382,-0.024966,2025-03-27T21:34:07.343-05:00,-0.385281,0.067385,-0.008279,2025-03-27T21:34:07.336-05:00
46.000000,259.620500,0.294552,7.258397,44.938615,287.030500,180.236633,2.109443,3.000000,-93.169621,7.178291,2025-03-27T21:34:09.000-05:00,-0.271118,-0.964282,-0.019656,2025-03-27T21:34:08.338-05:00,-0.474726,0.100267,0.003709,2025-03-27T21:34:08.341-05:00
47.000000,259.859296,0.301916,7.258786,44.938551,287.269296,180.236633,2.362414,3.000000,-93.169619,6.858058,2025-03-27T21:34:10.000-05:00,-0.291792,-0.942324,-0.028587,2025-03-27T21:34:09.343-05:00,-0.625954,0.303457,-0.084116,2025-03-27T21:34:09.336-05:00
48.000000,259.960822,0.285586,7.257564,44.938495,287.370821,180.236633,2.292758,3.000000,-93.169618,6.247977,2025-03-27T21:34:11.000-05:00,-0.299320,-0.969118,-0.039265,2025-03-27T21:34:10.338-05:00,-0.657397,0.033537,-0.187749,2025-03-27T21:34:10.340-05:00
49.000000,260.115077,0.305594,7.258951,44.938445,287.525077,180.000000,2.230183,3.000000,-93.169619,5.516984,2025-03-27T21:34:12.000-05:00,-0.274793,-0.965294,-0.122167,2025-03-27T21:34:11.343-05:00,-0.445751,0.075177,-0.917744,2025-03-27T21:34:11.345-05:00
50.000000,260.022644,0.312807,7.258765,44.938401,287.432644,180.545914,2.191819,3.000000,-93.169627,5.013741,2025-03-27T21:34:13.000-05:00,-0.244343,-0.976996,-0.211048,2025-03-27T21:34:12.338-05:00,-0.279147,-0.017040,-1.673496,2025-03-27T21:34:12.340-05:00
51.000000,260.155922,0.319036,7.257906,44.938365,287.565921,180.545914,2.164416,3.000000,-93.169624,4.723756,2025-03-27T21:34:14.000-05:00,-0.223571,-0.966391,-0.180212,2025-03-27T21:34:13.342-05:00,-0.183480,0.119087,-1.501353,2025-03-27T21:34:13.345-05:00
52.000000,260.521290,0.342084,7.256507,44.938340,287.931290,253.165421,2.143864,3.000000,-93.169699,4.714469,2025-03-27T21:34:15.000-05:00,-0.180694,-0.969852,-0.182463,2025-03-27T21:34:14.337-05:00,0.193367,0.094144,-1.649930,2025-03-27T21:34:14.340-05:00
53.000000,260.490948,0.312876,8.090936,44.938329,287.900948,266.065918,2.127879,3.000000,-93.169754,4.964118,2025-03-27T21:34:16.000-05:00,-0.182840,-0.976185,-0.110605,2025-03-27T21:34:15.342-05:00,0.375838,-0.010468,-0.860720,2025-03-27T21:34:15.345-05:00
54.000000,260.405893,0.256720,7.256271,44.938329,287.815892,269.100037,2.169366,3.000000,-93.169819,5.312879,2025-03-27T21:34:17.000-05:00,-0.213742,-0.974272,-0.056094,2025-03-27T21:34:16.337-05:00,0.077139,-0.001509,-0.215665,2025-03-27T21:34:16.340-05:00
55.000000,260.394959,0.281288,7.256360,44.938335,287.804959,269.100037,2.153969,3.000000,-93.169887,5.569199,2025-03-27T21:34:18.000-05:00,-0.245853,-0.974767,0.009419,2025-03-27T21:34:17.342-05:00,-0.399258,0.029450,0.546368,2025-03-27T21:34:17.344-05:00
56.000000,260.267034,0.300204,7.257840,44.938341,287.677034,269.740295,2.153331,3.000000,-93.169957,5.565682,2025-03-27T21:34:19.000-05:00,-0.244083,-0.966658,0.024119,2025-03-27T21:34:18.337-05:00,-0.463627,0.122371,0.703817,2025-03-27T21:34:18.339-05:00
57.000000,260.197226,0.301714,7.258180,44.938343,287.607226,269.740295,2.141536,3.000000,-93.170030,5.662337,2025-03-27T21:34:20.000-05:00,-0.242404,-0.968919,-0.004711,2025-03-27T21:34:19.342-05:00,-0.431282,0.100856,0.416876,2025-03-27T21:34:19.344-05:00
58.000000,260.123861,0.302677,7.258430,44.938345,287.533861,269.740295,2.131427,3.000000,-93.170103,5.675759,2025-03-27T21:34:21.000-05:00,-0.253880,-0.971852,0.017579,2025-03-27T21:34:20.336-05:00,-0.555653,0.074188,0.547535,2025-03-27T21:34:20.339-05:00
59.000000,260.163333,0.305262,7.258837,44.938343,287.573332,269.740295,2.122665,3.000000,-93.170175,5.541774,2025-03-27T21:34:22.000-05:00,-0.261794,-0.967589,0.045557,2025-03-27T21:34:21.341-05:00,-0.611715,0.114091,0.788904,2025-03-27T21:34:21.344-05:00
60.000000,260.051142,0.306617,7.258940,44.938338,287.461141,269.740295,2.114998,3.000000,-93.170243,5.360381,2025-03-27T21:34:23.000-05:00,-0.227427,-0.973478,0.030598,2025-03-27T21:34:22.336-05:00,-0.226419,0.051098,0.581476,2025-03-27T21:34:22.339-05:00
61.000000,260.011436,0.308719,7.258966,44.938329,287.421436,269.740295,2.108234,3.000000,-93.170313,5.545389,2025-03-27T21:34:24.000-05:00,-0.232906,-0.965404,-0.033719,2025-03-27T21:34:23.341-05:00,-0.230804,0.115511,-0.000154,2025-03-27T21:34:23.343-05:00
62.000000,260.010885,0.303953,7.258696,44.938323,287.420885,269.740295,2.102221,3.000000,-93.170385,5.552088,2025-03-27T21:34:25.000-05:00,-0.272369,-0.965428,-0.006106,2025-03-27T21:34:24.336-05:00,-0.568169,0.104388,0.279537,2025-03-27T21:34:24.338-05:00
63.000000,259.903503,0.306978,7.258962,44.938319,287.313503,269.740295,2.161017,3.000000,-93.170450,5.127709,2025-03-27T21:34:26.000-05:00,-0.279693,-0.965008,0.111657,2025-03-27T21:34:25.341-05:00,-0.700414,0.119515,1.381536,2025-03-27T21:34:25.343-05:00
64.000000,259.644133,0.306281,7.258952,44.938305,287.054133,269.740295,2.157285,3.000000,-93.170514,4.986315,2025-03-27T21:34:27.000-05:00,-0.309794,-0.953668,0.222269,2025-03-27T21:34:26.345-05:00,-0.826537,0.203155,2.419674,2025-03-27T21:34:26.338-05:00
65.000000,259.640670,0.308372,7.258973,44.938316,287.050670,229.929466,5.248209,3.000000,-93.170563,4.972920,2025-03-27T21:34:28.000-05:00,-0.259315,-0.962171,0.121151,2025-03-27T21:34:27.340-05:00,-0.303425,0.103274,1.569172,2025-03-27T21:34:27.343-05:00
66.000000,259.632292,0.309147,7.258950,44.938227,287.042292,188.736649,2.143367,3.000000,-93.170597,5.273415,2025-03-27T21:34:29.000-05:00,-0.226244,-0.973132,0.076681,2025-03-27T21:34:28.345-05:00,0.113644,-0.029153,1.229348,2025-03-27T21:34:28.338-05:00
67.000000,259.423728,0.304376,7.258632,44.938178,286.833728,188.736649,2.136199,3.000000,-93.170620,5.544858,2025-03-27T21:34:30.000-05:00,-0.217749,-0.991099,0.033802,2025-03-27T21:34:29.340-05:00,0.077055,-0.186501,0.798945,2025-03-27T21:34:29.342-05:00
68.000000,259.406992,0.310468,7.258816,44.938122,286.816992,190.040670,2.129389,3.000000,-93.170633,5.843097,2025-03-27T21:34:31.000-05:00,-0.239408,-0.969196,-0.016632,2025-03-27T21:34:30.345-05:00,-0.280162,0.082684,0.265821,2025-03-27T21:34:30.337-05:00
69.000000,259.483045,0.310043,7.258861,44.938068,286.893045,185.289088,2.121717,3.000000,-93.170638,5.785356,2025-03-27T21:34:32.000-05:00,-0.280436,-0.964630,-0.066411,2025-03-27T21:34:31.340-05:00,-0.749699,0.129895,-0.175943,2025-03-27T21:34:31.342-05:00
70.000000,259.551454,0.314403,7.331011,44.938022,286.961454,182.845301,2.123508,3.000000,-93.170637,5.050623,2025-03-27T21:34:33.000-05:00,-0.322287,-0.944922,-0.072390,2025-03-27T21:34:32.344-05:00,-1.128474,0.317880,-0.354016,2025-03-27T21:34:32.337-05:00
71.000000,259.687128,0.312469,8.108490,44.937985,287.097128,181.506033,2.117008,3.000000,-93.170639,4.125967,2025-03-27T21:34:34.000-05:00,-0.314308,-0.948928,-0.070332,2025-03-27T21:34:33.339-05:00,-0.950152,0.260565,-0.412084,2025-03-27T21:34:33.342-05:00
72.000000,259.713840,0.312202,9.433737,44.937957,287.123840,180.712727,2.111158,3.000000,-93.170638,3.198591,2025-03-27T21:34:35.000-05:00,-0.370989,-0.935244,-0.064128,2025-03-27T21:34:34.344-05:00,-1.394225,0.372344,-0.404713,2025-03-27T21:34:34.337-05:00
73.000000,259.909239,0.309203,14.852735,44.937944,287.319239,179.781492,2.122147,3.000000,-93.170637,1.680359,2025-03-27T21:34:36.000-05:00,-0.273858,-0.961446,-0.056345,2025-03-27T21:34:35.339-05:00,-0.402783,0.104182,-0.285591,2025-03-27T21:34:35.341-05:00
74.000000,259.958634,0.308983,18.624917,44.937935,287.368633,179.232553,2.116040,3.000000,-93.170636,1.339973,2025-03-27T21:34:37.000-05:00,-0.200061,-0.970360,-0.042892,2025-03-27T21:34:36.344-05:00,0.218359,0.041571,-0.153353,2025-03-27T21:34:36.336-05:00
75.000000,259.926994,0.317655,15.150532,44.937923,287.336994,178.486926,2.129583,3.000000,-93.170634,1.646446,2025-03-27T21:34:38.000-05:00,-0.154488,-0.997763,-0.040371,2025-03-27T21:34:37.339-05:00,0.784521,-0.251278,-0.013025,2025-03-27T21:34:37.341-05:00
76.000000,259.889227,0.293531,13.716402,44.937900,287.299227,177.420682,2.133672,3.000000,-93.170632,2.463841,2025-03-27T21:34:39.000-05:00,-0.163016,-0.982327,-0.061404,2025-03-27T21:34:38.343-05:00,0.826925,-0.156207,-0.119897,2025-03-27T21:34:38.336-05:00
77.000000,259.883915,0.306177,8.526036,44.937873,287.293915,178.231487,2.162440,3.000000,-93.170632,2.927206,2025-03-27T21:34:40.000-05:00,-0.149922,-0.985543,-0.067650,2025-03-27T21:34:39.338-05:00,0.850038,-0.153037,-0.098058,2025-03-27T21:34:39.341-05:00
78.000000,259.842999,0.299446,7.628435,44.937838,287.252998,179.140059,2.154318,3.000000,-93.170632,3.755090,2025-03-27T21:34:41.000-05:00,-0.176474,-0.984751,-0.067728,2025-03-27T21:34:40.343-05:00,0.613042,-0.149244,-0.136805,2025-03-27T21:34:40.336-05:00
79.000000,259.754973,0.302110,7.258591,44.937800,287.164973,180.083106,2.146602,3.000000,-93.170631,4.246776,2025-03-27T21:34:42.000-05:00,-0.174308,-0.985573,-0.056733,2025-03-27T21:34:41.338-05:00,0.566329,-0.141838,-0.031853,2025-03-27T21:34:41.341-05:00
80.000000,259.571494,0.303040,7.258719,44.937757,286.981494,180.671096,2.150555,3.000000,-93.170632,4.759299,2025-03-27T21:34:43.000-05:00,-0.156603,-0.992252,-0.067953,2025-03-27T21:34:42.343-05:00,0.591596,-0.176194,-0.052848,2025-03-27T21:34:42.345-05:00
81.000000,259.667881,0.303810,7.258866,44.937707,287.077880,180.859951,2.186601,3.000000,-93.170631,5.376723,2025-03-27T21:34:44.000-05:00,-0.173029,-1.002519,-0.064017,2025-03-27T21:34:43.338-05:00,0.215741,-0.230747,-0.071445,2025-03-27T21:34:43.340-05:00
82.000000,259.998002,0.319825,7.257376,44.937653,287.408002,180.987798,2.327177,3.000000,-93.170630,5.758061,2025-03-27T21:34:45.000-05:00,-0.167967,-0.990648,-0.049987,2025-03-27T21:34:44.343-05:00,0.019382,-0.058758,-0.085056,2025-03-27T21:34:44.345-05:00
83.000000,260.417283,0.323655,7.255410,44.937600,287.827283,180.586145,2.322923,3.000000,-93.170626,5.874214,2025-03-27T21:34:46.000-05:00,-0.171845,-0.980403,-0.024083,2025-03-27T21:34:45.337-05:00,-0.022811,0.046559,0.012749,2025-03-27T21:34:45.340-05:00
84.000000,260.803686,0.323051,7.255743,44.937548,288.213686,179.029744,2.342612,3.000000,-93.170622,5.880080,2025-03-27T21:34:47.000-05:00,-0.178337,-0.981717,0.000922,2025-03-27T21:34:46.342-05:00,-0.040697,0.028910,0.144772,2025-03-27T21:34:46.345-05:00
85.000000,261.082933,0.319877,7.257046,44.937493,288.492932,177.000538,2.354178,3.000000,-93.170616,5.990136,2025-03-27T21:34:48.000-05:00,-0.226947,-0.972581,-0.023263,2025-03-27T21:34:47.337-05:00,-0.470878,0.104076,0.041618,2025-03-27T21:34:47.340-05:00
86.000000,261.306224,0.319663,7.257238,44.937441,288.716224,175.045494,2.334884,3.000000,-93.170607,5.608152,2025-03-27T21:34:49.000-05:00,-0.252089,-0.962609,-0.078234,2025-03-27T21:34:48.342-05:00,-0.742391,0.204396,-0.325597,2025-03-27T21:34:48.344-05:00
87.000000,261.494779,0.325496,7.258046,44.937397,288.904779,174.761346,2.327927,3.000000,-93.170599,4.982546,2025-03-27T21:34:50.000-05:00,-0.297053,-0.942728,-0.107822,2025-03-27T21:34:49.337-05:00,-1.075005,0.372020,-0.501859,2025-03-27T21:34:49.339-05:00
88.000000,261.559321,0.321145,7.384547,44.937363,288.969321,176.160082,2.311531,3.000000,-93.170595,3.872063,2025-03-27T21:34:51.000-05:00,-0.336996,-0.941154,-0.095495,2025-03-27T21:34:50.342-05:00,-1.319105,0.356785,-0.366678,2025-03-27T21:34:50.344-05:00
89.000000,261.630756,0.303329,8.981294,44.937339,289.040756,177.004681,2.295955,3.000000,-93.170597,2.778249,2025-03-27T21:34:52.000-05:00,-0.321535,-0.940053,-0.092201,2025-03-27T21:34:51.336-05:00,-0.745330,0.264205,-0.232582,2025-03-27T21:34:51.339-05:00
90.000000,261.562350,0.301623,13.636591,44.937327,288.972349,175.609329,2.293373,3.000000,-93.170601,1.829504,2025-03-27T21:34:53.000-05:00,-0.245612,-0.980995,-0.062903,2025-03-27T21:34:52.341-05:00,-0.028814,-0.131438,0.088152,2025-03-27T21:34:52.344-05:00
91.000000,261.682328,0.307182,12.976776,44.937306,289.092328,175.609329,2.339375,3.000000,-93.170597,1.923281,2025-03-27T21:34:54.000-05:00,-0.191721,-0.962463,-0.101845,2025-03-27T21:34:53.336-05:00,0.437352,0.050655,-0.164034,2025-03-27T21:34:53.339-05:00
92.000000,261.739505,0.304861,10.361160,44.937283,289.149505,175.609329,2.322406,3.000000,-93.170595,2.408324,2025-03-27T21:34:55.000-05:00,-0.167196,-0.987052,-0.068482,2025-03-27T21:34:54.341-05:00,0.763399,-0.205350,0.115111,2025-03-27T21:34:54.343-05:00
93.000000,261.776132,0.293788,10.055019,44.937254,289.186132,178.623428,2.306286,3.000000,-93.170593,3.118623,2025-03-27T21:34:56.000-05:00,-0.175978,-0.981134,-0.072529,2025-03-27T21:34:55.336-05:00,0.626872,-0.127239,-0.012084,2025-03-27T21:34:55.338-05:00
94.000000,261.628559,0.302552,7.258362,44.937222,289.038559,178.623428,2.295210,3.000000,-93.170592,3.575583,2025-03-27T21:34:57.000-05:00,-0.167269,-0.980333,-0.065047,2025-03-27T21:34:56.341-05:00,0.660675,-0.108797,0.106166,2025-03-27T21:34:56.343-05:00
95.000000,261.548309,0.293187,7.257865,44.937184,288.958309,178.623428,2.303419,3.000000,-93.170593,4.236620,2025-03-27T21:34:58.000-05:00,-0.166712,-0.986043,-0.071460,2025-03-27T21:34:57.336-05:00,0.687391,-0.174104,0.070001,2025-03-27T21:34:57.338-05:00
96.000000,261.342648,0.290685,7.257870,44.937141,288.752648,180.311371,2.321220,3.000000,-93.170592,4.862416,2025-03-27T21:34:59.000-05:00,-0.159276,-0.983266,-0.057176,2025-03-27T21:34:58.340-05:00,0.739006,-0.131387,0.131208,2025-03-27T21:34:58.343-05:00
97.000000,261.808353,0.280302,7.257928,44.937089,289.218352,180.311371,2.346711,3.000000,-93.170587,5.601328,2025-03-27T21:35:00.000-05:00,-0.185018,-0.983706,-0.054179,2025-03-27T21:34:59.345-05:00,0.497478,-0.140652,0.131193,2025-03-27T21:34:59.338-05:00
98.000000,261.807206,0.276667,7.257367,44.937031,289.217205,180.311371,2.351488,3.000000,-93.170587,6.183184,2025-03-27T21:35:01.000-05:00,-0.222317,-0.969204,-0.068938,2025-03-27T21:35:00.340-05:00,0.121172,0.000858,0.008046,2025-03-27T21:35:00.343-05:00
99.000000,261.780939,0.290118,7.256383,44.936972,289.190939,181.198456,2.324646,3.000000,-93.170589,6.285123,2025-03-27T21:35:02.000-05:00,-0.293159,-0.953651,-0.077712,2025-03-27T21:35:01.345-05:00,-0.556565,0.151548,-0.060833,2025-03-27T21:35:01.337-05:00
100.000000,261.732718,0.290791,7.254287,44.936918,289.142718,181.198456,2.293140,3.000000,-93.170591,5.747197,2025-03-27T21:35:03.000-05:00,-0.373347,-0.933828,-0.093245,2025-03-27T21:35:02.340-05:00,-1.298805,0.336651,-0.222241,2025-03-27T21:35:02.342-05:00
101.000000,261.495163,0.269033,7.318100,44.936880,288.905163,181.198456,2.266491,3.000000,-93.170590,4.359471,2025-03-27T21:35:04.000-05:00,-0.355922,-0.941274,-0.081184,2025-03-27T21:35:03.345-05:00,-1.139784,0.264034,-0.124498,2025-03-27T21:35:03.337-05:00
102.000000,261.386650,0.287859,8.081844,44.936850,288.796650,178.077042,2.340756,3.000000,-93.170590,3.290783,2025-03-27T21:35:05.000-05:00,-0.369710,-0.947876,-0.080264,2025-03-27T21:35:04.339-05:00,-1.210296,0.208355,-0.155231,2025-03-27T21:35:04.342-05:00
103.000000,261.320340,0.294923,18.364880,44.936834,288.730340,178.077042,2.314544,3.000000,-93.170587,1.810393,2025-03-27T21:35:06.000-05:00,-0.227953,-0.975815,-0.052946,2025-03-27T21:35:05.344-05:00,0.092480,-0.079975,0.044634,2025-03-27T21:35:05.337-05:00
104.000000,261.288261,0.301961,10.649817,44.936813,288.698261,173.430023,2.292077,3.000000,-93.170585,2.342855,2025-03-27T21:35:06.999-05:00,-0.212104,-0.963920,-0.030747,2025-03-27T21:35:06.339-05:00,0.442681,0.005500,0.320549,2025-03-27T21:35:06.342-05:00
105.000000,261.180295,0.296947,10.290964,44.936787,288.590295,173.430023,2.272605,3.000000,-93.170581,2.945457,2025-03-27T21:35:07.999-05:00,-0.154287,-0.987099,-0.032681,2025-03-27T21:35:07.344-05:00,0.902640,-0.202313,0.317283,2025-03-27T21:35:07.336-05:00
106.000000,261.236515,0.297669,7.531625,44.936755,288.646515,170.975189,2.255567,3.000000,-93.170575,3.661713,2025-03-27T21:35:08.999-05:00,-0.168770,-0.988623,-0.004271,2025-03-27T21:35:08.339-05:00,0.749131,-0.204874,0.547204,2025-03-27T21:35:08.341-05:00
107.000000,261.255373,0.297140,7.258207,44.936719,288.665373,160.418549,2.240534,3.000000,-93.170559,4.323504,2025-03-27T21:35:09.999-05:00,-0.176948,-0.987889,-0.000814,2025-03-27T21:35:09.344-05:00,0.623296,-0.187237,0.569581,2025-03-27T21:35:09.336-05:00
108.000000,261.229159,0.293382,7.258045,44.936676,288.639159,160.418549,2.227171,3.000000,-93.170532,5.050465,2025-03-27T21:35:10.999-05:00,-0.176398,-0.991882,0.010432,2025-03-27T21:35:10.339-05:00,0.535828,-0.192586,0.631576,2025-03-27T21:35:10.341-05:00
109.000000,261.394418,0.289268,7.257754,44.936628,288.804418,153.373535,2.222621,3.000000,-93.170497,5.790004,2025-03-27T21:35:11.999-05:00,-0.235939,-0.968541,-0.004380,2025-03-27T21:35:11.343-05:00,-0.079801,0.029350,0.418049,2025-03-27T21:35:11.336-05:00
110.000000,261.360473,0.296486,7.257491,44.936585,288.770473,145.532547,2.211490,3.000000,-93.170455,5.773665,2025-03-27T21:35:12.999-05:00,-0.272351,-0.963143,-0.006320,2025-03-27T21:35:12.338-05:00,-0.467322,0.105784,0.288492,2025-03-27T21:35:12.341-05:00
111.000000,261.096840,0.296409,7.256623,44.936545,288.506840,145.532547,2.200916,3.000000,-93.170411,5.549378,2025-03-27T21:35:13.999-05:00,-0.283479,-0.954993,-0.097800,2025-03-27T21:35:13.343-05:00,-0.573135,0.179718,-0.531893,2025-03-27T21:35:13.336-05:00
112.000000,261.008599,0.292521,7.257405,44.936508,288.418599,138.235703,2.190870,3.000000,-93.170371,5.116919,2025-03-27T21:35:14.999-05:00,-0.275518,-0.959685,-0.163649,2025-03-27T21:35:14.338-05:00,-0.447147,0.116010,-1.095804,2025-03-27T21:35:14.340-05:00
113.000000,260.998139,0.290063,7.258248,44.936474,288.408139,150.117874,2.208370,3.000000,-93.170341,4.512490,2025-03-27T21:35:15.999-05:00,-0.278896,-0.941333,-0.192020,2025-03-27T21:35:15.343-05:00,-0.524786,0.306417,-1.293688,2025-03-27T21:35:15.345-05:00
114.000000,261.046112,0.294684,7.257269,44.936440,288.456112,159.606750,2.205960,3.000000,-93.170324,4.094088,2025-03-27T21:35:16.999-05:00,-0.371434,-0.940011,-0.162965,2025-03-27T21:35:16.338-05:00,-1.263900,0.272392,-0.927198,2025-03-27T21:35:16.340-05:00
115.000000,261.103021,0.293890,12.694039,44.936419,288.513021,175.374130,2.195662,3.000000,-93.170322,2.436087,2025-03-27T21:35:17.999-05:00,-0.302885,-0.947215,-0.076603,2025-03-27T21:35:17.342-05:00,-0.707701,0.233037,-0.142866,2025-03-27T21:35:17.345-05:00
116.000000,261.132110,0.308593,13.417005,44.936404,288.542110,178.325592,2.190356,3.000000,-93.170321,1.860156,2025-03-27T21:35:18.999-05:00,-0.211239,-0.964961,-0.055256,2025-03-27T21:35:18.337-05:00,0.019565,0.101373,0.033593,2025-03-27T21:35:18.340-05:00
117.000000,261.500565,0.328966,20.916947,44.936386,288.910565,178.325592,2.180838,3.000000,-93.170321,2.255992,2025-03-27T21:35:19.999-05:00,-0.192309,-0.995594,-0.048292,2025-03-27T21:35:19.342-05:00,0.416460,-0.249574,0.110143,2025-03-27T21:35:19.345-05:00
118.000000,261.587313,0.298809,10.948652,44.936367,288.997312,178.325592,2.173574,3.000000,-93.170320,2.278442,2025-03-27T21:35:20.999-05:00,-0.134323,-0.986964,-0.038362,2025-03-27T21:35:20.337-05:00,1.001674,-0.173127,0.264994,2025-03-27T21:35:20.339-05:00
119.000000,261.583270,0.307583,7.490106,44.936335,288.993269,178.325592,2.164895,3.000000,-93.170322,3.366928,2025-03-27T21:35:21.999-05:00,-0.130642,-0.996765,-0.051411,2025-03-27T21:35:21.342-05:00,0.927269,-0.246886,0.203304,2025-03-27T21:35:21.344-05:00
120.000000,261.531492,0.306048,7.258955,44.936296,288.941492,178.775620,2.156650,3.000000,-93.170325,4.292271,2025-03-27T21:35:22.999-05:00,-0.134615,-0.994748,-0.046450,2025-03-27T21:35:22.337-05:00,0.807919,-0.211301,0.286968,2025-03-27T21:35:22.339-05:00
121.000000,261.504970,0.305048,7.258950,44.936252,288.914970,180.075195,2.148818,3.000000,-93.170325,5.071085,2025-03-27T21:35:23.999-05:00,-0.139032,-0.984014,-0.050685,2025-03-27T21:35:23.341-05:00,0.724004,-0.094861,0.248649,2025-03-27T21:35:23.344-05:00
122.000000,261.484390,0.296213,7.258768,44.936199,288.894390,180.075195,2.156593,3.000000,-93.170326,5.958193,2025-03-27T21:35:24.999-05:00,-0.159117,-0.992422,-0.047892,2025-03-27T21:35:24.336-05:00,0.567232,-0.186230,0.234376,2025-03-27T21:35:24.339-05:00
123.000000,261.359039,0.290131,7.258186,44.936139,288.769039,180.075195,2.148763,3.000000,-93.170329,6.563967,2025-03-27T21:35:25.999-05:00,-0.158127,-0.982496,-0.048381,2025-03-27T21:35:25.341-05:00,0.515254,-0.072827,0.212307,2025-03-27T21:35:25.344-05:00
124.000000,261.387059,0.284677,7.258149,44.936073,288.797059,180.075195,2.135450,3.000000,-93.170330,7.301532,2025-03-27T21:35:26.999-05:00,-0.165030,-0.994983,-0.053161,2025-03-27T21:35:26.336-05:00,0.375004,-0.180766,0.175157,2025-03-27T21:35:26.339-05:00
125.000000,261.350532,0.282839,7.258183,44.936001,288.760531,180.075195,2.113444,3.000000,-93.170330,7.834945,2025-03-27T21:35:27.999-05:00,-0.174566,-0.985515,-0.050818,2025-03-27T21:35:27.341-05:00,0.208894,-0.070804,0.155275,2025-03-27T21:35:27.343-05:00
126.000000,261.477967,0.286461,7.258416,44.935924,288.887967,180.075195,2.085775,3.000000,-93.170330,8.395406,2025-03-27T21:35:28.999-05:00,-0.184214,-0.969068,-0.050742,2025-03-27T21:35:28.336-05:00,0.118731,0.091600,0.159713,2025-03-27T21:35:28.338-05:00
127.000000,261.348645,0.259591,7.256936,44.935845,288.758645,180.075195,2.069057,3.000000,-93.170329,8.887396,2025-03-27T21:35:29.999-05:00,-0.197978,-0.979363,-0.053778,2025-03-27T21:35:29.341-05:00,0.053599,-0.027290,0.109716,2025-03-27T21:35:29.343-05:00
128.000000,261.256171,0.262398,7.256339,44.935762,288.666171,180.075195,2.044866,3.000000,-93.170328,9.177095,2025-03-27T21:35:30.999-05:00,-0.239471,-0.973758,-0.080893,2025-03-27T21:35:30.345-05:00,-0.449204,0.049417,-0.088863,2025-03-27T21:35:30.338-05:00
129.000000,261.274915,0.289165,7.257393,44.935681,288.684915,180.075195,2.028635,3.000000,-93.170330,9.120554,2025-03-27T21:35:31.999-05:00,-0.254726,-0.970707,-0.071499,2025-03-27T21:35:31.340-05:00,-0.587871,0.074077,-0.088144,2025-03-27T21:35:31.343-05:00
130.000000,261.363164,0.297653,7.258185,44.935604,288.773164,180.075195,2.018479,3.000000,-93.170329,8.731267,2025-03-27T21:35:33.000-05:00,-0.248669,-0.961470,-0.069308,2025-03-27T21:35:32.345-05:00,-0.516736,0.167950,-0.022166,2025-03-27T21:35:32.338-05:00
131.000000,261.301672,0.293498,7.257146,44.935529,288.711672,180.631470,2.012102,3.000000,-93.170329,8.354008,2025-03-27T21:35:34.000-05:00,-0.234972,-0.961895,-0.076037,2025-03-27T21:35:33.340-05:00,-0.332111,0.141308,-0.079251,2025-03-27T21:35:33.342-05:00
132.000000,261.272726,0.296217,7.257902,44.935452,288.682726,180.631470,2.008010,3.000000,-93.170330,8.551478,2025-03-27T21:35:35.000-05:00,-0.215399,-0.970493,-0.057258,2025-03-27T21:35:34.345-05:00,-0.080585,0.067686,0.041860,2025-03-27T21:35:34.337-05:00
133.000000,261.226177,0.291363,7.256866,44.935376,288.636177,180.631470,2.005325,3.000000,-93.170331,8.559710,2025-03-27T21:35:36.000-05:00,-0.225493,-0.975982,-0.048860,2025-03-27T21:35:35.340-05:00,-0.120866,-0.008059,0.066214,2025-03-27T21:35:35.342-05:00
134.000000,261.159599,0.294317,7.257697,44.935299,288.569599,180.631470,2.003526,3.000000,-93.170330,8.629535,2025-03-27T21:35:37.000-05:00,-0.247071,-0.967759,-0.049832,2025-03-27T21:35:36.344-05:00,-0.333979,0.078001,0.038622,2025-03-27T21:35:36.337-05:00
135.000000,261.201410,0.294471,7.257816,44.935221,288.611410,180.631470,2.002303,3.000000,-93.170330,8.574930,2025-03-27T21:35:38.000-05:00,-0.261313,-0.964059,-0.070569,2025-03-27T21:35:37.339-05:00,-0.438341,0.094799,-0.046799,2025-03-27T21:35:37.342-05:00
136.000000,261.216808,0.296726,7.258178,44.935148,288.626808,180.631470,2.061175,3.000000,-93.170329,8.065023,2025-03-27T21:35:39.000-05:00,-0.265279,-0.959234,-0.081978,2025-03-27T21:35:38.344-05:00,-0.588700,0.169174,-0.116999,2025-03-27T21:35:38.337-05:00
137.000000,261.109744,0.295971,7.258292,44.935078,288.519743,180.631470,2.094615,3.000000,-93.170328,7.737764,2025-03-27T21:35:40.000-05:00,-0.338999,-0.948007,-0.097577,2025-03-27T21:35:39.339-05:00,-1.177726,0.239421,-0.250940,2025-03-27T21:35:39.341-05:00
138.000000,261.264121,0.289802,7.258743,44.935021,288.674121,180.631470,2.081712,3.000000,-93.170325,6.447039,2025-03-27T21:35:41.000-05:00,-0.419736,-0.920601,-0.106966,2025-03-27T21:35:40.344-05:00,-1.908948,0.506698,-0.355561,2025-03-27T21:35:40.336-05:00
139.000000,261.363448,0.290621,7.556639,44.934980,288.773448,180.631470,2.059519,3.000000,-93.170326,4.486406,2025-03-27T21:35:42.000-05:00,-0.419872,-0.922974,-0.105773,2025-03-27T21:35:41.339-05:00,-1.807871,0.453872,-0.329364,2025-03-27T21:35:41.341-05:00
140.000000,261.352918,0.303777,9.585005,44.934958,288.762918,180.631470,2.047615,3.000000,-93.170326,2.603717,2025-03-27T21:35:43.000-05:00,-0.324222,-0.946422,-0.081794,2025-03-27T21:35:42.343-05:00,-0.788300,0.202431,-0.104317,2025-03-27T21:35:42.336-05:00
141.000000,261.236154,0.305457,15.075786,44.934946,288.646154,180.631470,2.039679,3.000000,-93.170331,1.655391,2025-03-27T21:35:44.000-05:00,-0.252075,-0.976266,-0.073593,2025-03-27T21:35:43.338-05:00,-0.060386,-0.108097,-0.058807,2025-03-27T21:35:43.341-05:00
142.000000,261.674281,0.311885,15.834580,44.934932,289.084281,180.631470,2.034011,3.000000,-93.170328,1.575950,2025-03-27T21:35:45.000-05:00,-0.180406,-0.972032,-0.038306,2025-03-27T21:35:44.343-05:00,0.672455,-0.040673,0.224035,2025-03-27T21:35:44.336-05:00
143.000000,261.551179,0.304649,11.091649,44.934911,288.961179,179.753693,2.304352,3.000000,-93.170331,2.249697,2025-03-27T21:35:46.000-05:00,-0.147349,-0.992152,-0.038320,2025-03-27T21:35:45.338-05:00,1.175929,-0.304206,0.275653,2025-03-27T21:35:45.340-05:00
144.000000,261.542595,0.286835,9.575413,44.934882,288.952595,179.753693,2.323589,3.000000,-93.170330,3.213442,2025-03-27T21:35:47.000-05:00,-0.143118,-0.989761,-0.034031,2025-03-27T21:35:46.343-05:00,1.186431,-0.272925,0.340716,2025-03-27T21:35:46.345-05:00
145.000000,261.161546,0.295510,7.257963,44.934844,288.571546,179.753693,2.310194,3.000000,-93.170336,4.168703,2025-03-27T21:35:48.000-05:00,-0.138558,-0.987307,-0.041704,2025-03-27T21:35:47.338-05:00,1.175184,-0.233961,0.286432,2025-03-27T21:35:47.340-05:00
146.000000,261.100714,0.288912,7.257766,44.934798,288.510713,179.753693,2.283698,3.000000,-93.170338,5.151696,2025-03-27T21:35:49.000-05:00,-0.154023,-0.992552,-0.045305,2025-03-27T21:35:48.343-05:00,1.002788,-0.281346,0.269648,2025-03-27T21:35:48.345-05:00
147.000000,261.040794,0.260509,7.255907,44.934743,288.450794,179.753693,2.277130,3.000000,-93.170336,5.962876,2025-03-27T21:35:50.000-05:00,-0.223261,-0.971018,-0.066829,2025-03-27T21:35:49.337-05:00,0.327292,-0.072019,0.059457,2025-03-27T21:35:49.340-05:00
148.000000,260.943482,0.284999,7.255142,44.934686,288.353481,179.753693,2.255792,3.000000,-93.170336,6.181434,2025-03-27T21:35:51.000-05:00,-0.257924,-0.964219,-0.065114,2025-03-27T21:35:50.342-05:00,-0.032815,0.004885,0.040125,2025-03-27T21:35:50.345-05:00
149.000000,260.877738,0.293700,7.255838,44.934630,288.287737,179.753693,2.234009,3.000000,-93.170332,6.205286,2025-03-27T21:35:52.000-05:00,-0.260979,-0.963641,-0.061875,2025-03-27T21:35:51.337-05:00,-0.091190,0.016057,0.047602,2025-03-27T21:35:51.340-05:00
150.000000,260.784270,0.294640,7.255835,44.934579,288.194270,179.753693,2.216008,3.000000,-93.170332,5.880873,2025-03-27T21:35:53.000-05:00,-0.275642,-0.959568,-0.058456,2025-03-27T21:35:52.342-05:00,-0.252434,0.067954,0.022846,2025-03-27T21:35:52.344-05:00
151.000000,260.767970,0.295309,7.256698,44.934530,288.177970,179.753693,2.236079,3.000000,-93.170329,5.489559,2025-03-27T21:35:54.000-05:00,-0.329579,-0.945707,-0.072841,2025-03-27T21:35:53.337-05:00,-0.790113,0.202979,-0.110301,2025-03-27T21:35:53.339-05:00
152.000000,260.692851,0.273756,7.256971,44.934488,288.102851,179.753693,2.220340,3.000000,-93.170327,4.655744,2025-03-27T21:35:55.000-05:00,-0.374885,-0.936515,-0.085387,2025-03-27T21:35:54.342-05:00,-1.224776,0.291172,-0.209775,2025-03-27T21:35:54.344-05:00
153.000000,260.608304,0.293344,7.911862,44.934458,288.018304,179.753693,2.206569,3.000000,-93.170325,3.390540,2025-03-27T21:35:56.000-05:00,-0.382011,-0.932814,-0.087578,2025-03-27T21:35:55.336-05:00,-1.207827,0.301407,-0.207676,2025-03-27T21:35:55.339-05:00
154.000000,260.548789,0.293458,13.228497,44.934443,287.958789,179.753693,2.194418,3.000000,-93.170324,1.885895,2025-03-27T21:35:57.000-05:00,-0.302135,-0.953901,-0.079368,2025-03-27T21:35:56.341-05:00,-0.381052,0.078088,-0.067706,2025-03-27T21:35:56.344-05:00
