seconds_elapsed,location_altitude,location_speedAccuracy,location_bearingAccuracy,location_latitude,location_altitudeAboveMeanSeaLevel,location_bearing,location_horizontalAccuracy,location_verticalAccuracy,location_longitude,location_speed,location_local_time,accelerometerUncalibrated_z,accelerometerUncalibrated_y,accelerometerUncalibrated_x,accelerometerUncalibrated_local_time,accelerometer_z,accelerometer_y,accelerometer_x,accelerometer_local_time
0.000000,263.352120,2.437786,60.591594,44.934315,290.762119,293.537987,3.144343,3.000000,-93.166966,3.240642,2025-03-20T19:27:53.000-05:00,-0.162887,-0.975113,-0.225758,2025-03-20T19:27:52.984-05:00,0.725455,-0.058533,-1.592440,2025-03-20T19:27:52.994-05:00
1.000000,263.352472,2.359604,49.897556,44.934348,290.762472,312.957115,3.094428,3.000000,-93.166996,3.831699,2025-03-20T19:27:54.000-05:00,-0.142170,-0.994830,-0.136151,2025-03-20T19:27:53.969-05:00,0.870453,-0.224508,-1.158575,2025-03-20T19:27:53.969-05:00
2.000000,263.214699,2.210969,35.639152,44.934401,290.624699,340.535671,3.140802,3.000000,-93.167005,5.017540,2025-03-20T19:27:55.000-05:00,-0.111818,-1.006376,0.051079,2025-03-20T19:27:54.964-05:00,1.044224,-0.298647,0.292071,2025-03-20T19:27:54.964-05:00
3.000000,263.191424,2.108586,26.680516,44.934464,290.601424,0.150168,3.088689,3.000000,-93.166993,6.401404,2025-03-20T19:27:56.000-05:00,-0.149519,-0.994465,0.047925,2025-03-20T19:27:55.968-05:00,0.674940,-0.181352,0.323769,2025-03-20T19:27:55.968-05:00
4.000000,263.124833,2.000278,20.847056,44.934540,290.534833,0.150168,3.113895,3.000000,-93.166988,7.773787,2025-03-20T19:27:57.000-05:00,-0.142667,-0.994434,0.027598,2025-03-20T19:27:56.973-05:00,0.632282,-0.160738,0.231527,2025-03-20T19:27:56.973-05:00
5.000000,263.207446,1.932180,17.325735,44.934625,290.617446,359.502319,2.920282,3.000000,-93.166989,9.036189,2025-03-20T19:27:58.000-05:00,-0.164229,-0.990679,0.004748,2025-03-20T19:27:57.968-05:00,0.363144,-0.115294,0.128651,2025-03-20T19:27:57.968-05:00
6.000000,263.408189,1.868153,14.916320,44.934719,290.818189,359.502319,3.136668,3.000000,-93.166989,10.119846,2025-03-20T19:27:59.000-05:00,-0.190026,-0.983525,-0.011859,2025-03-20T19:27:58.973-05:00,0.067159,-0.029123,0.037170,2025-03-20T19:27:58.973-05:00
7.000000,263.540183,1.822324,13.293242,44.934821,290.950183,0.000000,3.362383,3.000000,-93.166988,11.044465,2025-03-20T19:28:00.000-05:00,-0.186780,-0.988742,-0.023661,2025-03-20T19:27:59.967-05:00,0.066010,-0.076082,-0.052738,2025-03-20T19:27:59.967-05:00
8.000000,263.554389,1.792318,12.457604,44.934927,290.964388,0.000000,3.037957,3.000000,-93.166985,11.656854,2025-03-20T19:28:01.000-05:00,-0.188560,-0.985022,-0.002470,2025-03-20T19:28:00.972-05:00,0.020082,-0.031862,0.092368,2025-03-20T19:28:00.972-05:00
9.000000,263.371580,1.771651,11.695329,44.935039,290.781580,0.000000,2.775481,3.000000,-93.166979,12.274392,2025-03-20T19:28:02.000-05:00,-0.189417,-0.981480,0.000871,2025-03-20T19:28:01.967-05:00,-0.026000,0.007295,0.164953,2025-03-20T19:28:01.967-05:00
10.000000,263.412416,1.729991,10.868956,44.935156,290.822416,0.000000,3.295043,3.000000,-93.166977,12.896727,2025-03-20T19:28:03.000-05:00,-0.221238,-0.964169,-0.012258,2025-03-20T19:28:02.972-05:00,-0.240611,0.148684,-0.029530,2025-03-20T19:28:02.972-05:00
11.000000,263.443713,1.714904,10.334089,44.935279,290.853712,0.000000,3.434476,3.000000,-93.166977,13.446374,2025-03-20T19:28:04.000-05:00,-0.239071,-0.978876,0.000908,2025-03-20T19:28:03.967-05:00,-0.501955,0.041463,-0.022684,2025-03-20T19:28:03.967-05:00
12.000000,263.667415,1.730876,10.224436,44.935404,291.077415,0.000000,2.742066,3.000000,-93.166978,13.714988,2025-03-20T19:28:05.000-05:00,-0.231450,-0.976321,-0.012037,2025-03-20T19:28:04.971-05:00,-0.433930,0.065732,-0.051301,2025-03-20T19:28:04.971-05:00
13.000000,263.754383,1.720584,10.010632,44.935532,291.164383,0.000000,2.861397,3.000000,-93.166984,13.925689,2025-03-20T19:28:06.000-05:00,-0.233933,-0.974124,-0.022220,2025-03-20T19:28:05.966-05:00,-0.452777,0.073432,-0.082673,2025-03-20T19:28:05.966-05:00
14.000000,263.948794,1.720590,9.890852,44.935659,291.358794,0.000000,3.081529,3.000000,-93.166984,14.094972,2025-03-20T19:28:07.000-05:00,-0.222206,-0.969881,-0.017223,2025-03-20T19:28:06.971-05:00,-0.304523,0.113775,-0.020758,2025-03-20T19:28:06.971-05:00
15.000000,264.035094,1.713928,9.731472,44.935787,291.445094,0.230496,2.794467,3.000000,-93.166981,14.270794,2025-03-20T19:28:08.000-05:00,-0.224477,-0.967446,-0.000336,2025-03-20T19:28:07.966-05:00,-0.278452,0.127933,0.035170,2025-03-20T19:28:07.966-05:00
16.000000,264.221062,1.690765,9.410174,44.935919,291.631062,0.230496,2.682295,3.000000,-93.166980,14.555905,2025-03-20T19:28:09.000-05:00,-0.222115,-0.979809,-0.005399,2025-03-20T19:28:08.971-05:00,-0.248073,0.000350,-0.028483,2025-03-20T19:28:08.971-05:00
17.000000,263.936583,1.701817,9.260400,44.936054,291.346583,0.230496,2.315333,3.000000,-93.166980,14.890887,2025-03-20T19:28:10.000-05:00,-0.219695,-0.964096,-0.005490,2025-03-20T19:28:09.965-05:00,-0.168675,0.153476,0.008981,2025-03-20T19:28:09.965-05:00
18.000000,264.163048,1.693447,9.045806,44.936190,291.573048,0.230496,2.801736,3.000000,-93.166980,15.168038,2025-03-20T19:28:11.000-05:00,-0.239905,-0.984202,-0.000316,2025-03-20T19:28:10.970-05:00,-0.326442,-0.060497,0.024341,2025-03-20T19:28:10.970-05:00
19.000000,264.383230,1.707671,9.011870,44.936329,291.793230,359.878601,2.357737,3.000000,-93.166976,15.350772,2025-03-20T19:28:12.000-05:00,-0.224863,-0.966351,-0.022840,2025-03-20T19:28:11.965-05:00,-0.205801,0.124276,-0.109235,2025-03-20T19:28:11.965-05:00
20.000000,264.514715,1.686304,8.769681,44.936469,291.924715,359.878601,2.159114,3.000000,-93.166976,15.579363,2025-03-20T19:28:13.000-05:00,-0.247423,-0.968773,-0.016186,2025-03-20T19:28:12.970-05:00,-0.378387,0.089718,-0.039539,2025-03-20T19:28:12.970-05:00
21.000000,264.640385,1.680939,8.640356,44.936612,292.050385,0.133630,2.088242,3.000000,-93.166974,15.762016,2025-03-20T19:28:14.000-05:00,-0.287892,-0.962120,-0.025486,2025-03-20T19:28:13.965-05:00,-0.715161,0.140156,-0.127532,2025-03-20T19:28:13.965-05:00
22.000000,264.753639,1.684922,8.741617,44.936753,292.163639,0.133630,2.063222,3.000000,-93.166973,15.616577,2025-03-20T19:28:15.000-05:00,-0.277449,-0.968953,-0.026459,2025-03-20T19:28:14.969-05:00,-0.617915,0.074829,-0.130815,2025-03-20T19:28:14.969-05:00
23.000000,265.027396,1.666643,8.848575,44.936889,292.437396,0.133630,2.367646,3.000000,-93.166974,15.259077,2025-03-20T19:28:16.000-05:00,-0.276707,-0.955395,-0.020001,2025-03-20T19:28:15.964-05:00,-0.558332,0.194774,-0.067865,2025-03-20T19:28:15.964-05:00
24.000000,265.339917,1.688303,9.133696,44.937025,292.749917,0.679098,2.162964,3.000000,-93.166975,14.974369,2025-03-20T19:28:17.000-05:00,-0.246813,-0.969123,-0.040428,2025-03-20T19:28:16.969-05:00,-0.204662,0.052634,-0.208405,2025-03-20T19:28:16.969-05:00
25.000000,265.319172,1.714372,9.364949,44.937160,292.729172,359.884857,2.362287,3.000000,-93.166975,14.832352,2025-03-20T19:28:18.000-05:00,-0.241342,-0.966956,-0.018195,2025-03-20T19:28:17.964-05:00,-0.169867,0.070884,0.026457,2025-03-20T19:28:17.964-05:00
26.000000,265.203474,0.307810,7.258544,44.937295,292.613473,359.884857,2.163653,3.000000,-93.166971,14.894683,2025-03-20T19:28:19.000-05:00,-0.243910,-0.960609,-0.019944,2025-03-20T19:28:18.968-05:00,-0.156422,0.126530,-0.042177,2025-03-20T19:28:18.968-05:00
27.000000,265.217580,0.304401,7.258577,44.937430,292.627579,359.884857,2.544484,3.000000,-93.166971,14.934013,2025-03-20T19:28:20.000-05:00,-0.247283,-0.972041,-0.009594,2025-03-20T19:28:19.973-05:00,-0.163369,0.007305,0.026810,2025-03-20T19:28:19.973-05:00
28.000000,265.273266,0.300228,7.257838,44.937565,292.683266,359.884857,2.246622,3.000000,-93.166969,14.968341,2025-03-20T19:28:21.000-05:00,-0.255034,-0.974431,-0.008627,2025-03-20T19:28:20.968-05:00,-0.205829,-0.025318,0.010773,2025-03-20T19:28:20.968-05:00
29.000000,265.224171,0.298834,7.257762,44.937701,292.634171,0.565787,2.929423,3.000000,-93.166968,14.967987,2025-03-20T19:28:22.000-05:00,-0.284445,-0.944781,-0.006811,2025-03-20T19:28:21.973-05:00,-0.457815,0.261928,0.026291,2025-03-20T19:28:21.973-05:00
30.000000,265.224124,0.305791,7.258926,44.937836,292.634124,0.000000,2.419412,3.000000,-93.166968,14.764992,2025-03-20T19:28:23.000-05:00,-0.267834,-0.945804,-0.049359,2025-03-20T19:28:22.968-05:00,-0.278048,0.254123,-0.245088,2025-03-20T19:28:22.968-05:00
31.000000,265.323999,0.305845,7.258944,44.937966,292.733999,0.000000,2.190741,3.000000,-93.166970,14.431533,2025-03-20T19:28:24.000-05:00,-0.281462,-0.939395,-0.032377,2025-03-20T19:28:23.972-05:00,-0.205671,0.245960,-0.100069,2025-03-20T19:28:23.972-05:00
32.000000,265.100928,0.354111,7.253684,44.938093,292.510928,0.000000,2.116966,3.000000,-93.166969,14.214905,2025-03-20T19:28:25.000-05:00,-0.289716,-0.959648,-0.023589,2025-03-20T19:28:24.967-05:00,-0.221941,0.032476,-0.033843,2025-03-20T19:28:24.967-05:00
33.000000,264.935940,0.375020,7.250748,44.938221,292.345940,0.435830,2.166962,3.000000,-93.166968,14.118942,2025-03-20T19:28:26.000-05:00,-0.287861,-0.957762,-0.018446,2025-03-20T19:28:25.972-05:00,-0.197074,0.057477,-0.078277,2025-03-20T19:28:25.972-05:00
34.000000,264.920614,0.369911,7.252886,44.938345,292.330613,0.435830,2.130743,3.000000,-93.166966,13.951713,2025-03-20T19:28:27.000-05:00,-0.290645,-0.955507,-0.015775,2025-03-20T19:28:26.967-05:00,-0.213328,0.074322,-0.039864,2025-03-20T19:28:26.967-05:00
35.000000,264.720587,0.382061,7.251143,44.938470,292.130586,0.435830,2.062145,3.000000,-93.166963,13.849702,2025-03-20T19:28:28.000-05:00,-0.287431,-0.956799,-0.016962,2025-03-20T19:28:27.972-05:00,-0.175539,0.058245,-0.061920,2025-03-20T19:28:27.972-05:00
36.000000,264.493104,0.395471,7.248699,44.938594,291.903104,0.435830,2.029736,3.000000,-93.166961,13.742841,2025-03-20T19:28:29.000-05:00,-0.284357,-0.954512,-0.024989,2025-03-20T19:28:28.966-05:00,-0.160831,0.082324,-0.040016,2025-03-20T19:28:28.966-05:00
37.000000,264.365510,0.398534,7.247814,44.938718,291.775510,0.435830,2.014252,3.000000,-93.166962,13.645835,2025-03-20T19:28:30.000-05:00,-0.289293,-0.961244,-0.024384,2025-03-20T19:28:29.971-05:00,-0.187591,0.016480,-0.023936,2025-03-20T19:28:29.971-05:00
38.000000,264.280574,0.399661,7.247950,44.938838,291.690573,0.435830,2.105637,3.000000,-93.166962,13.513135,2025-03-20T19:28:31.000-05:00,-0.291134,-0.966460,-0.031706,2025-03-20T19:28:30.966-05:00,-0.243493,-0.031635,-0.044149,2025-03-20T19:28:30.966-05:00
39.000000,264.265838,0.388936,7.250815,44.938960,291.675837,0.283027,2.051082,3.000000,-93.166962,13.381458,2025-03-20T19:28:32.000-05:00,-0.288537,-0.933796,-0.053873,2025-03-20T19:28:31.971-05:00,-0.198929,0.275858,-0.058522,2025-03-20T19:28:31.971-05:00
40.000000,264.151501,0.427915,7.242510,44.939078,291.561501,0.283027,2.248162,3.000000,-93.166962,13.149201,2025-03-20T19:28:33.000-05:00,-0.286907,-0.954151,-0.065247,2025-03-20T19:28:32.965-05:00,-0.157726,0.074229,-0.109971,2025-03-20T19:28:32.965-05:00
41.000000,264.095578,0.508506,7.220026,44.939192,291.505577,0.225603,2.312600,3.000000,-93.166956,12.852594,2025-03-20T19:28:34.000-05:00,-0.346801,-0.943834,-0.063134,2025-03-20T19:28:33.970-05:00,-0.689081,0.156501,-0.132155,2025-03-20T19:28:33.970-05:00
42.000000,263.956707,0.532768,7.217405,44.939304,291.366706,0.225603,2.632066,3.000000,-93.166956,12.445700,2025-03-20T19:28:35.000-05:00,-0.359416,-0.934621,-0.066011,2025-03-20T19:28:34.965-05:00,-0.784486,0.238886,-0.194899,2025-03-20T19:28:34.965-05:00
43.000000,263.771802,0.653742,7.191473,44.939409,291.181802,359.584412,2.914785,3.000000,-93.166957,11.618948,2025-03-20T19:28:36.000-05:00,-0.367897,-0.928378,-0.068024,2025-03-20T19:28:35.970-05:00,-0.800303,0.275018,-0.229387,2025-03-20T19:28:35.970-05:00
44.000000,263.575706,0.753057,7.146542,44.939503,290.985706,0.000000,2.491353,3.000000,-93.166957,10.667393,2025-03-20T19:28:37.000-05:00,-0.381436,-0.928708,-0.067950,2025-03-20T19:28:36.965-05:00,-0.847788,0.256519,-0.223725,2025-03-20T19:28:36.965-05:00
45.000000,263.423509,0.753410,7.102359,44.939589,290.833509,0.000000,2.273303,3.000000,-93.166956,9.657199,2025-03-20T19:28:38.000-05:00,-0.402022,-0.928459,-0.067656,2025-03-20T19:28:37.969-05:00,-0.933861,0.217499,-0.236415,2025-03-20T19:28:37.969-05:00
46.000000,263.335820,0.740321,7.041625,44.939664,290.745819,359.692200,2.158771,3.000000,-93.166954,8.383938,2025-03-20T19:28:39.000-05:00,-0.383528,-0.934434,-0.062233,2025-03-20T19:28:38.964-05:00,-0.714149,0.151595,-0.177226,2025-03-20T19:28:38.964-05:00
47.000000,263.380682,0.687462,7.171763,44.939728,290.790682,359.692200,2.096753,3.000000,-93.166954,7.169660,2025-03-20T19:28:40.000-05:00,-0.366549,-0.933518,-0.062108,2025-03-20T19:28:39.969-05:00,-0.502063,0.139140,-0.175844,2025-03-20T19:28:39.969-05:00
48.000000,263.447638,0.647539,7.379193,44.939780,290.857637,359.692200,2.069089,3.000000,-93.166952,6.072804,2025-03-20T19:28:41.000-05:00,-0.361877,-0.932720,-0.052940,2025-03-20T19:28:40.964-05:00,-0.389317,0.129606,-0.093995,2025-03-20T19:28:40.964-05:00
49.000000,263.462141,0.628526,7.753443,44.939828,290.872141,0.000000,2.050969,3.000000,-93.166950,5.195086,2025-03-20T19:28:42.000-05:00,-0.359163,-0.939429,-0.057878,2025-03-20T19:28:41.969-05:00,-0.393709,0.068939,-0.089829,2025-03-20T19:28:41.969-05:00
50.000000,263.361377,0.580847,8.605103,44.939865,290.771377,0.000000,2.040775,3.000000,-93.166946,4.274984,2025-03-20T19:28:43.000-05:00,-0.376351,-0.932265,-0.069461,2025-03-20T19:28:42.973-05:00,-0.570175,0.138358,-0.147231,2025-03-20T19:28:42.973-05:00
51.000000,263.419820,0.547482,13.593791,44.939896,290.829820,0.000000,2.074208,3.000000,-93.166948,3.420621,2025-03-20T19:28:44.000-05:00,-0.380022,-0.929335,-0.070252,2025-03-20T19:28:43.968-05:00,-0.582541,0.159919,-0.140941,2025-03-20T19:28:43.968-05:00
52.000000,263.479385,0.554769,21.282043,44.939916,290.889385,0.000000,2.063607,3.000000,-93.166948,2.197630,2025-03-20T19:28:45.000-05:00,-0.344322,-0.940822,-0.062055,2025-03-20T19:28:44.973-05:00,-0.215772,0.040077,-0.058625,2025-03-20T19:28:44.973-05:00
53.000000,263.554625,0.411034,22.121692,44.939927,290.964625,0.000000,2.124029,3.000000,-93.166947,1.214649,2025-03-20T19:28:46.000-05:00,-0.336973,-0.942742,-0.056827,2025-03-20T19:28:45.968-05:00,-0.108324,0.009937,-0.018219,2025-03-20T19:28:45.968-05:00
54.000000,263.641230,0.378835,41.241092,44.939932,291.051230,0.000000,2.156923,3.000000,-93.166949,0.585625,2025-03-20T19:28:47.000-05:00,-0.288665,-0.956236,-0.043652,2025-03-20T19:28:46.972-05:00,0.381321,-0.126721,0.109424,2025-03-20T19:28:46.972-05:00
55.000000,263.643915,0.310525,180.000000,44.939932,291.053915,0.000000,2.168705,3.000000,-93.166947,0.022088,2025-03-20T19:28:48.000-05:00,-0.270752,-0.961378,-0.039345,2025-03-20T19:28:47.967-05:00,0.520424,-0.165351,0.144050,2025-03-20T19:28:47.967-05:00
56.000000,263.678795,0.313728,180.000000,44.939929,291.088795,0.000000,2.474320,3.000000,-93.166949,0.026273,2025-03-20T19:28:49.000-05:00,-0.270257,-0.961187,-0.039542,2025-03-20T19:28:48.972-05:00,0.525416,-0.162315,0.138874,2025-03-20T19:28:48.972-05:00
57.000000,263.681389,0.313561,180.000000,44.939928,291.091388,0.000000,2.822110,3.000000,-93.166949,0.023760,2025-03-20T19:28:50.000-05:00,-0.271064,-0.961061,-0.038571,2025-03-20T19:28:49.967-05:00,0.509952,-0.159618,0.148041,2025-03-20T19:28:49.967-05:00
58.000000,263.671949,0.317063,180.000000,44.939926,291.081949,0.000000,2.957818,3.000000,-93.166949,0.038177,2025-03-20T19:28:51.000-05:00,-0.270399,-0.961351,-0.039783,2025-03-20T19:28:50.971-05:00,0.498003,-0.154007,0.132481,2025-03-20T19:28:50.971-05:00
59.000000,263.747084,0.321918,180.000000,44.939926,291.157084,0.000000,2.959896,3.000000,-93.166949,0.053666,2025-03-20T19:28:52.000-05:00,-0.270650,-0.961017,-0.038162,2025-03-20T19:28:51.966-05:00,0.466644,-0.140888,0.135535,2025-03-20T19:28:51.966-05:00
60.000000,263.788096,0.322811,180.000000,44.939925,291.198095,0.000000,3.022477,3.000000,-93.166949,0.051645,2025-03-20T19:28:53.000-05:00,-0.270791,-0.961240,-0.039387,2025-03-20T19:28:52.971-05:00,0.425425,-0.129731,0.115246,2025-03-20T19:28:52.971-05:00
61.000000,263.649989,0.323801,180.000000,44.939924,291.059989,0.000000,3.055162,3.000000,-93.166950,0.048356,2025-03-20T19:28:54.000-05:00,-0.270493,-0.961153,-0.039049,2025-03-20T19:28:53.966-05:00,0.386174,-0.114360,0.107215,2025-03-20T19:28:53.966-05:00
62.000000,263.604823,0.324298,180.000000,44.939923,291.014823,0.000000,3.016045,3.000000,-93.166948,0.060564,2025-03-20T19:28:55.000-05:00,-0.270470,-0.961255,-0.039095,2025-03-20T19:28:54.971-05:00,0.338792,-0.099454,0.092240,2025-03-20T19:28:54.971-05:00
63.000000,263.774417,0.324374,180.000000,44.939924,291.184416,0.000000,2.970941,3.000000,-93.166947,0.096199,2025-03-20T19:28:56.000-05:00,-0.270885,-0.961028,-0.038414,2025-03-20T19:28:55.965-05:00,0.299535,-0.084829,0.088482,2025-03-20T19:28:55.965-05:00
64.000000,263.660444,0.306919,180.000000,44.939924,291.070444,0.000000,3.035945,3.000000,-93.166946,0.000000,2025-03-20T19:28:57.000-05:00,-0.270704,-0.961265,-0.039318,2025-03-20T19:28:56.970-05:00,0.271036,-0.078458,0.072076,2025-03-20T19:28:56.970-05:00
65.000000,263.660444,0.306919,180.000000,44.939924,291.070444,0.000000,3.045490,3.000000,-93.166946,0.000000,2025-03-20T19:28:58.000-05:00,-0.244235,-0.968425,-0.031933,2025-03-20T19:28:57.965-05:00,0.498796,-0.138135,0.133739,2025-03-20T19:28:57.965-05:00
66.000000,263.660444,0.306919,180.000000,44.939924,291.070444,0.000000,3.083332,3.000000,-93.166946,0.000000,2025-03-20T19:28:59.000-05:00,-0.186134,-0.984423,-0.015843,2025-03-20T19:28:58.970-05:00,1.027335,-0.281211,0.275173,2025-03-20T19:28:58.970-05:00
67.000000,263.724447,0.331312,52.726061,44.939928,291.134447,0.000000,3.142143,3.000000,-93.166945,0.461877,2025-03-20T19:29:00.000-05:00,-0.070022,-1.015599,0.015896,2025-03-20T19:28:59.965-05:00,2.065061,-0.555195,0.524871,2025-03-20T19:28:59.965-05:00
68.000000,263.747307,0.549677,28.997074,44.939948,291.157306,0.000000,3.117479,3.000000,-93.166946,1.986599,2025-03-20T19:29:01.000-05:00,-0.125185,-1.002128,0.008488,2025-03-20T19:29:00.969-05:00,1.412405,-0.388269,0.366952,2025-03-20T19:29:00.969-05:00
69.000000,263.743958,0.384472,16.932775,44.939984,291.153958,0.000000,3.172118,3.000000,-93.166946,3.745600,2025-03-20T19:29:02.000-05:00,-0.161603,-0.997209,0.013971,2025-03-20T19:29:01.964-05:00,0.877405,-0.284708,0.296055,2025-03-20T19:29:01.964-05:00
70.000000,263.676513,0.292152,8.499854,44.940033,291.086513,0.000000,3.113512,3.000000,-93.166944,5.043625,2025-03-20T19:29:03.000-05:00,-0.144026,-0.986408,-0.004267,2025-03-20T19:29:02.969-05:00,0.828632,-0.129004,0.233913,2025-03-20T19:29:02.969-05:00
71.000000,263.829471,0.295803,7.537105,44.940089,291.239471,0.000000,3.057836,3.000000,-93.166943,6.042133,2025-03-20T19:29:04.000-05:00,-0.150324,-0.975899,-0.004289,2025-03-20T19:29:03.964-05:00,0.873775,-0.057635,0.265311,2025-03-20T19:29:03.964-05:00
72.000000,263.588816,0.232336,7.256935,44.940157,290.998816,0.000000,2.984041,3.000000,-93.166941,7.258151,2025-03-20T19:29:05.000-05:00,-0.164272,-0.993714,0.018487,2025-03-20T19:29:04.968-05:00,0.823119,-0.247644,0.354810,2025-03-20T19:29:04.968-05:00
73.000000,263.204754,0.141989,7.254080,44.940236,290.614753,0.195512,2.835595,3.000000,-93.166941,8.542872,2025-03-20T19:29:06.000-05:00,-0.202397,-0.993990,0.002942,2025-03-20T19:29:05.973-05:00,0.295143,-0.212600,0.152441,2025-03-20T19:29:05.973-05:00
74.000000,263.080803,0.185887,7.255334,44.940324,290.490803,0.195512,2.759000,3.000000,-93.166941,9.599382,2025-03-20T19:29:07.000-05:00,-0.198630,-0.987455,0.000869,2025-03-20T19:29:06.968-05:00,0.219498,-0.119756,0.086928,2025-03-20T19:29:06.968-05:00
75.000000,263.054501,0.195008,7.255343,44.940416,290.464501,0.195512,3.081986,3.000000,-93.166942,10.259411,2025-03-20T19:29:08.000-05:00,-0.193534,-0.977610,-0.013752,2025-03-20T19:29:07.973-05:00,0.208656,-0.010282,0.024070,2025-03-20T19:29:07.973-05:00
76.000000,263.021332,0.174339,7.255718,44.940516,290.431332,0.195512,2.723754,3.000000,-93.166943,10.950944,2025-03-20T19:29:09.000-05:00,-0.202451,-0.974081,-0.033215,2025-03-20T19:29:08.967-05:00,0.094772,0.041192,-0.148078,2025-03-20T19:29:08.967-05:00
77.000000,262.986348,0.162766,7.255446,44.940626,290.396348,0.195512,2.951129,3.000000,-93.166942,11.787839,2025-03-20T19:29:10.000-05:00,-0.248339,-0.966236,-0.013647,2025-03-20T19:29:09.972-05:00,-0.278727,0.086436,-0.104516,2025-03-20T19:29:09.972-05:00
78.000000,262.739598,0.307455,7.251123,44.940737,290.149598,359.438263,3.013529,3.000000,-93.166940,12.320666,2025-03-20T19:29:11.000-05:00,-0.267145,-0.957895,-0.005793,2025-03-20T19:29:10.967-05:00,-0.492013,0.188762,-0.026670,2025-03-20T19:29:10.967-05:00
79.000000,262.785577,0.195094,7.252993,44.940847,290.195577,359.107147,2.526018,3.000000,-93.166940,12.304272,2025-03-20T19:29:12.000-05:00,-0.268307,-0.964629,-0.012884,2025-03-20T19:29:11.972-05:00,-0.487966,0.098051,-0.031949,2025-03-20T19:29:11.972-05:00
80.000000,262.626255,0.232810,7.253295,44.940959,290.036255,359.107147,2.657995,3.000000,-93.166941,12.475646,2025-03-20T19:29:13.000-05:00,-0.266248,-0.965153,-0.013098,2025-03-20T19:29:12.967-05:00,-0.398281,0.089182,-0.141926,2025-03-20T19:29:12.967-05:00
81.000000,262.641858,0.255284,7.253360,44.941071,290.051858,0.206414,2.957144,3.000000,-93.166946,12.523967,2025-03-20T19:29:14.000-05:00,-0.268474,-0.964145,-0.040705,2025-03-20T19:29:13.971-05:00,-0.427505,0.100688,-0.328847,2025-03-20T19:29:13.971-05:00
