seconds_elapsed,location_altitude,location_speedAccuracy,location_bearingAccuracy,location_latitude,location_altitudeAboveMeanSeaLevel,location_bearing,location_horizontalAccuracy,location_verticalAccuracy,location_longitude,location_speed,location_local_time,accelerometerUncalibrated_z,accelerometerUncalibrated_y,accelerometerUncalibrated_x,accelerometerUncalibrated_local_time,accelerometer_z,accelerometer_y,accelerometer_x,accelerometer_local_time
0.000000,251.284079,0.380367,12.280488,44.939004,278.694079,123.663496,2.079664,3.000000,-93.177107,4.959688,2025-03-20T19:37:41.000-05:00,-0.299254,-0.964046,0.203484,2025-03-20T19:37:40.384-05:00,-0.724134,0.097785,1.514858,2025-03-20T19:37:40.394-05:00
1.000000,251.204588,0.372849,10.714257,44.938995,278.614588,102.187580,2.068284,3.000000,-93.177036,5.098777,2025-03-20T19:37:42.000-05:00,-0.224659,-0.971105,0.125509,2025-03-20T19:37:41.379-05:00,-0.109942,0.042975,0.697951,2025-03-20T19:37:41.379-05:00
2.000000,251.221153,0.327575,7.256647,44.938996,278.631153,90.161179,2.059483,3.000000,-93.176949,5.921210,2025-03-20T19:37:43.000-05:00,-0.133656,-0.994106,0.056830,2025-03-20T19:37:42.373-05:00,0.672136,-0.157561,0.062312,2025-03-20T19:37:42.373-05:00
3.000000,251.432402,0.350498,7.758219,44.938996,278.842402,90.161179,2.092722,3.000000,-93.176853,7.179104,2025-03-20T19:37:44.000-05:00,-0.163744,-0.988884,0.057045,2025-03-20T19:37:43.378-05:00,0.354634,-0.101927,0.078287,2025-03-20T19:37:43.378-05:00
4.000000,251.647328,0.332374,7.258369,44.938997,279.057328,90.161179,2.072894,3.000000,-93.176743,8.136807,2025-03-20T19:37:45.000-05:00,-0.173376,-0.986263,0.025884,2025-03-20T19:37:44.373-05:00,0.200803,-0.061965,-0.155706,2025-03-20T19:37:44.373-05:00
5.000000,251.908638,0.333350,7.258377,44.939000,279.318638,90.161179,2.052955,3.000000,-93.176628,8.895827,2025-03-20T19:37:46.000-05:00,-0.188318,-0.983269,0.016023,2025-03-20T19:37:45.378-05:00,0.036767,-0.025379,-0.273912,2025-03-20T19:37:45.378-05:00
6.000000,252.074256,0.319638,7.258858,44.939003,279.484256,90.161179,2.034993,3.000000,-93.176503,9.546254,2025-03-20T19:37:47.000-05:00,-0.203814,-0.977993,-0.009656,2025-03-20T19:37:46.373-05:00,-0.124723,0.023740,-0.512129,2025-03-20T19:37:46.373-05:00
7.000000,252.175876,0.315706,7.258897,44.939005,279.585876,90.161179,2.220915,3.000000,-93.176378,9.795358,2025-03-20T19:37:48.000-05:00,-0.265694,-0.957333,-0.022918,2025-03-20T19:37:47.377-05:00,-0.708577,0.221173,-0.596668,2025-03-20T19:37:47.377-05:00
8.000000,251.949408,0.317457,7.258485,44.939011,279.359408,90.161179,2.148288,3.000000,-93.176273,9.069991,2025-03-20T19:37:49.000-05:00,-0.267437,-0.960312,-0.032603,2025-03-20T19:37:48.372-05:00,-0.724550,0.199866,-0.589735,2025-03-20T19:37:48.372-05:00
9.000000,252.149001,0.313935,7.258702,44.939013,279.559001,90.161179,2.094018,3.000000,-93.176160,8.779495,2025-03-20T19:37:50.000-05:00,-0.231280,-0.972101,-0.014177,2025-03-20T19:37:49.377-05:00,-0.319263,0.075296,-0.336416,2025-03-20T19:37:49.377-05:00
10.000000,252.347714,0.316898,7.258417,44.939014,279.757714,90.075394,2.132447,3.000000,-93.176042,8.913434,2025-03-20T19:37:51.000-05:00,-0.181683,-0.982555,-0.022325,2025-03-20T19:37:50.372-05:00,0.178947,-0.027321,-0.334199,2025-03-20T19:37:50.372-05:00
11.000000,252.526582,0.314635,7.258777,44.939014,279.936582,90.075394,2.084264,3.000000,-93.175920,9.424767,2025-03-20T19:37:52.000-05:00,-0.197901,-0.979487,-0.008158,2025-03-20T19:37:51.376-05:00,0.036085,0.001179,-0.173929,2025-03-20T19:37:51.376-05:00
12.000000,252.814435,0.320686,7.258786,44.939014,280.224435,90.075394,2.052308,3.000000,-93.175792,9.812547,2025-03-20T19:37:53.000-05:00,-0.208503,-0.980869,-0.026533,2025-03-20T19:37:52.381-05:00,-0.080325,-0.013194,-0.269197,2025-03-20T19:37:52.381-05:00
13.000000,253.042245,0.323245,7.258666,44.939015,280.452245,90.075394,2.293465,3.000000,-93.175661,10.119514,2025-03-20T19:37:54.000-05:00,-0.229232,-0.979503,-0.037427,2025-03-20T19:37:53.376-05:00,-0.259158,0.004355,-0.368102,2025-03-20T19:37:53.376-05:00
14.000000,253.310022,0.326305,7.258100,44.939012,280.720021,90.075394,2.173717,3.000000,-93.175529,10.145644,2025-03-20T19:37:55.000-05:00,-0.235995,-0.963430,-0.037505,2025-03-20T19:37:54.381-05:00,-0.291956,0.142806,-0.407755,2025-03-20T19:37:54.381-05:00
15.000000,253.354517,0.312003,7.258915,44.939010,280.764517,90.075394,2.098102,3.000000,-93.175398,10.158379,2025-03-20T19:37:56.000-05:00,-0.240548,-0.959043,-0.013420,2025-03-20T19:37:55.375-05:00,-0.347257,0.190334,-0.211426,2025-03-20T19:37:55.375-05:00
16.000000,253.620374,0.314498,7.258806,44.939005,281.030374,90.075394,2.055550,3.000000,-93.175270,10.056807,2025-03-20T19:37:57.000-05:00,-0.260581,-0.966476,-0.021443,2025-03-20T19:37:56.380-05:00,-0.522744,0.110181,-0.258606,2025-03-20T19:37:56.380-05:00
17.000000,253.859905,0.313396,7.258857,44.939004,281.269905,90.000000,2.120141,3.000000,-93.175146,9.726608,2025-03-20T19:37:58.000-05:00,-0.282309,-0.947578,-0.001356,2025-03-20T19:37:57.375-05:00,-0.594873,0.280142,-0.174022,2025-03-20T19:37:57.375-05:00
18.000000,253.941827,0.314708,7.258885,44.939004,281.351827,90.000000,2.069139,3.000000,-93.175026,9.389173,2025-03-20T19:37:59.000-05:00,-0.266236,-0.977661,-0.003136,2025-03-20T19:37:58.380-05:00,-0.448310,-0.034985,-0.159766,2025-03-20T19:37:58.380-05:00
19.000000,254.216514,0.323030,7.258537,44.939004,281.626514,90.000000,2.146061,3.000000,-93.174910,9.161431,2025-03-20T19:38:00.000-05:00,-0.261134,-0.955815,-0.003947,2025-03-20T19:37:59.375-05:00,-0.370976,0.190154,-0.171941,2025-03-20T19:37:59.375-05:00
20.000000,254.142875,0.322460,7.258510,44.939006,281.552875,90.000000,2.086794,3.000000,-93.174800,8.773103,2025-03-20T19:38:01.000-05:00,-0.278935,-0.958155,-0.019520,2025-03-20T19:38:00.379-05:00,-0.462857,0.137680,-0.317130,2025-03-20T19:38:00.379-05:00
21.000000,254.309166,0.318871,7.258817,44.939006,281.719165,90.000000,2.051984,3.000000,-93.174694,8.308012,2025-03-20T19:38:02.000-05:00,-0.342028,-0.943233,-0.018754,2025-03-20T19:38:01.374-05:00,-1.060191,0.287855,-0.308597,2025-03-20T19:38:01.374-05:00
22.000000,254.555916,0.341060,7.258631,44.939003,281.965916,90.000000,2.038669,3.000000,-93.174597,7.362859,2025-03-20T19:38:03.000-05:00,-0.406456,-0.923095,-0.036177,2025-03-20T19:38:02.379-05:00,-1.609230,0.459447,-0.459797,2025-03-20T19:38:02.379-05:00
23.000000,254.707266,0.355822,9.187455,44.939004,282.117266,90.000000,2.034082,3.000000,-93.174525,5.711858,2025-03-20T19:38:04.000-05:00,-0.398947,-0.929043,-0.034803,2025-03-20T19:38:03.374-05:00,-1.454637,0.383207,-0.442169,2025-03-20T19:38:03.374-05:00
24.000000,254.729698,0.278151,11.104780,44.939004,282.139698,90.000000,2.107241,3.000000,-93.174470,4.178020,2025-03-20T19:38:05.000-05:00,-0.405602,-0.927080,-0.040548,2025-03-20T19:38:04.378-05:00,-1.428756,0.377701,-0.420112,2025-03-20T19:38:04.378-05:00
25.000000,254.779106,0.410309,19.693457,44.939006,282.189106,90.000000,2.086464,3.000000,-93.174439,2.475528,2025-03-20T19:38:06.000-05:00,-0.381205,-0.930145,-0.032246,2025-03-20T19:38:05.373-05:00,-1.035273,0.305767,-0.295834,2025-03-20T19:38:05.373-05:00
26.000000,254.878118,0.372915,26.300662,44.939005,282.288118,90.000000,2.173148,3.000000,-93.174425,1.081934,2025-03-20T19:38:07.000-05:00,-0.306282,-0.953482,-0.016735,2025-03-20T19:38:06.378-05:00,-0.163696,0.034838,-0.098580,2025-03-20T19:38:06.378-05:00
27.000000,254.897673,0.345590,45.781938,44.939005,282.307673,90.000000,2.199026,3.000000,-93.174418,0.537377,2025-03-20T19:38:08.000-05:00,-0.191901,-0.982934,0.015543,2025-03-20T19:38:07.373-05:00,0.964145,-0.252898,0.221833,2025-03-20T19:38:07.373-05:00
28.000000,254.998586,0.395463,37.223834,44.939003,282.408586,90.000000,2.278642,3.000000,-93.174402,1.128242,2025-03-20T19:38:09.000-05:00,-0.087629,-1.007469,0.045526,2025-03-20T19:38:08.378-05:00,1.910674,-0.473416,0.497726,2025-03-20T19:38:08.378-05:00
29.000000,255.099820,0.292420,14.225405,44.939004,282.509820,90.000000,2.376012,3.000000,-93.174367,2.696513,2025-03-20T19:38:10.000-05:00,-0.080166,-1.010267,0.053402,2025-03-20T19:38:09.372-05:00,1.930700,-0.484125,0.564638,2025-03-20T19:38:09.372-05:00
30.000000,255.314400,0.404538,13.614876,44.939008,282.724400,90.000000,2.421871,3.000000,-93.174312,4.228440,2025-03-20T19:38:11.000-05:00,-0.120043,-0.989981,0.037868,2025-03-20T19:38:10.377-05:00,1.490578,-0.271660,0.429493,2025-03-20T19:38:10.377-05:00
31.000000,255.303480,0.357255,8.778973,44.939011,282.713480,90.000000,2.406861,3.000000,-93.174237,5.533012,2025-03-20T19:38:12.000-05:00,-0.149400,-0.994920,0.004012,2025-03-20T19:38:11.372-05:00,1.202299,-0.319772,0.101792,2025-03-20T19:38:11.372-05:00
32.000000,255.260244,0.346779,7.525761,44.939013,282.670244,89.699272,2.405597,3.000000,-93.174153,6.514578,2025-03-20T19:38:13.000-05:00,-0.175224,-0.984314,0.015729,2025-03-20T19:38:12.377-05:00,0.951222,-0.213167,0.123565,2025-03-20T19:38:12.377-05:00
33.000000,255.215847,0.330495,7.258501,44.939013,282.625847,89.699272,2.490614,3.000000,-93.174059,7.376654,2025-03-20T19:38:14.000-05:00,-0.197632,-0.992807,0.009788,2025-03-20T19:38:13.381-05:00,0.745335,-0.306308,0.062643,2025-03-20T19:38:13.381-05:00
34.000000,255.157766,0.336613,7.258047,44.939013,282.567766,89.699272,2.646155,3.000000,-93.173954,8.012686,2025-03-20T19:38:15.000-05:00,-0.197866,-0.970694,0.001703,2025-03-20T19:38:14.376-05:00,0.556033,-0.034940,-0.026280,2025-03-20T19:38:14.376-05:00
35.000000,255.174501,0.322966,7.258719,44.939012,282.584501,89.699272,2.677830,3.000000,-93.173844,8.592046,2025-03-20T19:38:16.000-05:00,-0.220624,-0.973354,0.001163,2025-03-20T19:38:15.381-05:00,0.267165,-0.045909,0.019886,2025-03-20T19:38:15.381-05:00
36.000000,255.222104,0.320032,7.258767,44.939010,282.632104,89.699272,2.509303,3.000000,-93.173730,8.962912,2025-03-20T19:38:17.000-05:00,-0.214945,-0.972622,-0.010762,2025-03-20T19:38:16.376-05:00,0.233340,-0.025077,0.050139,2025-03-20T19:38:16.376-05:00
37.000000,255.041565,0.306714,7.258972,44.939010,282.451565,89.733612,2.439345,3.000000,-93.173613,9.276915,2025-03-20T19:38:18.000-05:00,-0.216017,-0.977702,-0.008007,2025-03-20T19:38:17.380-05:00,0.180491,-0.041416,0.063505,2025-03-20T19:38:17.380-05:00
38.000000,255.075217,0.318589,7.258840,44.939009,282.485217,89.733612,2.278368,3.000000,-93.173491,9.659139,2025-03-20T19:38:19.000-05:00,-0.227305,-0.982280,-0.017503,2025-03-20T19:38:18.375-05:00,-0.104891,-0.067393,0.052771,2025-03-20T19:38:18.375-05:00
39.000000,255.263191,0.325420,7.258473,44.939009,282.673191,89.733612,2.172901,3.000000,-93.173366,9.879731,2025-03-20T19:38:20.000-05:00,-0.215766,-0.967102,-0.026338,2025-03-20T19:38:19.380-05:00,0.037551,0.072402,-0.003951,2025-03-20T19:38:19.380-05:00
40.000000,255.059524,0.309495,7.258970,44.939010,282.469524,89.733612,2.266459,3.000000,-93.173239,9.987838,2025-03-20T19:38:21.000-05:00,-0.251609,-0.975808,-0.008890,2025-03-20T19:38:20.375-05:00,-0.325434,0.006047,0.058912,2025-03-20T19:38:20.375-05:00
41.000000,255.033029,0.321198,7.258474,44.939012,282.443028,90.109169,2.489678,3.000000,-93.173112,9.996212,2025-03-20T19:38:22.000-05:00,-0.272470,-0.955325,-0.061329,2025-03-20T19:38:21.380-05:00,-0.592780,0.207085,-0.212729,2025-03-20T19:38:21.380-05:00
42.000000,255.100032,0.313431,7.258859,44.939012,282.510032,90.109169,2.300714,3.000000,-93.172994,9.506311,2025-03-20T19:38:23.000-05:00,-0.256531,-0.971513,-0.025145,2025-03-20T19:38:22.374-05:00,-0.363966,0.035815,-0.000427,2025-03-20T19:38:22.374-05:00
43.000000,255.362144,0.325318,7.258023,44.939012,282.772144,90.109169,2.184789,3.000000,-93.172871,9.441047,2025-03-20T19:38:24.000-05:00,-0.220610,-0.977387,-0.049858,2025-03-20T19:38:23.379-05:00,-0.110086,0.001654,-0.115906,2025-03-20T19:38:23.379-05:00
44.000000,255.568637,0.324464,7.257911,44.939014,282.978637,90.109169,2.159327,3.000000,-93.172754,9.326220,2025-03-20T19:38:25.000-05:00,-0.250542,-0.964014,-0.055275,2025-03-20T19:38:24.374-05:00,-0.359839,0.119284,-0.163180,2025-03-20T19:38:24.374-05:00
45.000000,255.660586,0.329632,7.257014,44.939015,283.070586,90.109169,2.345087,3.000000,-93.172638,9.103647,2025-03-20T19:38:26.000-05:00,-0.265677,-0.955146,-0.069626,2025-03-20T19:38:25.379-05:00,-0.468011,0.178084,-0.219684,2025-03-20T19:38:25.379-05:00
46.000000,255.820651,0.332653,7.257585,44.939014,283.230651,90.109169,2.222572,3.000000,-93.172530,8.671036,2025-03-20T19:38:27.000-05:00,-0.261094,-0.952899,-0.065520,2025-03-20T19:38:26.373-05:00,-0.411196,0.217054,-0.136479,2025-03-20T19:38:26.373-05:00
47.000000,255.906508,0.324854,7.258519,44.939012,283.316508,90.109169,2.157445,3.000000,-93.172422,8.330365,2025-03-20T19:38:28.000-05:00,-0.254894,-0.968187,-0.060374,2025-03-20T19:38:27.378-05:00,-0.295717,0.050422,-0.094403,2025-03-20T19:38:27.378-05:00
48.000000,256.060148,0.329620,7.258530,44.939011,283.470147,89.691154,2.148272,3.000000,-93.172318,7.990934,2025-03-20T19:38:29.000-05:00,-0.273007,-0.954043,-0.050932,2025-03-20T19:38:28.373-05:00,-0.473769,0.182598,-0.027939,2025-03-20T19:38:28.373-05:00
49.000000,256.185562,0.332955,7.258171,44.939011,283.595562,89.691154,2.142312,3.000000,-93.172216,7.721566,2025-03-20T19:38:30.000-05:00,-0.256590,-0.963153,-0.085522,2025-03-20T19:38:29.378-05:00,-0.309313,0.092559,-0.178002,2025-03-20T19:38:29.378-05:00
50.000000,256.270771,0.337676,7.257934,44.939011,283.680771,89.691154,2.137503,3.000000,-93.172123,7.360314,2025-03-20T19:38:31.000-05:00,-0.251610,-0.964735,-0.075275,2025-03-20T19:38:30.373-05:00,-0.239287,0.067711,-0.123077,2025-03-20T19:38:30.373-05:00
51.000000,256.384943,0.338021,7.257815,44.939008,283.794943,89.691154,2.131709,3.000000,-93.172034,7.039584,2025-03-20T19:38:32.000-05:00,-0.259254,-0.961279,-0.067410,2025-03-20T19:38:31.377-05:00,-0.275814,0.097368,-0.134220,2025-03-20T19:38:31.377-05:00
52.000000,256.498517,0.336009,7.257877,44.939005,283.908517,89.691154,2.129665,3.000000,-93.171947,6.724143,2025-03-20T19:38:33.000-05:00,-0.275665,-0.961820,-0.053166,2025-03-20T19:38:32.372-05:00,-0.390911,0.085817,-0.025930,2025-03-20T19:38:32.372-05:00
53.000000,256.589998,0.325532,7.258641,44.939003,283.999998,88.184181,2.117618,3.000000,-93.171865,6.222489,2025-03-20T19:38:34.000-05:00,-0.296007,-0.947768,-0.062626,2025-03-20T19:38:33.377-05:00,-0.509876,0.192931,-0.030967,2025-03-20T19:38:33.377-05:00
54.000000,256.763065,0.294170,7.373751,44.939002,284.173065,88.184181,2.114501,3.000000,-93.171792,5.505729,2025-03-20T19:38:35.000-05:00,-0.361694,-0.938174,-0.075025,2025-03-20T19:38:34.372-05:00,-1.165414,0.297817,-0.207910,2025-03-20T19:38:34.372-05:00
55.000000,256.804900,0.281820,10.782202,44.939002,284.214900,87.450394,2.112209,3.000000,-93.171739,4.181188,2025-03-20T19:38:36.000-05:00,-0.363114,-0.936109,-0.087153,2025-03-20T19:38:35.376-05:00,-1.102609,0.296242,-0.274335,2025-03-20T19:38:35.376-05:00
56.000000,256.824613,0.412919,16.378846,44.939003,284.234613,87.450394,2.111724,3.000000,-93.171702,2.812199,2025-03-20T19:38:37.000-05:00,-0.352840,-0.938272,-0.077616,2025-03-20T19:38:36.381-05:00,-0.899863,0.247028,-0.201622,2025-03-20T19:38:36.381-05:00
57.000000,256.803749,0.390615,20.920712,44.939004,284.213749,87.450394,2.111813,3.000000,-93.171681,1.578843,2025-03-20T19:38:38.000-05:00,-0.312666,-0.949354,-0.069007,2025-03-20T19:38:37.376-05:00,-0.389903,0.107914,-0.113269,2025-03-20T19:38:37.376-05:00
58.000000,257.094119,0.345877,31.655298,44.939003,284.504119,87.450394,2.104785,3.000000,-93.171672,0.775321,2025-03-20T19:38:39.000-05:00,-0.209730,-0.979474,-0.027164,2025-03-20T19:38:38.381-05:00,0.654974,-0.194717,0.206503,2025-03-20T19:38:38.381-05:00
59.000000,257.374737,0.361772,27.296278,44.939003,284.784737,87.450394,2.107630,3.000000,-93.171654,1.066071,2025-03-20T19:38:40.000-05:00,-0.100322,-1.001076,0.008699,2025-03-20T19:38:39.376-05:00,1.662645,-0.382164,0.496763,2025-03-20T19:38:39.376-05:00
60.000000,257.539121,0.306459,12.635909,44.939002,284.949121,87.450394,2.097846,3.000000,-93.171619,2.430570,2025-03-20T19:38:41.000-05:00,-0.098547,-1.005002,0.020739,2025-03-20T19:38:40.380-05:00,1.683585,-0.421787,0.534299,2025-03-20T19:38:40.380-05:00
61.000000,257.806132,0.307205,14.325408,44.939008,285.216131,87.450394,2.225726,3.000000,-93.171569,3.766939,2025-03-20T19:38:42.000-05:00,-0.111104,-0.999820,-0.003544,2025-03-20T19:38:41.375-05:00,1.477980,-0.339719,0.321577,2025-03-20T19:38:41.375-05:00
62.000000,257.967518,0.356637,7.896799,44.939013,285.377518,87.450394,2.331123,3.000000,-93.171499,5.113974,2025-03-20T19:38:43.000-05:00,-0.133219,-0.975163,-0.023612,2025-03-20T19:38:42.380-05:00,1.292420,-0.129437,0.210001,2025-03-20T19:38:42.380-05:00
63.000000,257.979446,0.355361,7.969356,44.939018,285.389446,87.450394,2.389030,3.000000,-93.171418,6.307418,2025-03-20T19:38:44.000-05:00,-0.155465,-1.007352,-0.027004,2025-03-20T19:38:43.375-05:00,1.072858,-0.425202,0.160250,2025-03-20T19:38:43.375-05:00
64.000000,257.951823,0.353094,7.257092,44.939024,285.361823,88.985786,2.357760,3.000000,-93.171326,7.199841,2025-03-20T19:38:45.000-05:00,-0.165718,-1.002275,-0.019854,2025-03-20T19:38:44.379-05:00,0.775278,-0.323559,0.055496,2025-03-20T19:38:44.379-05:00
65.000000,257.988895,0.364537,7.256342,44.939029,285.398895,90.505783,2.404915,3.000000,-93.171227,7.927697,2025-03-20T19:38:46.000-05:00,-0.200038,-0.972499,-0.051365,2025-03-20T19:38:45.374-05:00,0.211034,0.020367,-0.223776,2025-03-20T19:38:45.374-05:00
66.000000,258.155968,0.355829,7.256078,44.939031,285.565968,90.505783,2.316022,3.000000,-93.171125,8.213577,2025-03-20T19:38:47.000-05:00,-0.206808,-0.977456,-0.035787,2025-03-20T19:38:46.379-05:00,0.002551,-0.013118,-0.115309,2025-03-20T19:38:46.379-05:00
67.000000,258.325627,0.351787,7.253571,44.939033,285.735627,90.505783,2.292784,3.000000,-93.171025,8.177906,2025-03-20T19:38:48.000-05:00,-0.221319,-0.967023,-0.042584,2025-03-20T19:38:47.374-05:00,-0.030863,0.098500,-0.161277,2025-03-20T19:38:47.374-05:00
68.000000,258.189548,0.334228,7.256679,44.939033,285.599547,90.505783,2.227434,3.000000,-93.170919,8.270303,2025-03-20T19:38:49.000-05:00,-0.244416,-0.968916,-0.027324,2025-03-20T19:38:48.378-05:00,-0.328558,0.088592,-0.040917,2025-03-20T19:38:48.378-05:00
69.000000,258.365500,0.341170,7.254349,44.939035,285.775499,90.000000,2.153577,3.000000,-93.170819,8.058259,2025-03-20T19:38:50.000-05:00,-0.230374,-0.968730,-0.019141,2025-03-20T19:38:49.373-05:00,-0.173581,0.075992,0.012761,2025-03-20T19:38:49.373-05:00
70.000000,258.320457,0.337111,7.255350,44.939020,285.730457,90.000000,2.103036,3.000000,-93.170718,8.078446,2025-03-20T19:38:51.000-05:00,-0.242380,-0.979144,-0.040310,2025-03-20T19:38:50.378-05:00,-0.258545,-0.033141,-0.110801,2025-03-20T19:38:50.378-05:00
71.000000,258.360493,0.332570,7.256302,44.939019,285.770493,90.000000,2.069033,3.000000,-93.170614,7.913444,2025-03-20T19:38:52.000-05:00,-0.249471,-0.966488,-0.044286,2025-03-20T19:38:51.373-05:00,-0.328770,0.088065,-0.127613,2025-03-20T19:38:51.373-05:00
72.000000,258.572529,0.340404,7.255371,44.939019,285.982529,90.000000,2.046722,3.000000,-93.170515,7.707355,2025-03-20T19:38:53.000-05:00,-0.262512,-0.954395,-0.035677,2025-03-20T19:38:52.378-05:00,-0.428385,0.213415,-0.140052,2025-03-20T19:38:52.378-05:00
73.000000,258.548034,0.358962,7.256081,44.939019,285.958034,90.000000,2.031767,3.000000,-93.170417,7.519934,2025-03-20T19:38:54.000-05:00,-0.272100,-0.946327,-0.010818,2025-03-20T19:38:53.372-05:00,-0.414370,0.264999,0.017938,2025-03-20T19:38:53.372-05:00
74.000000,258.550181,0.345613,7.257850,44.939019,285.960181,90.000000,2.022013,3.000000,-93.170327,7.081099,2025-03-20T19:38:55.000-05:00,-0.272709,-0.968998,-0.034844,2025-03-20T19:38:54.377-05:00,-0.472823,0.050177,-0.144215,2025-03-20T19:38:54.377-05:00
75.000000,258.940919,0.371404,7.254928,44.939019,286.350919,90.000000,2.015474,3.000000,-93.170238,6.801116,2025-03-20T19:38:56.000-05:00,-0.269309,-0.963402,-0.022942,2025-03-20T19:38:55.372-05:00,-0.380799,0.083960,-0.046217,2025-03-20T19:38:55.372-05:00
76.000000,258.998324,0.362552,7.256512,44.939018,286.408324,90.000000,2.011147,3.000000,-93.170157,6.306994,2025-03-20T19:38:57.000-05:00,-0.255156,-0.953310,-0.023393,2025-03-20T19:38:56.377-05:00,-0.200747,0.190278,-0.005977,2025-03-20T19:38:56.377-05:00
77.000000,259.184080,0.364551,7.255962,44.939019,286.594080,90.000000,2.008695,3.000000,-93.170078,6.175372,2025-03-20T19:38:58.000-05:00,-0.274481,-0.974615,-0.016397,2025-03-20T19:38:57.381-05:00,-0.372955,-0.034337,0.023850,2025-03-20T19:38:57.381-05:00
78.000000,259.292771,0.359242,7.256206,44.939021,286.702771,90.000000,2.007133,3.000000,-93.170004,5.792110,2025-03-20T19:38:59.000-05:00,-0.258979,-0.960813,-0.016480,2025-03-20T19:38:58.376-05:00,-0.172302,0.090032,-0.011136,2025-03-20T19:38:58.376-05:00
79.000000,259.351601,0.367068,7.254817,44.939021,286.761601,90.000000,2.040748,3.000000,-93.169932,5.548326,2025-03-20T19:39:00.000-05:00,-0.281759,-0.954398,-0.042306,2025-03-20T19:38:59.381-05:00,-0.397365,0.153035,-0.272869,2025-03-20T19:38:59.381-05:00
80.000000,259.511284,0.348414,7.256359,44.939020,286.921284,90.000000,2.035655,3.000000,-93.169865,5.202445,2025-03-20T19:39:01.000-05:00,-0.309585,-0.955015,-0.061394,2025-03-20T19:39:00.376-05:00,-0.626751,0.143864,-0.420583,2025-03-20T19:39:00.376-05:00
81.000000,259.634291,0.267043,7.816272,44.939019,287.044291,90.000000,2.031693,3.000000,-93.169813,4.351623,2025-03-20T19:39:02.000-05:00,-0.330898,-0.942312,-0.037179,2025-03-20T19:39:01.380-05:00,-0.800240,0.249637,-0.185615,2025-03-20T19:39:01.380-05:00
82.000000,259.543383,0.289175,14.106279,44.939016,286.953383,90.000000,2.028524,3.000000,-93.169775,3.253690,2025-03-20T19:39:03.000-05:00,-0.359177,-0.937833,-0.036420,2025-03-20T19:39:02.375-05:00,-0.936228,0.263101,-0.168700,2025-03-20T19:39:02.375-05:00
