seconds_elapsed,location_altitude,location_speedAccuracy,location_bearingAccuracy,location_latitude,location_altitudeAboveMeanSeaLevel,location_bearing,location_horizontalAccuracy,location_verticalAccuracy,location_longitude,location_speed,location_local_time,accelerometerUncalibrated_z,accelerometerUncalibrated_y,accelerometerUncalibrated_x,accelerometerUncalibrated_local_time,accelerometer_z,accelerometer_y,accelerometer_x,accelerometer_local_time
0.000000,255.512590,1.159478,26.850918,44.934373,282.922590,303.277479,2.572610,3.000000,-93.177226,3.497747,2025-03-20T19:18:58.999-05:00,-0.119002,-1.001727,-0.178141,2025-03-20T19:18:58.129-05:00,1.005146,-0.267850,-1.970012,2025-03-20T19:18:58.129-05:00
1.000000,256.092496,1.271935,23.217708,44.934431,283.502496,342.367033,2.580259,3.000000,-93.177231,4.424158,2025-03-20T19:18:59.999-05:00,-0.126088,-0.998955,0.035507,2025-03-20T19:18:59.114-05:00,0.929440,-0.242112,-0.081659,2025-03-20T19:18:59.114-05:00
2.000000,255.913091,1.454440,26.007252,44.934471,283.323091,344.868682,2.569836,3.000000,-93.177246,4.529238,2025-03-20T19:19:00.999-05:00,-0.109161,-0.996016,0.089541,2025-03-20T19:19:00.119-05:00,1.026300,-0.194851,0.500037,2025-03-20T19:19:00.119-05:00
3.000000,255.959626,1.309806,14.657615,44.934563,283.369626,4.762872,2.584649,3.000000,-93.177208,7.238169,2025-03-20T19:19:01.999-05:00,-0.130770,-1.003437,0.076742,2025-03-20T19:19:01.114-05:00,0.745067,-0.246600,0.442809,2025-03-20T19:19:01.114-05:00
4.000000,255.831230,1.273896,12.274118,44.934651,283.241230,359.927555,2.553205,3.000000,-93.177209,8.409131,2025-03-20T19:19:02.999-05:00,-0.122449,-0.994036,0.066972,2025-03-20T19:19:02.119-05:00,0.794475,-0.161325,0.301845,2025-03-20T19:19:02.119-05:00
5.000000,255.568900,1.279298,10.539260,44.934751,282.978900,359.221641,2.358931,3.000000,-93.177205,9.835477,2025-03-20T19:19:03.999-05:00,-0.142879,-0.999822,0.070992,2025-03-20T19:19:03.113-05:00,0.576477,-0.205591,0.272964,2025-03-20T19:19:03.113-05:00
6.000000,255.526755,1.273362,9.390638,44.934859,282.936755,359.200964,2.207512,3.000000,-93.177204,10.987393,2025-03-20T19:19:04.999-05:00,-0.172116,-0.973986,0.058237,2025-03-20T19:19:04.118-05:00,0.251361,0.053277,0.164019,2025-03-20T19:19:04.118-05:00
7.000000,255.328320,1.270282,8.454668,44.934978,282.738320,0.274053,2.255328,3.000000,-93.177196,12.174098,2025-03-20T19:19:05.999-05:00,-0.186168,-0.992894,0.070476,2025-03-20T19:19:05.113-05:00,0.112070,-0.142823,0.212258,2025-03-20T19:19:05.113-05:00
8.000000,255.670818,1.270796,7.895300,44.935104,283.080818,0.247808,2.127117,3.000000,-93.177191,13.040289,2025-03-20T19:19:06.999-05:00,-0.206906,-0.983669,0.060227,2025-03-20T19:19:06.118-05:00,-0.157286,-0.030725,0.022879,2025-03-20T19:19:06.118-05:00
9.000000,255.276879,1.276106,7.625368,44.935235,282.686879,0.247808,2.060770,3.000000,-93.177189,13.560071,2025-03-20T19:19:07.999-05:00,-0.208619,-0.941408,0.025349,2025-03-20T19:19:07.113-05:00,-0.239675,0.394243,-0.063721,2025-03-20T19:19:07.113-05:00
10.000000,255.351649,1.272907,7.299471,44.935370,282.761649,0.000000,2.028366,3.000000,-93.177188,14.129847,2025-03-20T19:19:08.999-05:00,-0.241615,-0.983708,0.051001,2025-03-20T19:19:08.118-05:00,-0.494635,-0.021027,0.125480,2025-03-20T19:19:08.118-05:00
11.000000,254.954501,1.273447,7.258967,44.935500,282.364501,0.000000,2.013317,3.000000,-93.177183,14.359730,2025-03-20T19:19:09.999-05:00,-0.271073,-0.964757,0.037367,2025-03-20T19:19:09.112-05:00,-0.769709,0.141418,-0.147871,2025-03-20T19:19:09.112-05:00
12.000000,254.665447,1.276658,7.258963,44.935635,282.075447,0.000000,2.006053,3.000000,-93.177188,14.434352,2025-03-20T19:19:10.999-05:00,-0.248859,-0.953894,0.057216,2025-03-20T19:19:10.117-05:00,-0.522967,0.246255,-0.104231,2025-03-20T19:19:10.117-05:00
13.000000,254.397383,1.272048,7.258965,44.935764,281.807383,0.000000,2.002825,3.000000,-93.177187,14.398385,2025-03-20T19:19:11.999-05:00,-0.301423,-0.960395,0.051646,2025-03-20T19:19:11.112-05:00,-0.958917,0.162353,-0.073266,2025-03-20T19:19:11.112-05:00
14.000000,253.953667,1.332364,8.027196,44.935877,281.363667,0.000000,2.001369,3.000000,-93.177189,13.443667,2025-03-20T19:19:12.999-05:00,-0.275697,-0.957152,0.040526,2025-03-20T19:19:12.117-05:00,-0.664630,0.190626,-0.094735,2025-03-20T19:19:12.117-05:00
15.000000,253.948174,1.278387,7.342918,44.936018,281.358174,0.000000,2.463484,3.000000,-93.177204,14.105202,2025-03-20T19:19:13.999-05:00,-0.282633,-0.980437,0.038785,2025-03-20T19:19:13.112-05:00,-0.785508,-0.021436,-0.106736,2025-03-20T19:19:13.112-05:00
16.000000,253.908163,1.280934,7.462249,44.936144,281.318163,0.000000,2.466756,3.000000,-93.177203,13.908424,2025-03-20T19:19:14.999-05:00,-0.263696,-0.932795,0.025501,2025-03-20T19:19:14.117-05:00,-0.525799,0.436178,-0.098677,2025-03-20T19:19:14.117-05:00
17.000000,253.550876,1.277741,7.553292,44.936270,280.960876,0.115841,2.220272,3.000000,-93.177200,13.703988,2025-03-20T19:19:15.999-05:00,-0.279461,-0.970919,0.025298,2025-03-20T19:19:15.111-05:00,-0.593839,0.031773,-0.139147,2025-03-20T19:19:15.111-05:00
18.000000,253.318051,1.280169,7.634852,44.936392,280.728051,0.115841,2.768723,3.000000,-93.177201,13.583655,2025-03-20T19:19:17.000-05:00,-0.248883,-0.961656,0.041353,2025-03-20T19:19:16.116-05:00,-0.272454,0.125335,-0.061461,2025-03-20T19:19:16.116-05:00
19.000000,253.263799,0.708279,7.258812,44.936510,280.673799,0.115841,2.511765,3.000000,-93.177193,13.289092,2025-03-20T19:19:18.000-05:00,-0.214552,-0.974721,0.056520,2025-03-20T19:19:17.111-05:00,0.113937,-0.017458,0.091125,2025-03-20T19:19:17.111-05:00
20.000000,253.906272,0.739423,7.257728,44.936621,281.316272,0.000000,3.309358,3.000000,-93.177188,12.772093,2025-03-20T19:19:19.000-05:00,-0.214690,-0.980760,0.045515,2025-03-20T19:19:18.116-05:00,0.081369,-0.064420,0.057834,2025-03-20T19:19:18.116-05:00
21.000000,253.476996,0.681537,7.258973,44.936762,280.886996,0.000000,2.660427,3.000000,-93.177196,14.076503,2025-03-20T19:19:20.000-05:00,-0.269608,-0.965581,0.040851,2025-03-20T19:19:19.111-05:00,-0.416905,0.070834,-0.039661,2025-03-20T19:19:19.111-05:00
22.000000,253.447718,0.682923,7.258968,44.936893,280.857717,0.000000,2.311480,3.000000,-93.177198,14.382610,2025-03-20T19:19:21.000-05:00,-0.255659,-0.951170,0.041529,2025-03-20T19:19:20.115-05:00,-0.247243,0.214395,-0.011837,2025-03-20T19:19:20.115-05:00
23.000000,253.507467,0.680649,7.258973,44.937018,280.917467,0.000000,2.147476,3.000000,-93.177195,14.194406,2025-03-20T19:19:22.000-05:00,-0.256741,-0.974446,0.046480,2025-03-20T19:19:21.120-05:00,-0.326425,-0.020867,-0.006620,2025-03-20T19:19:21.120-05:00
24.000000,253.848992,0.681186,7.258323,44.937143,281.258992,0.129604,2.070091,3.000000,-93.177196,14.000257,2025-03-20T19:19:23.000-05:00,-0.243499,-0.962541,0.029018,2025-03-20T19:19:22.115-05:00,-0.157134,0.106033,-0.020049,2025-03-20T19:19:22.115-05:00
25.000000,253.671381,0.669911,7.258971,44.937276,281.081381,0.129604,2.032524,3.000000,-93.177190,14.329791,2025-03-20T19:19:24.000-05:00,-0.260402,-0.965133,0.032206,2025-03-20T19:19:23.120-05:00,-0.259849,0.063907,-0.027319,2025-03-20T19:19:23.120-05:00
26.000000,253.439349,0.672964,7.258641,44.937402,280.849349,0.129604,2.015379,3.000000,-93.177193,14.109256,2025-03-20T19:19:25.000-05:00,-0.236282,-0.963712,0.042890,2025-03-20T19:19:24.115-05:00,0.002560,0.071412,0.003745,2025-03-20T19:19:24.115-05:00
27.000000,253.219784,0.688099,7.258224,44.937530,280.629784,0.258354,2.007252,3.000000,-93.177193,14.168809,2025-03-20T19:19:26.000-05:00,-0.244247,-0.974970,0.030960,2025-03-20T19:19:25.120-05:00,-0.069716,-0.041361,-0.046159,2025-03-20T19:19:25.120-05:00
28.000000,253.222542,0.681166,7.258704,44.937661,280.632542,0.258354,2.003397,3.000000,-93.177188,14.412262,2025-03-20T19:19:27.000-05:00,-0.256076,-0.962505,0.038765,2025-03-20T19:19:26.114-05:00,-0.166716,0.075134,-0.042177,2025-03-20T19:19:26.114-05:00
29.000000,253.533349,0.684176,7.258739,44.937792,280.943349,0.258354,2.101935,3.000000,-93.177194,14.456736,2025-03-20T19:19:28.000-05:00,-0.272118,-0.966083,0.034377,2025-03-20T19:19:27.119-05:00,-0.391130,0.054043,-0.012341,2025-03-20T19:19:27.119-05:00
30.000000,253.312835,0.678205,7.258923,44.937917,280.722835,0.258354,2.047748,3.000000,-93.177192,14.099526,2025-03-20T19:19:29.000-05:00,-0.249457,-0.950960,0.033556,2025-03-20T19:19:28.114-05:00,-0.062731,0.181396,0.035239,2025-03-20T19:19:28.114-05:00
31.000000,252.836817,0.669411,7.257899,44.938048,280.246817,0.000000,2.022393,3.000000,-93.177185,14.326303,2025-03-20T19:19:30.000-05:00,-0.258605,-0.968250,0.037875,2025-03-20T19:19:29.119-05:00,-0.102313,-0.003005,0.021913,2025-03-20T19:19:29.119-05:00
32.000000,252.844014,0.678480,7.258705,44.938174,280.254013,0.000000,2.018290,3.000000,-93.177184,14.262455,2025-03-20T19:19:31.000-05:00,-0.260070,-0.969293,0.026677,2025-03-20T19:19:30.114-05:00,-0.152677,0.001469,-0.071501,2025-03-20T19:19:30.114-05:00
33.000000,252.795269,0.692351,7.258816,44.938302,280.205269,0.000000,2.008593,3.000000,-93.177188,14.174616,2025-03-20T19:19:32.000-05:00,-0.263769,-0.959292,0.028489,2025-03-20T19:19:31.119-05:00,-0.187558,0.093649,-0.056858,2025-03-20T19:19:31.119-05:00
34.000000,252.343548,0.854533,7.257661,44.938421,279.753548,0.000000,2.004119,3.000000,-93.177196,13.604289,2025-03-20T19:19:33.000-05:00,-0.282792,-0.965300,0.025904,2025-03-20T19:19:32.113-05:00,-0.321818,0.022787,-0.078819,2025-03-20T19:19:32.113-05:00
35.000000,252.280071,0.774951,7.258401,44.938551,279.690071,0.290630,2.001936,3.000000,-93.177185,13.807378,2025-03-20T19:19:34.000-05:00,-0.273483,-0.960144,0.027285,2025-03-20T19:19:33.118-05:00,-0.252278,0.079725,-0.048504,2025-03-20T19:19:33.118-05:00
36.000000,252.052549,0.699202,7.258194,44.938676,279.462549,0.290630,2.000929,3.000000,-93.177181,13.765988,2025-03-20T19:19:35.000-05:00,-0.272507,-0.955721,0.031239,2025-03-20T19:19:34.113-05:00,-0.204453,0.114638,-0.006832,2025-03-20T19:19:34.113-05:00
37.000000,252.021651,0.695757,7.258623,44.938798,279.431650,0.290630,2.000447,3.000000,-93.177181,13.602394,2025-03-20T19:19:36.000-05:00,-0.278388,-0.960494,0.026769,2025-03-20T19:19:35.118-05:00,-0.257601,0.065765,-0.032852,2025-03-20T19:19:35.118-05:00
38.000000,251.639729,0.706396,7.257716,44.938915,279.049729,0.290630,2.323558,3.000000,-93.177181,13.266684,2025-03-20T19:19:37.000-05:00,-0.277816,-0.980823,0.025844,2025-03-20T19:19:36.113-05:00,-0.241571,-0.138899,-0.071370,2025-03-20T19:19:36.113-05:00
39.000000,251.958977,0.685646,7.258855,44.939032,279.368977,0.290630,2.266760,3.000000,-93.177182,12.986063,2025-03-20T19:19:38.000-05:00,-0.266215,-0.927789,0.021554,2025-03-20T19:19:37.117-05:00,-0.157739,0.395794,-0.041298,2025-03-20T19:19:37.117-05:00
40.000000,251.566738,0.697904,7.258366,44.939148,278.976738,0.307251,2.133081,3.000000,-93.177179,12.794966,2025-03-20T19:19:39.000-05:00,-0.341193,-0.957664,0.006016,2025-03-20T19:19:38.112-05:00,-0.772655,0.066435,-0.143503,2025-03-20T19:19:38.112-05:00
41.000000,251.053344,0.692142,7.255477,44.939256,278.463344,0.307251,2.224464,3.000000,-93.177178,12.154775,2025-03-20T19:19:40.000-05:00,-0.344829,-0.938682,0.003793,2025-03-20T19:19:39.117-05:00,-0.805958,0.255760,-0.174814,2025-03-20T19:19:39.117-05:00
42.000000,251.302418,0.685632,7.258824,44.939350,278.712418,0.307251,2.130708,3.000000,-93.177178,11.155487,2025-03-20T19:19:41.000-05:00,-0.346266,-0.946123,0.000917,2025-03-20T19:19:40.112-05:00,-0.768532,0.169364,-0.175425,2025-03-20T19:19:40.112-05:00
43.000000,251.513706,0.702413,7.258333,44.939441,278.923706,0.307251,2.249363,3.000000,-93.177181,10.297677,2025-03-20T19:19:42.000-05:00,-0.392721,-0.928459,-0.005967,2025-03-20T19:19:41.117-05:00,-1.118431,0.308878,-0.235684,2025-03-20T19:19:41.117-05:00
44.000000,251.217959,0.722163,7.258613,44.939517,278.627959,0.307251,2.142778,3.000000,-93.177182,8.919305,2025-03-20T19:19:43.000-05:00,-0.441750,-0.919790,-0.023222,2025-03-20T19:19:42.112-05:00,-1.481280,0.362676,-0.360315,2025-03-20T19:19:42.112-05:00
45.000000,251.044255,0.718101,8.107297,44.939574,278.454255,0.307251,2.087664,3.000000,-93.177180,7.167534,2025-03-20T19:19:44.000-05:00,-0.415806,-0.923624,-0.022177,2025-03-20T19:19:43.116-05:00,-1.212566,0.317683,-0.337324,2025-03-20T19:19:43.116-05:00
46.000000,251.162643,0.704553,10.352654,44.939617,278.572643,0.236364,2.213679,3.000000,-93.177180,5.515029,2025-03-20T19:19:45.000-05:00,-0.402477,-0.927627,-0.012456,2025-03-20T19:19:44.111-05:00,-1.043582,0.271060,-0.250614,2025-03-20T19:19:44.111-05:00
47.000000,251.267788,0.715684,14.265152,44.939648,278.677788,359.723519,2.170943,3.000000,-93.177181,4.063626,2025-03-20T19:19:46.000-05:00,-0.370765,-0.938564,-0.017803,2025-03-20T19:19:45.116-05:00,-0.726660,0.159496,-0.207128,2025-03-20T19:19:45.116-05:00
48.000000,251.215980,0.715161,20.301771,44.939668,278.625980,0.292191,2.295548,3.000000,-93.177179,2.846453,2025-03-20T19:19:47.000-05:00,-0.332246,-0.946772,-0.009561,2025-03-20T19:19:46.111-05:00,-0.335356,0.077215,-0.085456,2025-03-20T19:19:46.111-05:00
49.000000,251.184009,0.729116,31.153714,44.939682,278.594008,0.704661,2.459201,3.000000,-93.177178,1.877862,2025-03-20T19:19:48.000-05:00,-0.296257,-0.956928,-0.001523,2025-03-20T19:19:47.116-05:00,0.029358,-0.028747,0.009084,2025-03-20T19:19:47.116-05:00
50.000000,250.983715,0.926480,36.418247,44.939691,278.393715,358.649238,2.649548,3.000000,-93.177181,1.138124,2025-03-20T19:19:49.000-05:00,-0.273557,-0.961394,0.004991,2025-03-20T19:19:48.111-05:00,0.261281,-0.072665,0.083001,2025-03-20T19:19:48.111-05:00
51.000000,251.489111,0.723523,41.411509,44.939708,278.899111,359.793135,2.632330,3.000000,-93.177179,1.337433,2025-03-20T19:19:50.000-05:00,-0.232973,-0.972570,0.014732,2025-03-20T19:19:49.115-05:00,0.660904,-0.184632,0.168081,2025-03-20T19:19:49.115-05:00
52.000000,251.405276,0.696212,35.278262,44.939724,278.815276,0.209358,2.686888,3.000000,-93.177179,1.592862,2025-03-20T19:19:51.000-05:00,-0.205892,-0.977802,0.023996,2025-03-20T19:19:50.120-05:00,0.924346,-0.234263,0.249227,2025-03-20T19:19:50.120-05:00
53.000000,251.750677,0.944889,31.239700,44.939747,279.160676,359.716358,2.873229,3.000000,-93.177182,2.190920,2025-03-20T19:19:52.000-05:00,-0.140952,-0.994006,0.040354,2025-03-20T19:19:51.115-05:00,1.521966,-0.381001,0.402676,2025-03-20T19:19:51.115-05:00
54.000000,251.520877,0.719955,18.072008,44.939780,278.930877,0.000000,2.800460,3.000000,-93.177179,3.220150,2025-03-20T19:19:53.000-05:00,-0.122850,-0.998911,0.046019,2025-03-20T19:19:52.120-05:00,1.588001,-0.396112,0.410175,2025-03-20T19:19:52.120-05:00
55.000000,251.189125,0.677248,12.897032,44.939819,278.599125,0.000000,2.738886,3.000000,-93.177180,4.201411,2025-03-20T19:19:54.000-05:00,-0.136079,-0.993550,0.045682,2025-03-20T19:19:53.115-05:00,1.347855,-0.311126,0.351410,2025-03-20T19:19:53.115-05:00
56.000000,251.180519,0.676141,9.989740,44.939873,278.590519,0.188157,2.702260,3.000000,-93.177179,5.465738,2025-03-20T19:19:55.000-05:00,-0.142100,-0.993134,0.045413,2025-03-20T19:19:54.119-05:00,1.265924,-0.302929,0.323907,2025-03-20T19:19:54.119-05:00
57.000000,251.207588,0.678316,8.185711,44.939932,278.617588,0.188157,2.779677,3.000000,-93.177173,6.707387,2025-03-20T19:19:56.000-05:00,-0.164033,-0.986766,0.042314,2025-03-20T19:19:55.114-05:00,1.012086,-0.229807,0.270032,2025-03-20T19:19:55.114-05:00
58.000000,251.411395,0.665107,7.258974,44.940004,278.821395,0.188157,2.734627,3.000000,-93.177177,7.593106,2025-03-20T19:19:57.000-05:00,-0.164539,-1.007244,0.041093,2025-03-20T19:19:56.119-05:00,0.779618,-0.361615,0.292853,2025-03-20T19:19:56.119-05:00
59.000000,251.573090,0.666171,7.258467,44.940085,278.983090,0.188157,2.583298,3.000000,-93.177179,8.516169,2025-03-20T19:19:58.000-05:00,-0.141208,-0.977166,0.021578,2025-03-20T19:19:57.114-05:00,0.799859,-0.018796,0.204796,2025-03-20T19:19:57.114-05:00
60.000000,251.818268,0.662209,7.258330,44.940171,279.228267,359.578090,2.487440,3.000000,-93.177180,9.253622,2025-03-20T19:19:59.000-05:00,-0.164138,-0.977812,0.019694,2025-03-20T19:19:58.119-05:00,0.747925,-0.081067,0.225626,2025-03-20T19:19:58.119-05:00
61.000000,250.999756,0.674221,7.250024,44.940264,278.409756,359.116834,2.302630,3.000000,-93.177181,9.987531,2025-03-20T19:20:00.000-05:00,-0.169558,-0.992708,0.018095,2025-03-20T19:19:59.113-05:00,0.646590,-0.201586,0.100680,2025-03-20T19:19:59.113-05:00
62.000000,251.130932,0.670957,7.258481,44.940367,278.540932,359.904857,2.363465,3.000000,-93.177179,10.873832,2025-03-20T19:20:01.000-05:00,-0.192678,-0.979295,0.029527,2025-03-20T19:20:00.118-05:00,0.357768,-0.064243,0.098929,2025-03-20T19:20:00.118-05:00
63.000000,250.374404,0.667273,7.254052,44.940472,277.784404,0.151344,2.199074,3.000000,-93.177179,11.505154,2025-03-20T19:20:02.000-05:00,-0.186717,-0.980778,0.022412,2025-03-20T19:20:01.113-05:00,0.386471,-0.066532,0.071182,2025-03-20T19:20:01.113-05:00
64.000000,250.646430,0.666936,7.258837,44.940585,278.056430,359.867523,2.105102,3.000000,-93.177180,12.190351,2025-03-20T19:20:03.000-05:00,-0.243972,-0.971992,0.008345,2025-03-20T19:20:02.118-05:00,-0.241904,0.036172,-0.088614,2025-03-20T19:20:02.118-05:00
65.000000,250.370071,0.672575,7.258521,44.940697,277.780071,0.062301,2.054374,3.000000,-93.177180,12.329005,2025-03-20T19:20:04.000-05:00,-0.262963,-0.966289,0.015258,2025-03-20T19:20:03.113-05:00,-0.431654,0.084940,-0.187201,2025-03-20T19:20:03.113-05:00
66.000000,250.712860,0.674440,7.258807,44.940805,278.122860,0.954728,2.028112,3.000000,-93.177174,12.139982,2025-03-20T19:20:05.000-05:00,-0.281345,-0.958039,0.030111,2025-03-20T19:20:04.118-05:00,-0.581714,0.151832,-0.121858,2025-03-20T19:20:04.118-05:00
67.000000,250.443918,0.671175,7.258741,44.940911,277.853918,0.640508,2.014762,3.000000,-93.177173,11.969206,2025-03-20T19:20:06.000-05:00,-0.265867,-0.957931,0.030728,2025-03-20T19:20:05.112-05:00,-0.364597,0.149143,-0.136436,2025-03-20T19:20:05.112-05:00
68.000000,250.427246,0.688439,7.258902,44.941014,277.837246,358.245087,2.007786,3.000000,-93.177180,11.623435,2025-03-20T19:20:07.000-05:00,-0.347529,-0.939405,0.017041,2025-03-20T19:20:06.117-05:00,-1.143523,0.321902,-0.184286,2025-03-20T19:20:06.117-05:00
69.000000,,,,,,,,,,,,-0.410256,-0.927123,-0.018616,2025-03-20T19:20:07.112-05:00,-1.740328,0.444091,-0.438456,2025-03-20T19:20:07.112-05:00
