seconds_elapsed,location_altitude,location_speedAccuracy,location_bearingAccuracy,location_latitude,location_altitudeAboveMeanSeaLevel,location_bearing,location_horizontalAccuracy,location_verticalAccuracy,location_longitude,location_speed,location_local_time,accelerometerUncalibrated_z,accelerometerUncalibrated_y,accelerometerUncalibrated_x,accelerometerUncalibrated_local_time,accelerometer_z,accelerometer_y,accelerometer_x,accelerometer_local_time
0.000000,262.793853,0.662698,7.685838,44.934343,290.203852,46.713003,2.016669,3.000000,-93.166997,6.983446,2025-03-20T19:08:16.999-05:00,-0.327064,-0.942971,0.246837,2025-03-20T19:08:16.978-05:00,-0.541323,0.154943,1.650312,2025-03-20T19:08:16.983-05:00
1.000000,262.937491,0.678601,8.141597,44.934407,290.347491,23.341748,2.011810,3.000000,-93.166975,6.745614,2025-03-20T19:08:17.999-05:00,-0.180906,-0.982265,0.133984,2025-03-20T19:08:17.972-05:00,0.675214,-0.161623,0.614571,2025-03-20T19:08:17.967-05:00
2.000000,262.195653,0.711023,8.046405,44.934475,289.605653,5.531293,2.008522,3.000000,-93.166980,7.140497,2025-03-20T19:08:18.999-05:00,-0.163375,-0.991745,0.046740,2025-03-20T19:08:18.967-05:00,0.751906,-0.227019,-0.154725,2025-03-20T19:08:18.972-05:00
3.000000,262.688867,0.686307,7.258905,44.934553,290.098866,0.150169,2.006274,3.000000,-93.166991,8.263071,2025-03-20T19:08:19.999-05:00,-0.180512,-0.991797,0.022588,2025-03-20T19:08:19.972-05:00,0.544842,-0.220263,-0.417154,2025-03-20T19:08:19.967-05:00
4.000000,262.733559,0.668327,7.258705,44.934642,290.143559,359.502319,2.004301,3.000000,-93.166989,9.346515,2025-03-20T19:08:20.999-05:00,-0.188465,-0.981832,0.027823,2025-03-20T19:08:20.967-05:00,0.457225,-0.118205,-0.443963,2025-03-20T19:08:20.972-05:00
5.000000,262.738503,0.663299,7.258961,44.934736,290.148503,359.502319,2.257862,3.000000,-93.166989,10.073346,2025-03-20T19:08:21.999-05:00,-0.189296,-0.983510,0.046461,2025-03-20T19:08:21.971-05:00,0.426793,-0.147088,-0.345885,2025-03-20T19:08:21.966-05:00
6.000000,262.842785,0.678799,7.258368,44.934835,290.252784,0.000000,2.154127,3.000000,-93.166990,10.726144,2025-03-20T19:08:22.999-05:00,-0.188472,-0.983711,0.047037,2025-03-20T19:08:22.966-05:00,0.403713,-0.136710,-0.366070,2025-03-20T19:08:22.971-05:00
7.000000,262.538751,0.669893,7.258287,44.934943,289.948750,0.000000,3.202510,3.000000,-93.166986,11.601410,2025-03-20T19:08:23.999-05:00,-0.195625,-0.984841,0.039480,2025-03-20T19:08:23.971-05:00,0.325186,-0.144859,-0.437472,2025-03-20T19:08:23.966-05:00
8.000000,262.846376,0.656364,7.258964,44.935048,290.256376,0.000000,2.675276,3.000000,-93.166990,11.776129,2025-03-20T19:08:24.999-05:00,-0.194628,-0.971518,0.036785,2025-03-20T19:08:24.966-05:00,0.278527,-0.001233,-0.433489,2025-03-20T19:08:24.971-05:00
9.000000,262.547360,0.795354,7.258892,44.935148,289.957360,0.000000,2.463040,3.000000,-93.166989,11.477828,2025-03-20T19:08:25.999-05:00,-0.200800,-0.983428,0.035698,2025-03-20T19:08:25.971-05:00,0.258079,-0.131656,-0.459807,2025-03-20T19:08:25.966-05:00
10.000000,262.441625,0.732379,7.258852,44.935278,289.851625,0.000000,3.421869,3.000000,-93.166947,12.982801,2025-03-20T19:08:26.999-05:00,-0.207452,-0.983048,0.055988,2025-03-20T19:08:26.965-05:00,0.090153,-0.106516,-0.378163,2025-03-20T19:08:26.970-05:00
11.000000,263.515015,1.740249,9.686476,44.935426,290.925015,0.000000,2.825656,3.000000,-93.166990,14.543385,2025-03-20T19:08:27.999-05:00,-0.209741,-0.977594,0.044036,2025-03-20T19:08:27.970-05:00,0.060143,-0.047667,-0.423896,2025-03-20T19:08:27.965-05:00
12.000000,263.606704,1.709602,9.689943,44.935552,291.016704,0.000000,2.915502,3.000000,-93.166989,14.292284,2025-03-20T19:08:28.999-05:00,-0.218617,-0.968598,0.052766,2025-03-20T19:08:28.965-05:00,-0.027786,0.041486,-0.328702,2025-03-20T19:08:28.970-05:00
13.000000,263.575104,1.711434,9.367413,44.935688,290.985104,0.000000,3.248982,3.000000,-93.166989,14.803882,2025-03-20T19:08:29.999-05:00,-0.217020,-0.979587,0.043633,2025-03-20T19:08:29.970-05:00,-0.043045,-0.060954,-0.394333,2025-03-20T19:08:29.965-05:00
14.000000,263.712463,1.709273,9.030311,44.935828,291.122463,0.230498,2.778161,3.000000,-93.166990,15.337178,2025-03-20T19:08:30.999-05:00,-0.230866,-0.971801,0.032792,2025-03-20T19:08:30.964-05:00,-0.216128,0.036000,-0.347737,2025-03-20T19:08:30.969-05:00
15.000000,263.801435,1.689351,8.709870,44.935971,291.211435,0.230498,2.344471,3.000000,-93.166992,15.715941,2025-03-20T19:08:31.999-05:00,-0.220705,-0.966425,0.026707,2025-03-20T19:08:31.969-05:00,-0.146829,0.098585,-0.328385,2025-03-20T19:08:31.964-05:00
16.000000,263.821160,1.675276,8.462731,44.936117,291.231160,0.230498,3.484812,3.000000,-93.166991,16.040284,2025-03-20T19:08:32.999-05:00,-0.241004,-0.979811,0.000107,2025-03-20T19:08:32.964-05:00,-0.333038,-0.029145,-0.497954,2025-03-20T19:08:32.969-05:00
17.000000,264.086778,1.711438,8.604400,44.936261,291.496777,359.878601,3.266617,3.000000,-93.166996,16.116708,2025-03-20T19:08:33.999-05:00,-0.233298,-0.972628,0.009810,2025-03-20T19:08:33.969-05:00,-0.268083,0.039983,-0.442587,2025-03-20T19:08:33.964-05:00
18.000000,264.279071,1.656607,8.217925,44.936409,291.689071,359.878601,2.538472,3.000000,-93.166997,16.332905,2025-03-20T19:08:34.999-05:00,-0.222352,-0.964252,0.025886,2025-03-20T19:08:34.964-05:00,-0.129193,0.120095,-0.316627,2025-03-20T19:08:34.969-05:00
19.000000,264.568490,1.669451,8.162102,44.936559,291.978490,359.878601,2.225073,3.000000,-93.166994,16.571461,2025-03-20T19:08:35.999-05:00,-0.235674,-0.975712,0.038092,2025-03-20T19:08:35.968-05:00,-0.224196,-0.009043,-0.218626,2025-03-20T19:08:35.963-05:00
20.000000,264.679522,1.663795,7.999377,44.936711,292.089522,0.133631,2.151864,3.000000,-93.166993,16.851099,2025-03-20T19:08:37.000-05:00,-0.234129,-0.977925,0.032598,2025-03-20T19:08:36.963-05:00,-0.220039,-0.015127,-0.201871,2025-03-20T19:08:36.968-05:00
21.000000,264.876526,1.659214,7.839028,44.936865,292.286526,0.133631,2.061969,3.000000,-93.166993,17.148104,2025-03-20T19:08:38.000-05:00,-0.240169,-0.967920,0.008803,2025-03-20T19:08:37.968-05:00,-0.317777,0.087490,-0.308696,2025-03-20T19:08:37.963-05:00
22.000000,265.118214,1.656815,7.757143,44.937020,292.528214,0.679104,2.240168,3.000000,-93.166995,17.301872,2025-03-20T19:08:39.000-05:00,-0.260103,-0.969402,0.021628,2025-03-20T19:08:38.963-05:00,-0.421238,0.051879,-0.266070,2025-03-20T19:08:38.968-05:00
23.000000,265.224682,1.656689,7.772433,44.937174,292.634682,359.884857,2.095668,3.000000,-93.166994,17.268746,2025-03-20T19:08:40.000-05:00,-0.250638,-0.964111,0.038273,2025-03-20T19:08:39.967-05:00,-0.308545,0.103237,-0.201406,2025-03-20T19:08:39.972-05:00
24.000000,265.328930,1.667814,8.060791,44.937318,292.738930,359.884857,2.039904,3.000000,-93.166996,16.761467,2025-03-20T19:08:41.000-05:00,-0.270796,-0.961690,0.039059,2025-03-20T19:08:40.972-05:00,-0.485766,0.115275,-0.162045,2025-03-20T19:08:40.967-05:00
25.000000,265.488355,1.669078,8.053489,44.937472,292.898355,359.884857,2.016082,3.000000,-93.166998,16.788617,2025-03-20T19:08:42.000-05:00,-0.291283,-0.955653,0.020671,2025-03-20T19:08:41.967-05:00,-0.642332,0.168625,-0.314364,2025-03-20T19:08:41.972-05:00
26.000000,265.815412,1.655755,8.018802,44.937627,293.225412,0.565792,2.359819,3.000000,-93.167002,16.726953,2025-03-20T19:08:43.000-05:00,-0.297176,-0.952547,0.005313,2025-03-20T19:08:42.972-05:00,-0.658843,0.195105,-0.367378,2025-03-20T19:08:42.967-05:00
27.000000,265.913467,1.675796,8.347339,44.937776,293.323467,0.000000,2.225519,3.000000,-93.167000,16.263414,2025-03-20T19:08:44.000-05:00,-0.276999,-0.955585,0.015039,2025-03-20T19:08:43.967-05:00,-0.440583,0.162846,-0.208361,2025-03-20T19:08:43.971-05:00
28.000000,266.245213,1.676085,8.444988,44.937923,293.655213,0.000000,2.093767,3.000000,-93.166999,16.079383,2025-03-20T19:08:45.000-05:00,-0.283272,-0.925711,0.014697,2025-03-20T19:08:44.971-05:00,-0.362116,0.419353,-0.127354,2025-03-20T19:08:44.966-05:00
29.000000,265.910245,1.678928,8.552809,44.938066,293.320245,0.000000,2.545937,3.000000,-93.166998,15.904324,2025-03-20T19:08:46.000-05:00,-0.310607,-0.946604,0.016412,2025-03-20T19:08:45.966-05:00,-0.519743,0.183568,-0.181086,2025-03-20T19:08:45.971-05:00
30.000000,265.722699,1.705012,8.876790,44.938206,293.132699,0.000000,2.235469,3.000000,-93.166998,15.558943,2025-03-20T19:08:47.000-05:00,-0.310314,-0.958528,0.009478,2025-03-20T19:08:46.971-05:00,-0.521090,0.075709,-0.252224,2025-03-20T19:08:46.966-05:00
31.000000,265.392827,1.692579,8.988551,44.938342,292.802827,0.435833,2.103967,3.000000,-93.166999,15.253717,2025-03-20T19:08:48.000-05:00,-0.284523,-0.952276,0.021479,2025-03-20T19:08:47.966-05:00,-0.250685,0.122738,-0.173806,2025-03-20T19:08:47.971-05:00
32.000000,265.288138,1.698816,9.166591,44.938478,292.698138,0.435833,2.046042,3.000000,-93.166998,15.012618,2025-03-20T19:08:49.000-05:00,-0.271852,-0.959459,0.030128,2025-03-20T19:08:48.970-05:00,-0.119663,0.047095,-0.088231,2025-03-20T19:08:48.965-05:00
33.000000,265.109449,1.673312,9.030769,44.938613,292.519449,0.435833,2.020901,3.000000,-93.166999,15.009430,2025-03-20T19:08:50.000-05:00,-0.270542,-0.959356,0.029865,2025-03-20T19:08:49.965-05:00,-0.091522,0.054264,-0.083940,2025-03-20T19:08:49.970-05:00
34.000000,264.970265,1.706992,9.183032,44.938748,292.380265,0.435833,2.009412,3.000000,-93.166999,15.057955,2025-03-20T19:08:51.000-05:00,-0.301302,-0.958264,0.014252,2025-03-20T19:08:50.970-05:00,-0.373603,0.059950,-0.199776,2025-03-20T19:08:50.965-05:00
35.000000,264.811976,1.698136,9.193355,44.938882,292.221976,0.435833,2.004261,3.000000,-93.167001,14.963598,2025-03-20T19:08:52.000-05:00,-0.311007,-0.953105,0.001581,2025-03-20T19:08:51.965-05:00,-0.519049,0.123609,-0.185226,2025-03-20T19:08:51.970-05:00
36.000000,264.710611,1.693802,9.357644,44.939015,292.120610,0.283029,2.001923,3.000000,-93.167001,14.664602,2025-03-20T19:08:53.000-05:00,-0.314436,-0.940675,-0.005357,2025-03-20T19:08:52.970-05:00,-0.485849,0.222959,-0.179571,2025-03-20T19:08:52.965-05:00
37.000000,264.317686,1.741953,9.891508,44.939140,291.727685,0.225605,2.000900,3.000000,-93.167001,14.262702,2025-03-20T19:08:54.000-05:00,-0.410289,-0.922888,-0.016243,2025-03-20T19:08:53.964-05:00,-1.325508,0.382021,-0.390807,2025-03-20T19:08:53.969-05:00
38.000000,264.062549,1.741850,10.389076,44.939263,291.472549,0.225605,2.000422,3.000000,-93.167001,13.576228,2025-03-20T19:08:55.000-05:00,-0.474517,-0.906036,-0.047971,2025-03-20T19:08:54.969-05:00,-1.904268,0.522662,-0.662397,2025-03-20T19:08:54.964-05:00
39.000000,263.983077,1.788601,12.228572,44.939368,291.393076,359.584412,2.000207,3.000000,-93.167000,11.845856,2025-03-20T19:08:56.000-05:00,-0.407003,-0.923580,-0.026577,2025-03-20T19:08:55.964-05:00,-1.144701,0.327210,-0.403890,2025-03-20T19:08:55.969-05:00
40.000000,263.886629,1.839021,14.748693,44.939455,291.296629,0.000000,2.000110,3.000000,-93.167000,10.056793,2025-03-20T19:08:57.000-05:00,-0.412083,-0.921254,-0.022585,2025-03-20T19:08:56.969-05:00,-1.007324,0.293483,-0.297736,2025-03-20T19:08:56.964-05:00
41.000000,263.760073,1.926029,17.510951,44.939530,291.170073,0.000000,2.124841,3.000000,-93.167001,8.837094,2025-03-20T19:08:58.000-05:00,-0.424663,-0.920480,-0.024337,2025-03-20T19:08:57.963-05:00,-1.033605,0.262765,-0.266158,2025-03-20T19:08:57.968-05:00
42.000000,263.718042,1.999069,21.528324,44.939596,291.128042,0.000000,2.413376,3.000000,-93.167001,7.467018,2025-03-20T19:08:59.000-05:00,-0.411025,-0.926784,-0.017361,2025-03-20T19:08:58.968-05:00,-0.891812,0.201070,-0.238761,2025-03-20T19:08:58.963-05:00
43.000000,263.641377,2.108126,27.995884,44.939647,291.051377,359.692200,2.291905,3.000000,-93.167001,6.056586,2025-03-20T19:09:00.000-05:00,-0.401708,-0.923607,-0.008691,2025-03-20T19:08:59.963-05:00,-0.791897,0.231289,-0.199503,2025-03-20T19:08:59.968-05:00
44.000000,263.655906,2.234003,37.252204,44.939689,291.065906,359.692200,2.297923,3.000000,-93.167001,4.809319,2025-03-20T19:09:01.000-05:00,-0.380664,-0.932379,-0.012148,2025-03-20T19:09:00.968-05:00,-0.569079,0.138341,-0.193373,2025-03-20T19:09:00.963-05:00
45.000000,263.573335,2.444945,52.018957,44.939719,290.983335,359.692200,2.244537,3.000000,-93.167002,3.618697,2025-03-20T19:09:02.000-05:00,-0.369750,-0.934065,-0.006989,2025-03-20T19:09:01.963-05:00,-0.446896,0.115691,-0.134843,2025-03-20T19:09:01.968-05:00
46.000000,263.639386,2.551254,75.264152,44.939740,291.049386,359.692200,2.203781,3.000000,-93.167002,2.637848,2025-03-20T19:09:03.000-05:00,-0.340131,-0.943151,0.001124,2025-03-20T19:09:02.967-05:00,-0.141051,0.023130,-0.052904,2025-03-20T19:09:02.972-05:00
47.000000,263.660698,2.571485,113.692704,44.939755,291.070697,359.692200,2.174669,3.000000,-93.167003,1.790178,2025-03-20T19:09:04.000-05:00,-0.315350,-0.950733,0.006194,2025-03-20T19:09:03.972-05:00,0.102962,-0.051323,0.001127,2025-03-20T19:09:03.967-05:00
48.000000,263.664473,3.599913,180.000000,44.939765,291.074473,359.692200,2.322842,3.000000,-93.167003,1.198577,2025-03-20T19:09:05.000-05:00,-0.318758,-0.948465,0.006054,2025-03-20T19:09:04.967-05:00,0.065430,-0.029151,-0.001488,2025-03-20T19:09:04.972-05:00
49.000000,263.727830,3.716405,180.000000,44.939772,291.137830,359.692200,2.346249,3.000000,-93.167004,0.805587,2025-03-20T19:09:06.000-05:00,-0.322663,-0.948032,0.005089,2025-03-20T19:09:05.972-05:00,0.047581,-0.029341,0.000742,2025-03-20T19:09:05.967-05:00
50.000000,263.796201,3.744135,180.000000,44.939776,291.206200,359.692200,2.311624,3.000000,-93.167005,0.355515,2025-03-20T19:09:07.000-05:00,-0.277119,-0.959485,0.016743,2025-03-20T19:09:06.966-05:00,0.496813,-0.145479,0.116345,2025-03-20T19:09:06.971-05:00
51.000000,263.811819,3.756161,180.000000,44.939776,291.221819,359.692200,2.418239,3.000000,-93.167004,0.000000,2025-03-20T19:09:08.000-05:00,-0.277304,-0.959951,0.016366,2025-03-20T19:09:07.971-05:00,0.497707,-0.151682,0.117297,2025-03-20T19:09:07.966-05:00
52.000000,263.822805,3.743699,180.000000,44.939777,291.232805,359.692200,2.507659,3.000000,-93.167003,0.017125,2025-03-20T19:09:09.000-05:00,-0.272904,-0.961169,0.019075,2025-03-20T19:09:08.966-05:00,0.546452,-0.162993,0.138581,2025-03-20T19:09:08.971-05:00
53.000000,263.840250,3.746059,180.000000,44.939777,291.250250,359.692200,2.636194,3.000000,-93.167003,0.000000,2025-03-20T19:09:10.000-05:00,-0.219789,-0.974961,0.032107,2025-03-20T19:09:09.971-05:00,1.043329,-0.288528,0.261420,2025-03-20T19:09:09.966-05:00
54.000000,263.736342,3.749145,180.000000,44.939776,291.146342,359.692200,2.677978,3.000000,-93.167003,0.211833,2025-03-20T19:09:11.000-05:00,-0.165943,-0.988081,0.048262,2025-03-20T19:09:10.966-05:00,1.501847,-0.398831,0.403757,2025-03-20T19:09:10.971-05:00
55.000000,263.832913,3.742685,180.000000,44.939784,291.242913,359.692200,2.687634,3.000000,-93.167002,0.822481,2025-03-20T19:09:12.000-05:00,-0.109664,-1.003309,0.062461,2025-03-20T19:09:11.970-05:00,1.950655,-0.511435,0.507794,2025-03-20T19:09:11.965-05:00
56.000000,263.919676,3.114214,109.999861,44.939808,291.329676,0.000000,2.765547,3.000000,-93.167002,2.293875,2025-03-20T19:09:13.000-05:00,-0.164661,-0.991375,0.050916,2025-03-20T19:09:12.965-05:00,1.377207,-0.384791,0.364830,2025-03-20T19:09:12.970-05:00
57.000000,263.853203,2.391125,51.686692,44.939847,291.263203,0.000000,2.762940,3.000000,-93.167002,3.742969,2025-03-20T19:09:14.000-05:00,-0.183491,-0.981889,0.045367,2025-03-20T19:09:13.970-05:00,1.123919,-0.269617,0.273894,2025-03-20T19:09:13.965-05:00
58.000000,263.811143,2.250859,36.906651,44.939894,291.221143,0.000000,2.720554,3.000000,-93.167003,4.914724,2025-03-20T19:09:15.000-05:00,-0.215454,-0.981428,0.039398,2025-03-20T19:09:14.965-05:00,0.732744,-0.242917,0.209335,2025-03-20T19:09:14.970-05:00
59.000000,263.737232,2.170290,29.732909,44.939948,291.147232,0.000000,2.682630,3.000000,-93.167003,5.811625,2025-03-20T19:09:16.000-05:00,-0.231569,-0.975449,0.017145,2025-03-20T19:09:15.969-05:00,0.445829,-0.140546,0.062221,2025-03-20T19:09:15.964-05:00
60.000000,263.727358,2.109446,26.915918,44.940007,291.137358,0.000000,2.692289,3.000000,-93.167003,6.326446,2025-03-20T19:09:17.000-05:00,-0.285810,-0.959445,-0.001268,2025-03-20T19:09:16.964-05:00,-0.192816,0.039791,-0.063175,2025-03-20T19:09:16.969-05:00
61.000000,263.712825,2.077661,25.844394,44.940068,291.122825,0.000000,2.632313,3.000000,-93.167002,6.507654,2025-03-20T19:09:18.000-05:00,-0.216522,-0.969665,0.013031,2025-03-20T19:09:17.969-05:00,0.414339,-0.034168,0.086979,2025-03-20T19:09:17.964-05:00
62.000000,263.733360,2.088836,26.545456,44.940124,291.143360,0.000000,2.568487,3.000000,-93.167001,6.372121,2025-03-20T19:09:19.000-05:00,-0.193016,-0.976096,0.024820,2025-03-20T19:09:18.964-05:00,0.704753,-0.112030,0.175925,2025-03-20T19:09:18.969-05:00
63.000000,263.652917,2.051232,23.020858,44.940190,291.062916,0.195513,2.521262,3.000000,-93.167000,7.123391,2025-03-20T19:09:20.000-05:00,-0.225594,-0.973728,0.040428,2025-03-20T19:09:19.969-05:00,0.431333,-0.113256,0.181296,2025-03-20T19:09:19.964-05:00
64.000000,263.548568,1.999083,19.894218,44.940262,290.958568,0.195513,2.431908,3.000000,-93.166999,7.983561,2025-03-20T19:09:21.000-05:00,-0.280278,-0.961378,0.024864,2025-03-20T19:09:20.963-05:00,-0.111782,0.013369,-0.024880,2025-03-20T19:09:20.968-05:00
65.000000,263.460985,1.965127,19.355873,44.940335,290.870985,0.195513,2.328152,3.000000,-93.166998,8.157493,2025-03-20T19:09:22.000-05:00,-0.282982,-0.958618,0.023307,2025-03-20T19:09:21.968-05:00,-0.200014,0.062029,-0.042906,2025-03-20T19:09:21.963-05:00
66.000000,263.262616,1.991823,19.281862,44.940408,290.672616,0.195513,2.433921,3.000000,-93.166995,8.138532,2025-03-20T19:09:23.000-05:00,-0.359737,-0.937052,-0.001094,2025-03-20T19:09:22.963-05:00,-0.954256,0.265924,-0.258794,2025-03-20T19:09:22.968-05:00
67.000000,263.189854,2.056015,20.235152,44.940478,290.599854,0.195513,2.676791,3.000000,-93.166993,7.734489,2025-03-20T19:09:24.000-05:00,-0.360502,-0.942617,-0.003579,2025-03-20T19:09:23.968-05:00,-0.943590,0.212713,-0.270678,2025-03-20T19:09:23.963-05:00
68.000000,263.316111,2.166220,23.356305,44.940539,290.726111,0.195513,2.799023,3.000000,-93.166991,6.843019,2025-03-20T19:09:25.000-05:00,-0.293930,-0.954219,0.021195,2025-03-20T19:09:24.972-05:00,-0.283387,0.090890,-0.074148,2025-03-20T19:09:24.967-05:00
69.000000,263.512906,2.256439,26.059708,44.940596,290.922905,0.195513,3.460623,3.280951,-93.166989,6.232393,2025-03-20T19:09:26.000-05:00,-0.266725,-0.958123,0.026524,2025-03-20T19:09:25.967-05:00,-0.025907,0.063682,0.006819,2025-03-20T19:09:25.972-05:00
70.000000,263.669183,2.116745,27.704368,44.940653,291.079183,0.195513,3.417442,3.248440,-93.166988,6.110333,2025-03-20T19:09:27.000-05:00,-0.205499,-0.980079,0.053651,2025-03-20T19:09:26.972-05:00,0.601778,-0.167214,0.214910,2025-03-20T19:09:26.967-05:00
71.000000,263.614486,2.102002,26.176870,44.940711,291.024486,359.438263,3.405113,3.211980,-93.166988,6.423390,2025-03-20T19:09:28.000-05:00,-0.219196,-0.968701,0.061084,2025-03-20T19:09:27.967-05:00,0.488552,-0.061153,0.261181,2025-03-20T19:09:27.972-05:00
72.000000,263.692491,2.015103,22.818234,44.940779,291.102491,359.438263,3.351178,3.114816,-93.166989,7.138605,2025-03-20T19:09:29.000-05:00,-0.232213,-0.975222,0.068521,2025-03-20T19:09:28.972-05:00,0.344615,-0.121756,0.298636,2025-03-20T19:09:28.967-05:00
73.000000,263.534462,2.008200,20.947020,44.940850,290.944462,359.107117,3.039391,3.000000,-93.166994,7.741092,2025-03-20T19:09:30.000-05:00,-0.284957,-0.954590,0.071909,2025-03-20T19:09:29.966-05:00,-0.194129,0.087466,0.290689,2025-03-20T19:09:29.971-05:00
74.000000,263.461322,1.966265,19.863658,44.940923,290.871321,359.107117,2.755106,3.000000,-93.167000,8.012632,2025-03-20T19:09:31.000-05:00,-0.287259,-0.956281,0.013594,2025-03-20T19:09:30.971-05:00,-0.182397,0.062528,-0.141290,2025-03-20T19:09:30.966-05:00
75.000000,263.209979,1.982749,19.863466,44.940994,290.619979,359.107117,2.538272,3.000000,-93.167012,7.981921,2025-03-20T19:09:32.000-05:00,-0.284551,-0.958353,-0.004823,2025-03-20T19:09:31.966-05:00,-0.215630,0.063394,-0.259094,2025-03-20T19:09:31.971-05:00
76.000000,263.064072,1.973846,20.245088,44.941066,290.474072,0.206416,2.364512,3.000000,-93.166993,7.878964,2025-03-20T19:09:33.000-05:00,-0.305407,-0.953020,-0.030684,2025-03-20T19:09:32.971-05:00,-0.412318,0.115934,-0.440097,2025-03-20T19:09:32.966-05:00
77.000000,262.839954,1.982326,20.828360,44.941135,290.249953,0.206416,2.248776,3.000000,-93.166993,7.676977,2025-03-20T19:09:34.000-05:00,-0.368903,-0.935545,-0.037176,2025-03-20T19:09:33.965-05:00,-1.030816,0.277040,-0.404527,2025-03-20T19:09:33.970-05:00
