seconds_elapsed,location_altitude,location_speedAccuracy,location_bearingAccuracy,location_latitude,location_altitudeAboveMeanSeaLevel,location_bearing,location_horizontalAccuracy,location_verticalAccuracy,location_longitude,location_speed,location_local_time,accelerometerUncalibrated_z,accelerometerUncalibrated_y,accelerometerUncalibrated_x,accelerometerUncalibrated_local_time,accelerometer_z,accelerometer_y,accelerometer_x,accelerometer_local_time
0.000000,253.955921,1.128943,44.776692,44.934380,281.365921,294.073914,8.572851,3.000000,-93.177149,2.024579,2025-03-13T21:06:57.330-05:00,-0.176095,-0.992719,-0.153467,2025-03-13T21:06:57.318-05:00,1.014523,-0.317544,-1.317145,2025-03-13T21:06:57.330-05:00
1.000000,253.028870,1.640000,33.247616,44.934431,280.438869,314.296875,3.982105,3.000000,-93.177214,3.020000,2025-03-13T21:06:58.999-05:00,-0.146949,-0.994787,-0.081828,2025-03-13T21:06:58.313-05:00,0.998718,-0.255301,-0.744740,2025-03-13T21:06:58.314-05:00
2.000000,252.866394,1.100000,13.133933,44.934505,280.276394,357.187500,3.535534,3.000000,-93.177193,5.440000,2025-03-13T21:06:59.999-05:00,-0.141212,-0.993659,0.070098,2025-03-13T21:06:59.308-05:00,0.897382,-0.208443,0.657118,2025-03-13T21:06:59.309-05:00
3.000000,251.259644,1.910000,27.566826,44.934558,278.669643,354.726562,3.535534,3.000000,-93.177196,5.440000,2025-03-13T21:07:00.999-05:00,-0.156278,-0.991729,0.067893,2025-03-13T21:07:00.312-05:00,0.664053,-0.168960,0.698935,2025-03-13T21:07:00.314-05:00
4.000000,250.998779,1.250000,7.025028,44.934642,278.408779,2.460938,3.535534,3.000000,-93.177182,5.440000,2025-03-13T21:07:01.999-05:00,-0.149400,-0.991042,0.064511,2025-03-13T21:07:01.307-05:00,0.647078,-0.141290,0.631391,2025-03-13T21:07:01.308-05:00
5.000000,250.858459,0.290000,1.777122,44.934741,278.268459,358.593750,3.535534,3.000000,-93.177195,9.420000,2025-03-13T21:07:02.999-05:00,-0.168427,-0.989781,0.060472,2025-03-13T21:07:02.312-05:00,0.461553,-0.128249,0.516451,2025-03-13T21:07:02.313-05:00
6.000000,250.964478,0.150000,0.891456,44.934839,278.374477,359.648438,3.535534,3.000000,-93.177196,11.270000,2025-03-13T21:07:04.000-05:00,-0.219700,-0.969618,0.050693,2025-03-13T21:07:03.307-05:00,-0.049966,0.065726,0.356016,2025-03-13T21:07:03.308-05:00
7.000000,251.631897,0.390000,2.218176,44.934939,279.041897,0.351562,3.535534,3.000000,-93.177191,11.560000,2025-03-13T21:07:05.000-05:00,-0.220122,-0.977804,0.053481,2025-03-13T21:07:04.311-05:00,-0.074626,-0.009835,0.342915,2025-03-13T21:07:04.312-05:00
8.000000,251.527893,0.460000,2.445011,44.935046,278.937893,359.648438,3.535534,3.000000,-93.177187,11.560000,2025-03-13T21:07:06.000-05:00,-0.244919,-0.976039,0.053421,2025-03-13T21:07:05.306-05:00,-0.323708,0.008082,0.240220,2025-03-13T21:07:05.307-05:00
9.000000,251.485718,1.740000,6.315425,44.935163,278.895718,0.703125,3.535534,3.000000,-93.177184,12.270000,2025-03-13T21:07:07.000-05:00,-0.255295,-0.970614,0.048729,2025-03-13T21:07:06.310-05:00,-0.423418,0.059263,0.098372,2025-03-13T21:07:06.312-05:00
10.000000,251.129944,0.660000,3.489965,44.935270,278.539944,360.000000,3.535534,3.000000,-93.177192,12.270000,2025-03-13T21:07:08.000-05:00,-0.240428,-0.933234,0.024020,2025-03-13T21:07:07.305-05:00,-0.377125,0.448040,0.102761,2025-03-13T21:07:07.306-05:00
11.000000,251.205017,1.410000,5.541683,44.935379,278.615017,0.703125,3.535534,3.000000,-93.177187,12.410000,2025-03-13T21:07:09.000-05:00,-0.257475,-0.983063,0.043908,2025-03-13T21:07:08.310-05:00,-0.388194,-0.067945,0.273608,2025-03-13T21:07:08.311-05:00
12.000000,250.669739,0.930000,4.032907,44.935499,278.079739,360.000000,3.535534,3.000000,-93.177192,13.060000,2025-03-13T21:07:10.000-05:00,-0.260035,-0.959932,0.030244,2025-03-13T21:07:09.314-05:00,-0.442017,0.155556,0.031941,2025-03-13T21:07:09.306-05:00
13.000000,250.676025,0.420000,2.087723,44.935620,278.086025,0.703125,3.535534,3.000000,-93.177192,12.990000,2025-03-13T21:07:11.000-05:00,-0.268440,-0.956729,0.055773,2025-03-13T21:07:10.309-05:00,-0.444001,0.175748,0.081248,2025-03-13T21:07:10.310-05:00
14.000000,250.676039,0.420000,7.258975,44.935737,278.086039,0.703126,4.748652,4.029364,-93.177190,12.990000,2025-03-13T21:07:12.000-05:00,-0.279765,-0.955805,0.066292,2025-03-13T21:07:11.314-05:00,-0.482156,0.145051,0.145542,2025-03-13T21:07:11.305-05:00
15.000000,250.550306,1.610000,9.988961,44.935859,277.960306,359.648437,4.748652,4.029364,-93.177200,13.060000,2025-03-13T21:07:13.000-05:00,-0.279483,-0.956871,0.044333,2025-03-13T21:07:12.308-05:00,-0.515263,0.159436,0.022318,2025-03-13T21:07:12.310-05:00
16.000000,250.117873,1.020000,7.258975,44.935982,277.527872,0.351563,4.748652,4.029364,-93.177195,13.200000,2025-03-13T21:07:14.000-05:00,-0.279477,-0.970293,0.022383,2025-03-13T21:07:13.313-05:00,-0.506393,0.027545,-0.143126,2025-03-13T21:07:13.314-05:00
17.000000,249.740004,0.700000,7.258975,44.936103,277.150004,1.054690,4.748652,4.029364,-93.177188,13.340000,2025-03-13T21:07:15.000-05:00,-0.259899,-0.952833,0.042110,2025-03-13T21:07:14.308-05:00,-0.362256,0.206201,0.029586,2025-03-13T21:07:14.309-05:00
18.000000,250.276016,1.780000,10.597404,44.936227,277.686015,357.890621,4.748652,4.029364,-93.177202,13.610000,2025-03-13T21:07:16.000-05:00,-0.254611,-0.953130,0.032102,2025-03-13T21:07:15.312-05:00,-0.126064,0.163826,0.047128,2025-03-13T21:07:15.314-05:00
19.000000,249.359756,2.610000,15.538890,44.936355,276.769756,357.187494,4.748652,4.029364,-93.177215,13.610000,2025-03-13T21:07:17.000-05:00,-0.266335,-0.969801,0.041913,2025-03-13T21:07:16.307-05:00,-0.295221,0.017268,0.084251,2025-03-13T21:07:16.308-05:00
20.000000,249.528945,1.100000,7.258975,44.936466,276.938945,359.648437,4.748652,4.029364,-93.177199,13.610000,2025-03-13T21:07:18.000-05:00,-0.263727,-0.953785,0.045997,2025-03-13T21:07:17.312-05:00,-0.206648,0.150521,0.036562,2025-03-13T21:07:17.313-05:00
21.000000,249.770216,1.430000,8.838345,44.936572,277.180216,1.054690,4.748652,4.029364,-93.177195,13.110000,2025-03-13T21:07:19.000-05:00,-0.268215,-0.975428,0.037587,2025-03-13T21:07:18.306-05:00,-0.254242,-0.060215,0.008416,2025-03-13T21:07:18.308-05:00
22.000000,249.306776,1.960000,12.188473,44.936688,276.716776,4.218759,4.748652,4.029364,-93.177168,13.030000,2025-03-13T21:07:20.000-05:00,-0.267292,-0.957771,0.037756,2025-03-13T21:07:19.311-05:00,-0.250601,0.117336,0.035017,2025-03-13T21:07:19.312-05:00
23.000000,249.769974,1.240000,7.258975,44.936825,277.179974,0.351563,4.748652,4.029364,-93.177184,13.900000,2025-03-13T21:07:21.000-05:00,-0.268534,-0.953935,0.044022,2025-03-13T21:07:20.306-05:00,-0.254013,0.151170,0.046174,2025-03-13T21:07:20.307-05:00
24.000000,250.003981,2.220000,13.535230,44.936940,277.413981,2.109379,4.748652,4.029364,-93.177167,13.290000,2025-03-13T21:07:22.000-05:00,-0.269212,-0.973801,0.041539,2025-03-13T21:07:21.310-05:00,-0.235582,-0.047388,0.004090,2025-03-13T21:07:21.312-05:00
25.000000,250.774550,1.750000,10.669663,44.937056,278.184550,5.976575,4.748652,4.029364,-93.177128,13.290000,2025-03-13T21:07:23.000-05:00,-0.274480,-0.955871,0.030800,2025-03-13T21:07:22.305-05:00,-0.303409,0.126799,-0.072384,2025-03-13T21:07:22.306-05:00
26.000000,250.019728,1.750000,10.669663,44.937190,277.429728,1.406253,4.748652,4.029364,-93.177153,13.290000,2025-03-13T21:07:24.000-05:00,-0.275295,-0.948824,0.019399,2025-03-13T21:07:23.310-05:00,-0.293751,0.195208,-0.084335,2025-03-13T21:07:23.311-05:00
27.000000,250.023086,0.760000,7.258975,44.937319,277.433086,359.296873,4.748652,4.029364,-93.177169,13.820000,2025-03-13T21:07:24.999-05:00,-0.291789,-0.950538,0.022348,2025-03-13T21:07:24.314-05:00,-0.343481,0.152019,-0.133487,2025-03-13T21:07:24.306-05:00
28.000000,249.757217,0.308016,7.258975,44.937443,277.167217,358.593747,4.748652,4.029364,-93.177180,13.820000,2025-03-13T21:07:25.999-05:00,-0.291380,-0.951083,0.025426,2025-03-13T21:07:25.309-05:00,-0.298238,0.129923,-0.124900,2025-03-13T21:07:25.310-05:00
29.000000,249.634292,1.510000,8.996543,44.937562,277.044292,359.296874,4.748652,4.029364,-93.177180,13.600000,2025-03-13T21:07:26.999-05:00,-0.296125,-0.955227,0.027832,2025-03-13T21:07:26.314-05:00,-0.375431,0.105945,-0.066823,2025-03-13T21:07:26.305-05:00
30.000000,249.330398,0.590000,7.258975,44.937685,276.740397,1.054690,4.748652,4.029364,-93.177172,13.490000,2025-03-13T21:07:27.999-05:00,-0.286331,-0.953152,0.032718,2025-03-13T21:07:27.308-05:00,-0.234176,0.105528,-0.090221,2025-03-13T21:07:27.310-05:00
31.000000,249.162245,1.130000,7.258975,44.937798,276.572245,2.109379,4.748652,4.029364,-93.177161,13.110000,2025-03-13T21:07:28.999-05:00,-0.270412,-0.971113,0.038062,2025-03-13T21:07:28.313-05:00,-0.144710,-0.048477,0.009454,2025-03-13T21:07:28.314-05:00
32.000000,249.451307,0.460000,7.258975,44.937908,276.861307,359.648437,4.748652,4.029364,-93.177173,12.910000,2025-03-13T21:07:29.999-05:00,-0.259196,-0.949665,0.020620,2025-03-13T21:07:29.308-05:00,0.051974,0.139480,-0.034209,2025-03-13T21:07:29.309-05:00
33.000000,249.473951,0.308017,7.258975,44.938026,276.883951,359.648437,4.748652,4.029364,-93.177176,13.030000,2025-03-13T21:07:30.999-05:00,-0.263017,-0.956312,0.045776,2025-03-13T21:07:30.312-05:00,0.078205,0.057293,0.094465,2025-03-13T21:07:30.314-05:00
34.000000,252.167285,1.270759,7.915160,44.938131,279.577284,0.041130,2.908978,3.000000,-93.177189,13.007978,2025-03-13T21:07:31.999-05:00,-0.271000,-0.971020,0.034252,2025-03-13T21:07:31.307-05:00,-0.007704,-0.084705,0.015816,2025-03-13T21:07:31.308-05:00
35.000000,252.552973,1.274261,7.650579,44.938259,279.962973,359.655412,2.065288,3.000000,-93.177191,13.494965,2025-03-13T21:07:32.999-05:00,-0.270930,-0.952877,0.024352,2025-03-13T21:07:32.312-05:00,-0.027168,0.094466,-0.086033,2025-03-13T21:07:32.313-05:00
36.000000,252.367290,0.672936,7.258926,44.938376,279.777290,0.142220,2.032644,3.000000,-93.177186,13.282427,2025-03-13T21:07:33.999-05:00,-0.261944,-0.963658,0.029378,2025-03-13T21:07:33.306-05:00,0.094295,-0.017176,-0.045090,2025-03-13T21:07:33.308-05:00
37.000000,252.347836,0.657232,7.258963,44.938495,279.757836,0.046668,2.016022,3.000000,-93.177186,13.185196,2025-03-13T21:07:34.999-05:00,-0.280787,-0.960690,0.029289,2025-03-13T21:07:34.311-05:00,-0.104713,0.016155,-0.033341,2025-03-13T21:07:34.312-05:00
38.000000,252.282457,0.664996,7.258972,44.938614,279.692457,0.066935,2.007870,3.000000,-93.177185,13.145888,2025-03-13T21:07:35.999-05:00,-0.281773,-0.951294,0.028648,2025-03-13T21:07:35.306-05:00,-0.103223,0.103927,-0.043770,2025-03-13T21:07:35.307-05:00
39.000000,251.696881,0.687102,7.257423,44.938732,279.106881,359.182642,2.658062,3.000000,-93.177191,13.073831,2025-03-13T21:07:36.999-05:00,-0.286310,-0.956806,0.028447,2025-03-13T21:07:36.310-05:00,-0.129037,0.043505,-0.039136,2025-03-13T21:07:36.312-05:00
40.000000,251.840459,0.684856,7.258895,44.938851,279.250458,1.377918,2.626282,3.000000,-93.177179,13.070186,2025-03-13T21:07:37.999-05:00,-0.292640,-0.957806,0.018862,2025-03-13T21:07:37.305-05:00,-0.193754,0.037954,-0.109831,2025-03-13T21:07:37.306-05:00
41.000000,251.721876,0.683271,7.258864,44.938968,279.131876,0.405730,2.895750,3.000000,-93.177181,13.032488,2025-03-13T21:07:38.999-05:00,-0.293446,-0.949157,0.026729,2025-03-13T21:07:38.310-05:00,-0.208901,0.104455,-0.098890,2025-03-13T21:07:38.311-05:00
42.000000,251.724614,0.691830,7.258966,44.939086,279.134614,0.467106,2.446182,3.000000,-93.177179,13.033570,2025-03-13T21:07:39.999-05:00,-0.309141,-0.952604,0.003620,2025-03-13T21:07:39.314-05:00,-0.353528,0.104084,-0.159709,2025-03-13T21:07:39.306-05:00
43.000000,251.679609,0.662924,7.258974,44.939194,279.089609,358.874827,2.226932,3.000000,-93.177185,12.497907,2025-03-13T21:07:40.999-05:00,-0.352808,-0.936043,0.002950,2025-03-13T21:07:40.309-05:00,-0.702220,0.231981,-0.228282,2025-03-13T21:07:40.310-05:00
44.000000,251.290603,0.672927,7.257865,44.939298,278.700603,1.105517,2.730639,3.000000,-93.177178,11.985253,2025-03-13T21:07:41.999-05:00,-0.393049,-0.926843,-0.010559,2025-03-13T21:07:41.314-05:00,-1.073661,0.311952,-0.322713,2025-03-13T21:07:41.305-05:00
45.000000,251.141135,0.679751,7.257376,44.939391,278.551135,1.629714,2.431242,3.000000,-93.177175,10.979766,2025-03-13T21:07:42.999-05:00,-0.399148,-0.929387,-0.011370,2025-03-13T21:07:42.308-05:00,-1.102729,0.277819,-0.333300,2025-03-13T21:07:42.309-05:00
46.000000,252.921333,0.771574,7.380245,44.939450,280.331333,8.135429,2.361592,3.000000,-93.177149,8.353775,2025-03-13T21:07:43.999-05:00,-0.374922,-0.927375,-0.003694,2025-03-13T21:07:43.313-05:00,-0.799989,0.278815,-0.239087,2025-03-13T21:07:43.314-05:00
47.000000,250.876412,0.722719,8.425694,44.939500,278.286412,347.642470,2.902722,3.000000,-93.177209,6.838991,2025-03-13T21:07:44.999-05:00,-0.305600,-0.953670,0.011589,2025-03-13T21:07:44.308-05:00,-0.075256,0.009028,-0.049524,2025-03-13T21:07:44.309-05:00
48.000000,250.640005,0.708424,7.695636,44.939576,278.050004,348.650388,3.185306,3.000000,-93.177215,7.400748,2025-03-13T21:07:45.999-05:00,-0.312343,-0.945990,0.010090,2025-03-13T21:07:45.312-05:00,-0.099693,0.067723,-0.052645,2025-03-13T21:07:45.313-05:00
49.000000,250.408160,0.708859,7.899071,44.939648,277.818160,3.111862,3.164750,3.000000,-93.177183,7.190509,2025-03-13T21:07:46.999-05:00,-0.334253,-0.945330,-0.003555,2025-03-13T21:07:46.307-05:00,-0.277623,0.066769,-0.105687,2025-03-13T21:07:46.308-05:00
50.000000,250.878733,0.677320,8.117624,44.939713,278.288733,0.892639,2.803302,3.000000,-93.177186,6.757512,2025-03-13T21:07:47.999-05:00,-0.319536,-0.947647,-0.007460,2025-03-13T21:07:47.312-05:00,-0.121437,0.040032,-0.098671,2025-03-13T21:07:47.313-05:00
51.000000,250.663444,0.657078,8.568910,44.939767,278.073444,358.747062,2.706554,3.000000,-93.177191,6.206328,2025-03-13T21:07:48.999-05:00,-0.304578,-0.952418,-0.000338,2025-03-13T21:07:48.306-05:00,0.043388,-0.014671,-0.040322,2025-03-13T21:07:48.307-05:00
52.000000,250.742118,0.673202,9.254110,44.939821,278.152118,359.418983,2.619332,3.000000,-93.177188,5.891120,2025-03-13T21:07:49.999-05:00,-0.278303,-0.957167,0.009806,2025-03-13T21:07:49.311-05:00,0.310936,-0.062831,0.035319,2025-03-13T21:07:49.312-05:00
53.000000,250.917124,0.662461,9.317390,44.939872,278.327124,359.605928,2.572526,3.000000,-93.177187,5.757716,2025-03-13T21:07:50.999-05:00,-0.273142,-0.960853,0.015559,2025-03-13T21:07:50.306-05:00,0.383113,-0.106605,0.071867,2025-03-13T21:07:50.307-05:00
54.000000,251.305762,0.672899,9.658668,44.939923,278.715762,0.204652,2.698075,3.000000,-93.177186,5.645086,2025-03-13T21:07:51.999-05:00,-0.259959,-0.963483,0.022859,2025-03-13T21:07:51.310-05:00,0.520499,-0.134726,0.119689,2025-03-13T21:07:51.311-05:00
55.000000,251.594471,0.662514,9.651496,44.939973,279.004471,358.729068,2.610816,3.000000,-93.177190,5.552682,2025-03-13T21:07:52.999-05:00,-0.248173,-0.979051,0.018196,2025-03-13T21:07:52.305-05:00,0.560692,-0.264587,0.132352,2025-03-13T21:07:52.306-05:00
56.000000,251.540827,0.676462,8.899101,44.940033,278.950827,359.721950,2.629941,3.000000,-93.177190,6.158361,2025-03-13T21:07:53.999-05:00,-0.203194,-0.978956,0.012271,2025-03-13T21:07:53.309-05:00,0.739578,-0.200028,0.128735,2025-03-13T21:07:53.311-05:00
57.000000,251.839077,0.668438,8.423449,44.940091,279.249077,358.079467,2.585545,3.000000,-93.177195,6.424010,2025-03-13T21:07:54.999-05:00,-0.192291,-0.965588,0.007540,2025-03-13T21:07:54.314-05:00,0.752414,-0.007019,0.153448,2025-03-13T21:07:54.305-05:00
58.000000,251.838362,0.659462,7.621501,44.940158,279.248362,0.454971,2.627525,3.000000,-93.177191,7.011233,2025-03-13T21:07:55.999-05:00,-0.195119,-0.983312,0.005859,2025-03-13T21:07:55.309-05:00,0.960506,-0.264163,0.181937,2025-03-13T21:07:55.310-05:00
59.000000,251.114608,0.665052,7.224726,44.940227,278.524608,359.026055,2.511294,3.000000,-93.177196,7.508187,2025-03-13T21:07:56.999-05:00,-0.199301,-0.975535,0.018586,2025-03-13T21:07:56.313-05:00,0.908779,-0.193311,0.192626,2025-03-13T21:07:56.305-05:00
60.000000,252.015732,0.805759,8.551763,44.940294,279.425732,358.754420,2.475670,3.000000,-93.177198,7.624914,2025-03-13T21:07:57.999-05:00,-0.202458,-0.976037,0.029085,2025-03-13T21:07:57.308-05:00,0.833634,-0.179342,0.219545,2025-03-13T21:07:57.309-05:00
61.000000,251.541354,0.733349,7.475997,44.940367,278.951354,7.859994,2.676677,3.000000,-93.177163,7.940080,2025-03-13T21:07:58.999-05:00,-0.205379,-0.970120,0.038841,2025-03-13T21:07:58.313-05:00,0.814550,-0.124363,0.259550,2025-03-13T21:07:58.314-05:00
62.000000,251.287138,0.663176,7.257617,44.940480,278.697137,0.085046,2.753108,3.000000,-93.177190,9.913997,2025-03-13T21:07:59.999-05:00,-0.201699,-0.985355,0.027351,2025-03-13T21:07:59.307-05:00,0.816622,-0.261830,0.194254,2025-03-13T21:07:59.309-05:00
63.000000,251.347985,0.657496,7.258974,44.940576,278.757985,359.193330,2.480280,3.000000,-93.177193,10.443650,2025-03-13T21:08:00.999-05:00,-0.222069,-0.977060,0.019878,2025-03-13T21:08:00.312-05:00,0.540122,-0.163052,0.091018,2025-03-13T21:08:00.313-05:00
64.000000,251.025397,0.661125,7.258390,44.940679,278.435397,359.715866,2.802962,3.000000,-93.177193,10.998155,2025-03-13T21:08:01.999-05:00,-0.249953,-0.967024,0.025105,2025-03-13T21:08:01.307-05:00,0.261368,-0.060933,-0.011117,2025-03-13T21:08:01.308-05:00
65.000000,251.074334,0.666287,7.258943,44.940781,278.484334,0.282568,2.503746,3.000000,-93.177190,11.180245,2025-03-13T21:08:02.999-05:00,-0.277810,-0.953102,0.025860,2025-03-13T21:08:02.311-05:00,-0.032529,0.073144,-0.077842,2025-03-13T21:08:02.313-05:00
66.000000,250.835271,0.665308,7.258907,44.940882,278.245271,359.559395,2.272880,3.000000,-93.177193,11.132258,2025-03-13T21:08:03.999-05:00,-0.303845,-0.952367,0.022282,2025-03-13T21:08:03.306-05:00,-0.263803,0.075298,-0.186834,2025-03-13T21:08:03.307-05:00
67.000000,250.393697,0.666767,7.257560,44.940983,277.803696,359.944425,2.504420,3.000000,-93.177191,11.086473,2025-03-13T21:08:04.999-05:00,-0.321718,-0.943858,0.022354,2025-03-13T21:08:04.311-05:00,-0.444878,0.163085,-0.139398,2025-03-13T21:08:04.312-05:00
68.000000,250.267172,0.694304,7.256185,44.941075,277.677172,0.428553,2.576578,3.000000,-93.177188,10.487078,2025-03-13T21:08:05.999-05:00,-0.390079,-0.929599,-0.009334,2025-03-13T21:08:05.305-05:00,-1.101978,0.301968,-0.362940,2025-03-13T21:08:05.307-05:00
69.000000,250.236082,0.658817,7.257300,44.941160,277.646082,359.356500,2.323464,3.000000,-93.177191,9.611926,2025-03-13T21:08:06.999-05:00,-0.418707,-0.930671,-0.015036,2025-03-13T21:08:06.310-05:00,-1.336424,0.274075,-0.449056,2025-03-13T21:08:06.311-05:00
