seconds_elapsed,location_altitude,location_speedAccuracy,location_bearingAccuracy,location_latitude,location_altitudeAboveMeanSeaLevel,location_bearing,location_horizontalAccuracy,location_verticalAccuracy,location_longitude,location_speed,location_local_time,accelerometerUncalibrated_z,accelerometerUncalibrated_y,accelerometerUncalibrated_x,accelerometerUncalibrated_local_time,accelerometer_z,accelerometer_y,accelerometer_x,accelerometer_local_time
0.000000,258.655452,-0.515000,2.246976,44.942186,286.065452,45.744141,112.109533,6.250000,-93.167066,0.525000,2025-03-13T21:17:41.188-05:00,-0.250120,-0.954088,-0.280526,2025-03-13T21:17:41.178-05:00,0.098346,0.110134,-2.556205,2025-03-13T21:17:41.180-05:00
1.000000,261.580933,1.080000,15.667766,44.941678,288.990932,248.203125,3.535534,3.000000,-93.167234,5.100000,2025-03-13T21:17:42.999-05:00,-0.240110,-0.931314,-0.296884,2025-03-13T21:17:42.163-05:00,0.357091,0.278869,-2.473111,2025-03-13T21:17:42.164-05:00
2.000000,258.792114,1.300000,17.834585,44.941696,286.202114,262.265625,3.535534,3.000000,-93.167269,4.690000,2025-03-13T21:17:43.999-05:00,-0.205228,-0.978609,-0.118718,2025-03-13T21:17:43.168-05:00,0.807034,-0.235201,-0.427413,2025-03-13T21:17:43.169-05:00
3.000000,258.547668,0.870000,8.032381,44.941706,285.957668,270.292664,3.535534,3.000000,-93.167366,4.690000,2025-03-13T21:17:44.999-05:00,-0.185945,-0.979053,-0.002116,2025-03-13T21:17:44.162-05:00,0.933314,-0.219163,0.728331,2025-03-13T21:17:44.164-05:00
4.000000,257.831238,0.830000,7.166032,44.941712,285.241238,270.292664,3.535534,3.000000,-93.167453,7.500000,2025-03-13T21:17:45.999-05:00,-0.194736,-0.986797,-0.038828,2025-03-13T21:17:45.167-05:00,0.771582,-0.281123,0.444899,2025-03-13T21:17:45.168-05:00
5.000000,258.076904,0.650000,4.576096,44.941716,285.486904,270.292664,3.535534,3.000000,-93.167567,9.180000,2025-03-13T21:17:46.999-05:00,-0.235127,-0.975196,-0.031366,2025-03-13T21:17:46.162-05:00,0.181575,-0.108973,0.465056,2025-03-13T21:17:46.163-05:00
6.000000,258.643799,1.750000,8.551837,44.941702,286.053799,270.292664,3.535534,3.000000,-93.167682,9.160000,2025-03-13T21:17:47.999-05:00,-0.243442,-0.962655,-0.030240,2025-03-13T21:17:47.166-05:00,0.032324,0.038058,0.427042,2025-03-13T21:17:47.168-05:00
7.000000,257.643677,1.620000,6.591023,44.941703,285.053677,270.292664,3.535534,3.000000,-93.167807,9.180000,2025-03-13T21:17:48.999-05:00,-0.280143,-0.946308,-0.042106,2025-03-13T21:17:48.171-05:00,-0.315051,0.188268,0.327493,2025-03-13T21:17:48.162-05:00
8.000000,257.280884,0.770000,4.845253,44.941703,284.690884,270.292664,3.535534,3.000000,-93.167938,10.320000,2025-03-13T21:17:49.999-05:00,-0.290576,-0.968032,-0.052900,2025-03-13T21:17:49.166-05:00,-0.492423,-0.003298,0.237200,2025-03-13T21:17:49.167-05:00
9.000000,256.600098,0.220000,1.496654,44.941720,284.010098,270.292664,3.535534,3.000000,-93.168057,10.320000,2025-03-13T21:17:50.999-05:00,-0.288227,-0.948315,-0.055291,2025-03-13T21:17:50.170-05:00,-0.445332,0.176383,0.270461,2025-03-13T21:17:50.162-05:00
10.000000,256.063782,0.800000,5.335022,44.941719,283.473782,270.234100,3.535534,3.000000,-93.168180,9.800000,2025-03-13T21:17:51.999-05:00,-0.284705,-0.958725,-0.062097,2025-03-13T21:17:51.165-05:00,-0.430955,0.083264,0.136452,2025-03-13T21:17:51.166-05:00
11.000000,255.431702,1.110000,7.255016,44.941704,282.841702,270.234100,3.535534,3.000000,-93.168278,9.460000,2025-03-13T21:17:52.999-05:00,-0.292828,-0.948681,-0.048354,2025-03-13T21:17:52.170-05:00,-0.459684,0.177118,0.203211,2025-03-13T21:17:52.171-05:00
12.000000,255.093018,1.710000,7.570478,44.941705,282.503017,270.234100,3.535534,3.000000,-93.168400,9.610000,2025-03-13T21:17:53.999-05:00,-0.294677,-0.959041,-0.045401,2025-03-13T21:17:53.165-05:00,-0.443949,0.073636,0.202999,2025-03-13T21:17:53.166-05:00
13.000000,255.093025,1.710000,14.418178,44.941705,282.503025,270.234100,4.748652,4.029364,-93.168522,9.610000,2025-03-13T21:17:54.999-05:00,-0.355814,-0.936797,-0.076673,2025-03-13T21:17:54.169-05:00,-1.036560,0.277351,-0.011284,2025-03-13T21:17:54.170-05:00
14.000000,255.234077,2.260000,19.055603,44.941705,282.644077,270.234100,4.748652,4.029364,-93.168636,9.610000,2025-03-13T21:17:55.999-05:00,-0.363572,-0.908583,-0.076637,2025-03-13T21:17:55.164-05:00,-1.067844,0.549830,-0.087872,2025-03-13T21:17:55.165-05:00
15.000000,254.836799,2.360000,21.392723,44.941706,282.246798,270.234100,8.083293,4.029364,-93.168705,9.130000,2025-03-13T21:17:56.999-05:00,-0.349794,-0.947630,-0.112359,2025-03-13T21:17:56.169-05:00,-0.911238,0.155100,-0.341948,2025-03-13T21:17:56.170-05:00
16.000000,255.073491,2.990000,31.920305,44.941706,282.483491,270.234100,4.748652,3.958486,-93.168783,7.590000,2025-03-13T21:17:57.999-05:00,-0.459991,-0.906596,-0.103482,2025-03-13T21:17:57.163-05:00,-1.890117,0.530405,-0.308563,2025-03-13T21:17:57.164-05:00
17.000000,255.179143,3.070000,31.891973,44.941706,282.589143,270.234100,4.748652,3.896504,-93.168904,7.800000,2025-03-13T21:17:58.999-05:00,-0.460481,-0.902618,-0.113251,2025-03-13T21:17:58.168-05:00,-1.777298,0.534375,-0.325216,2025-03-13T21:17:58.169-05:00
18.000000,255.338262,2.710000,28.152198,44.941706,282.748261,270.234100,4.748652,4.029364,-93.169003,7.800000,2025-03-13T21:17:59.999-05:00,-0.474469,-0.901782,-0.113529,2025-03-13T21:17:59.163-05:00,-1.702263,0.472179,-0.313972,2025-03-13T21:17:59.164-05:00
19.000000,255.549014,2.260000,35.252362,44.941720,282.959014,270.234100,4.748652,4.029364,-93.169045,6.250000,2025-03-13T21:18:00.999-05:00,-0.410510,-0.919172,-0.105509,2025-03-13T21:18:00.167-05:00,-1.063935,0.296157,-0.168545,2025-03-13T21:18:00.168-05:00
20.000000,254.842529,2.526757,180.000000,44.941719,282.252529,270.234100,4.748652,4.029364,-93.168988,0.000000,2025-03-13T21:18:01.999-05:00,-0.242401,-0.967142,-0.056128,2025-03-13T21:18:01.162-05:00,0.519818,-0.153016,0.289758,2025-03-13T21:18:01.163-05:00
21.000000,254.431091,1.010000,88.955164,44.941719,281.841091,270.234100,4.748652,4.029364,-93.169019,0.920000,2025-03-13T21:18:02.999-05:00,-0.142364,-0.997689,-0.030498,2025-03-13T21:18:02.167-05:00,1.400767,-0.415779,0.514811,2025-03-13T21:18:02.168-05:00
22.000000,254.389771,0.740000,32.587536,44.941720,281.799771,270.234100,4.748652,4.029364,-93.169049,1.840000,2025-03-13T21:18:03.999-05:00,-0.104317,-1.001410,-0.023587,2025-03-13T21:18:03.171-05:00,1.629014,-0.414888,0.544589,2025-03-13T21:18:03.163-05:00
23.000000,254.093141,0.920000,21.545142,44.941707,281.503140,270.234100,4.748652,4.029364,-93.169106,3.460000,2025-03-13T21:18:04.999-05:00,-0.130436,-0.996519,-0.012050,2025-03-13T21:18:04.166-05:00,1.430622,-0.370232,0.543544,2025-03-13T21:18:04.167-05:00
24.000000,253.761476,0.730000,17.095602,44.941707,281.171475,270.234100,4.748652,4.029364,-93.169163,3.460000,2025-03-13T21:18:05.999-05:00,-0.152475,-0.984358,-0.019140,2025-03-13T21:18:05.171-05:00,1.236143,-0.254838,0.431351,2025-03-13T21:18:05.162-05:00
25.000000,253.565920,1.180000,17.706220,44.941707,280.975920,270.125305,4.748652,4.029364,-93.169259,5.400000,2025-03-13T21:18:06.999-05:00,-0.185836,-0.988877,-0.001715,2025-03-13T21:18:06.165-05:00,1.075259,-0.342079,0.459997,2025-03-13T21:18:06.167-05:00
26.000000,253.375674,1.010000,13.178543,44.941707,280.785674,270.125305,4.748652,4.029364,-93.169354,6.210000,2025-03-13T21:18:07.999-05:00,-0.196830,-0.978186,-0.010499,2025-03-13T21:18:07.170-05:00,0.815569,-0.189114,0.341926,2025-03-13T21:18:07.171-05:00
27.000000,253.541693,0.820000,7.881772,44.941707,280.951692,270.125305,4.748652,4.029364,-93.169489,8.430000,2025-03-13T21:18:08.999-05:00,-0.212095,-0.978592,-0.024165,2025-03-13T21:18:08.165-05:00,0.554104,-0.161402,0.219498,2025-03-13T21:18:08.166-05:00
28.000000,253.636970,0.730000,7.258975,44.941723,281.046969,270.125305,4.748652,4.029364,-93.169601,9.180000,2025-03-13T21:18:09.999-05:00,-0.219832,-0.968568,-0.026269,2025-03-13T21:18:09.169-05:00,0.393260,-0.045780,0.204697,2025-03-13T21:18:09.171-05:00
29.000000,253.364753,0.600000,7.258975,44.941721,280.774753,270.133820,4.748652,4.029364,-93.169714,9.180000,2025-03-13T21:18:10.999-05:00,-0.250071,-0.962507,-0.033259,2025-03-13T21:18:10.164-05:00,0.073072,0.032246,0.089234,2025-03-13T21:18:10.165-05:00
30.000000,253.235847,0.590000,7.258975,44.941717,280.645847,270.133820,4.748652,4.029364,-93.169839,9.390000,2025-03-13T21:18:11.999-05:00,-0.266794,-0.968004,-0.062083,2025-03-13T21:18:11.169-05:00,-0.173573,-0.015568,-0.119665,2025-03-13T21:18:11.170-05:00
31.000000,253.187935,0.590000,7.258975,44.941715,280.597935,270.133820,4.748652,4.029364,-93.169974,10.060000,2025-03-13T21:18:12.999-05:00,-0.252667,-0.961241,-0.041603,2025-03-13T21:18:12.163-05:00,-0.022619,0.066355,-0.018754,2025-03-13T21:18:12.165-05:00
32.000000,253.096688,1.490000,11.906550,44.941718,280.506688,270.133820,4.748652,4.029364,-93.170104,10.140000,2025-03-13T21:18:13.999-05:00,-0.274879,-0.957978,-0.056324,2025-03-13T21:18:13.168-05:00,-0.298093,0.102799,-0.096472,2025-03-13T21:18:13.169-05:00
33.000000,255.654503,1.277366,9.870287,44.941712,283.064502,270.133820,2.718647,3.000000,-93.170245,10.484021,2025-03-13T21:18:14.999-05:00,-0.335086,-0.941328,-0.072810,2025-03-13T21:18:14.163-05:00,-0.843412,0.252709,-0.209723,2025-03-13T21:18:14.164-05:00
34.000000,255.724257,1.277816,10.225635,44.941712,283.134257,270.133820,3.106698,3.000000,-93.170377,10.124466,2025-03-13T21:18:15.999-05:00,-0.450432,-0.907341,-0.099262,2025-03-13T21:18:15.167-05:00,-1.875668,0.565324,-0.603933,2025-03-13T21:18:15.169-05:00
35.000000,255.475396,1.273974,11.656824,44.941713,282.885396,270.133820,2.553349,3.000000,-93.170480,8.852470,2025-03-13T21:18:16.999-05:00,-0.408368,-0.916734,-0.075829,2025-03-13T21:18:16.162-05:00,-1.402910,0.457844,-0.361677,2025-03-13T21:18:16.163-05:00
36.000000,256.075065,0.701533,8.174583,44.941718,283.485065,270.133820,2.341547,3.000000,-93.170547,6.889872,2025-03-13T21:18:17.999-05:00,-0.376719,-0.926096,-0.078075,2025-03-13T21:18:17.167-05:00,-1.058078,0.350219,-0.229098,2025-03-13T21:18:17.168-05:00
37.000000,255.511903,0.703789,10.773077,44.941715,282.921902,270.133820,2.294569,3.000000,-93.170602,5.291207,2025-03-13T21:18:18.999-05:00,-0.365682,-0.935827,-0.079204,2025-03-13T21:18:18.171-05:00,-0.844328,0.220723,-0.226110,2025-03-13T21:18:18.163-05:00
38.000000,255.377274,0.704373,13.783069,44.941718,282.787274,270.133820,2.266587,3.000000,-93.170648,4.127714,2025-03-13T21:18:19.999-05:00,-0.430280,-0.914163,-0.096164,2025-03-13T21:18:19.166-05:00,-1.302216,0.384518,-0.362170,2025-03-13T21:18:19.167-05:00
39.000000,255.142044,0.714355,21.440489,44.941717,282.552044,270.133820,2.222156,3.000000,-93.170677,2.651352,2025-03-13T21:18:20.999-05:00,-0.424022,-0.917059,-0.098522,2025-03-13T21:18:20.171-05:00,-1.152402,0.315784,-0.342452,2025-03-13T21:18:20.162-05:00
40.000000,255.254676,0.868573,62.258533,44.941713,282.664676,270.133820,2.567022,3.000000,-93.170685,1.126447,2025-03-13T21:18:21.999-05:00,-0.292443,-0.949183,-0.067662,2025-03-13T21:18:21.165-05:00,0.090832,0.017502,0.009926,2025-03-13T21:18:21.167-05:00
41.000000,255.478255,0.829154,49.225868,44.941714,282.888255,270.133820,2.718659,3.000000,-93.170699,1.047467,2025-03-13T21:18:22.999-05:00,-0.203732,-0.979607,-0.045291,2025-03-13T21:18:22.170-05:00,0.980762,-0.290887,0.256318,2025-03-13T21:18:22.171-05:00
42.000000,255.449421,0.779946,40.978333,44.941714,282.859421,270.133820,2.755918,3.000000,-93.170715,1.332448,2025-03-13T21:18:23.999-05:00,-0.145454,-0.996723,-0.024411,2025-03-13T21:18:23.165-05:00,1.542974,-0.450760,0.397356,2025-03-13T21:18:23.166-05:00
43.000000,255.102527,0.713170,22.269881,44.941716,282.512527,270.133820,2.909321,3.000000,-93.170755,2.467705,2025-03-13T21:18:24.999-05:00,-0.138622,-1.003723,-0.019308,2025-03-13T21:18:24.169-05:00,1.409027,-0.450960,0.351081,2025-03-13T21:18:24.171-05:00
44.000000,255.468385,0.684331,14.435332,44.941714,282.878385,268.584401,2.826656,3.000000,-93.170815,3.827085,2025-03-13T21:18:25.999-05:00,-0.143394,-0.978004,-0.008017,2025-03-13T21:18:25.164-05:00,1.246625,-0.158282,0.316482,2025-03-13T21:18:25.165-05:00
45.000000,255.339662,0.668849,11.036846,44.941714,282.749661,269.252753,2.778816,3.000000,-93.170883,4.899065,2025-03-13T21:18:26.999-05:00,-0.165886,-0.993552,0.006452,2025-03-13T21:18:26.169-05:00,1.096963,-0.326148,0.352469,2025-03-13T21:18:26.170-05:00
46.000000,256.083759,0.787269,11.553608,44.941711,283.493759,268.270199,2.718907,3.000000,-93.170956,5.471777,2025-03-13T21:18:27.999-05:00,-0.181424,-0.986697,-0.006324,2025-03-13T21:18:27.164-05:00,1.017116,-0.285781,0.289477,2025-03-13T21:18:27.165-05:00
47.000000,255.949906,0.704364,8.276179,44.941709,283.359905,267.720490,2.815424,3.000000,-93.171057,6.892136,2025-03-13T21:18:28.999-05:00,-0.201060,-0.972824,-0.046419,2025-03-13T21:18:28.168-05:00,0.700600,-0.123033,0.114975,2025-03-13T21:18:28.169-05:00
48.000000,255.666991,0.681288,7.419062,44.941708,283.076991,267.926802,2.735966,3.000000,-93.171154,7.438302,2025-03-13T21:18:29.999-05:00,-0.230840,-0.963792,-0.077032,2025-03-13T21:18:29.163-05:00,0.387554,-0.043677,0.016786,2025-03-13T21:18:29.164-05:00
49.000000,254.802130,0.704539,7.327189,44.941707,282.212130,268.731107,2.576777,3.000000,-93.171253,7.679142,2025-03-13T21:18:30.999-05:00,-0.195883,-0.984450,-0.087277,2025-03-13T21:18:30.168-05:00,0.568200,-0.196550,-0.082543,2025-03-13T21:18:30.169-05:00
50.000000,255.451587,0.696434,7.258454,44.941714,282.861587,272.838125,2.427900,3.000000,-93.171363,8.412063,2025-03-13T21:18:31.999-05:00,-0.220715,-0.969097,-0.054645,2025-03-13T21:18:31.162-05:00,0.292192,-0.031224,0.102886,2025-03-13T21:18:31.164-05:00
51.000000,255.062893,0.679979,7.253324,44.941711,282.472893,270.465888,2.292495,3.000000,-93.171479,8.890697,2025-03-13T21:18:32.999-05:00,-0.245662,-0.967826,-0.070160,2025-03-13T21:18:32.167-05:00,0.017241,-0.019575,0.033006,2025-03-13T21:18:32.168-05:00
52.000000,254.765206,0.690231,7.250897,44.941713,282.175206,271.072317,2.188118,3.000000,-93.171594,8.927873,2025-03-13T21:18:33.999-05:00,-0.250079,-0.958379,-0.084003,2025-03-13T21:18:33.162-05:00,-0.059136,0.085013,-0.083543,2025-03-13T21:18:33.163-05:00
53.000000,254.776851,0.830622,7.465341,44.941725,282.186851,270.114410,2.541517,3.000000,-93.171707,9.002819,2025-03-13T21:18:34.999-05:00,-0.228481,-0.964914,-0.080215,2025-03-13T21:18:34.166-05:00,0.173372,0.028513,-0.088960,2025-03-13T21:18:34.168-05:00
54.000000,254.972330,0.713941,7.258941,44.941714,282.382330,270.114410,2.349187,3.000000,-93.171819,8.889024,2025-03-13T21:18:35.999-05:00,-0.229237,-0.968979,-0.053929,2025-03-13T21:18:35.171-05:00,0.152488,-0.032332,0.120232,2025-03-13T21:18:35.162-05:00
55.000000,254.040024,0.817654,7.247262,44.941715,281.450024,270.114410,2.847840,3.000000,-93.171938,9.161957,2025-03-13T21:18:36.999-05:00,-0.223513,-0.971866,-0.059232,2025-03-13T21:18:36.166-05:00,0.210787,-0.050795,0.048833,2025-03-13T21:18:36.167-05:00
56.000000,254.105781,0.718068,7.255066,44.941718,281.515780,270.114410,2.648236,3.000000,-93.172079,10.119934,2025-03-13T21:18:37.999-05:00,-0.229606,-0.962573,-0.070708,2025-03-13T21:18:37.170-05:00,0.187124,0.039628,0.021071,2025-03-13T21:18:37.162-05:00
57.000000,254.179845,0.698064,7.257865,44.941716,281.589845,270.114410,2.634640,3.000000,-93.172219,10.729423,2025-03-13T21:18:38.999-05:00,-0.237206,-0.977502,-0.075862,2025-03-13T21:18:38.165-05:00,-0.017346,-0.090183,0.054141,2025-03-13T21:18:38.166-05:00
58.000000,254.095020,0.675138,7.258169,44.941714,281.505020,270.130157,2.352885,3.000000,-93.172357,10.950686,2025-03-13T21:18:39.999-05:00,-0.242151,-0.960257,-0.074420,2025-03-13T21:18:39.170-05:00,-0.031739,0.074591,0.033835,2025-03-13T21:18:39.171-05:00
59.000000,254.005117,0.676192,7.258476,44.941712,281.415117,270.130157,2.402377,3.000000,-93.172500,11.113738,2025-03-13T21:18:40.999-05:00,-0.249563,-0.956051,-0.083751,2025-03-13T21:18:40.164-05:00,-0.128047,0.118793,-0.045436,2025-03-13T21:18:40.166-05:00
60.000000,253.878478,0.699702,7.258049,44.941711,281.288478,270.130157,2.272470,3.000000,-93.172640,11.078049,2025-03-13T21:18:41.999-05:00,-0.252109,-0.964998,-0.116423,2025-03-13T21:18:41.169-05:00,-0.171418,0.021829,-0.221622,2025-03-13T21:18:41.170-05:00
61.000000,253.955023,0.704727,7.258937,44.941709,281.365023,270.130157,2.332365,3.000000,-93.172785,11.145400,2025-03-13T21:18:42.999-05:00,-0.263540,-0.964260,-0.096046,2025-03-13T21:18:42.164-05:00,-0.252500,0.040462,-0.168861,2025-03-13T21:18:42.165-05:00
62.000000,253.828384,0.700313,7.258562,44.941710,281.238384,270.130157,2.523244,3.000000,-93.172931,11.218691,2025-03-13T21:18:43.999-05:00,-0.275086,-0.957916,-0.095701,2025-03-13T21:18:43.168-05:00,-0.337745,0.096302,-0.195091,2025-03-13T21:18:43.170-05:00
63.000000,253.838919,0.687649,7.258937,44.941712,281.248919,270.130157,2.284818,3.000000,-93.173069,10.879862,2025-03-13T21:18:44.999-05:00,-0.292019,-0.944526,-0.089187,2025-03-13T21:18:44.163-05:00,-0.479755,0.219619,-0.150087,2025-03-13T21:18:44.164-05:00
64.000000,253.698577,0.675620,7.258188,44.941714,281.108577,270.130157,2.470559,3.000000,-93.173203,10.605624,2025-03-13T21:18:45.999-05:00,-0.296948,-0.956712,-0.077474,2025-03-13T21:18:45.168-05:00,-0.467021,0.090269,-0.059355,2025-03-13T21:18:45.169-05:00
65.000000,253.894095,0.761409,7.258623,44.941714,281.304095,270.130157,2.294601,3.000000,-93.173336,10.427082,2025-03-13T21:18:46.999-05:00,-0.284006,-0.969463,-0.105051,2025-03-13T21:18:46.163-05:00,-0.423625,-0.010126,-0.342185,2025-03-13T21:18:46.164-05:00
66.000000,253.302625,0.707150,7.256501,44.941713,280.712625,270.130157,2.246486,3.000000,-93.173458,10.017439,2025-03-13T21:18:47.999-05:00,-0.270271,-0.909784,-0.049478,2025-03-13T21:18:47.167-05:00,-0.055249,0.521924,-0.078196,2025-03-13T21:18:47.168-05:00
67.000000,253.521216,0.692519,7.258798,44.941716,280.931216,271.159210,2.573389,3.000000,-93.173586,9.909325,2025-03-13T21:18:48.999-05:00,-0.287363,-0.969557,-0.090381,2025-03-13T21:18:48.162-05:00,-0.129779,-0.097391,-0.266880,2025-03-13T21:18:48.163-05:00
68.000000,253.295592,0.674233,7.257763,44.941719,280.705592,271.159210,2.503009,3.000000,-93.173709,9.747614,2025-03-13T21:18:49.999-05:00,-0.346825,-0.933415,-0.060551,2025-03-13T21:18:49.167-05:00,-0.722255,0.271191,-0.147488,2025-03-13T21:18:49.168-05:00
69.000000,253.159672,0.673948,7.257950,44.941722,280.569672,269.529877,2.920415,3.000000,-93.173818,9.008987,2025-03-13T21:18:50.999-05:00,-0.384086,-0.937358,-0.053554,2025-03-13T21:18:50.171-05:00,-0.979582,0.200485,-0.135439,2025-03-13T21:18:50.163-05:00
70.000000,252.942346,0.696992,7.256231,44.941724,280.352346,268.270508,2.551944,3.000000,-93.173918,8.151778,2025-03-13T21:18:51.999-05:00,-0.375208,-0.924548,-0.056115,2025-03-13T21:18:51.166-05:00,-0.920952,0.336468,-0.177269,2025-03-13T21:18:51.167-05:00
71.000000,252.443207,0.708959,8.203372,44.941725,279.853207,268.270508,2.425116,3.000000,-93.173998,6.966416,2025-03-13T21:18:52.999-05:00,-0.421306,-0.916552,-0.063884,2025-03-13T21:18:52.171-05:00,-1.257116,0.371454,-0.079368,2025-03-13T21:18:52.162-05:00
72.000000,252.662497,0.687288,9.220847,44.941716,280.072497,261.262665,3.178792,3.000000,-93.174073,6.030212,2025-03-13T21:18:53.999-05:00,-0.419518,-0.916509,-0.070864,2025-03-13T21:18:53.165-05:00,-1.127645,0.337569,-0.152214,2025-03-13T21:18:53.167-05:00
73.000000,252.981248,0.879508,13.155902,44.941710,280.391248,261.262665,3.163965,3.000000,-93.174140,5.418298,2025-03-13T21:18:54.999-05:00,-0.417446,-0.913549,-0.069176,2025-03-13T21:18:54.170-05:00,-0.960342,0.321641,-0.192599,2025-03-13T21:18:54.171-05:00
74.000000,,,,,,,,,,,,-0.398337,-0.929930,-0.126965,2025-03-13T21:18:55.165-05:00,-0.703664,0.123829,-0.624506,2025-03-13T21:18:55.166-05:00
