seconds_elapsed,location_altitude,location_speedAccuracy,location_bearingAccuracy,location_latitude,location_altitudeAboveMeanSeaLevel,location_bearing,location_horizontalAccuracy,location_verticalAccuracy,location_longitude,location_speed,location_local_time,accelerometerUncalibrated_z,accelerometerUncalibrated_y,accelerometerUncalibrated_x,accelerometerUncalibrated_local_time,accelerometer_z,accelerometer_y,accelerometer_x,accelerometer_local_time
0.000000,249.676872,-0.206667,7.296861,44.940588,277.086872,45.973958,91.560879,4.666667,-93.177138,0.553333,2025-03-13T21:26:13.273-05:00,-0.289396,-0.964633,0.130069,2025-03-13T21:26:13.245-05:00,-0.505100,0.045993,0.695960,2025-03-13T21:26:13.256-05:00
1.000000,251.636597,1.040000,12.206565,44.940080,279.046597,98.437500,3.535534,3.000000,-93.176963,5.520000,2025-03-13T21:26:14.999-05:00,-0.184819,-0.974704,0.082264,2025-03-13T21:26:14.230-05:00,0.440824,-0.034748,0.178781,2025-03-13T21:26:14.231-05:00
2.000000,251.563538,0.960000,8.082610,44.940090,278.973537,90.000000,3.535534,3.000000,-93.176903,5.520000,2025-03-13T21:26:15.999-05:00,-0.142318,-0.987925,0.050599,2025-03-13T21:26:15.234-05:00,0.804568,-0.156870,-0.187071,2025-03-13T21:26:15.235-05:00
3.000000,251.639343,0.050000,0.416805,44.940091,279.049343,90.305832,3.535534,3.000000,-93.176807,6.350000,2025-03-13T21:26:16.999-05:00,-0.176800,-0.995654,0.052371,2025-03-13T21:26:16.229-05:00,0.424694,-0.225765,-0.199775,2025-03-13T21:26:16.230-05:00
4.000000,251.923401,0.050000,0.381846,44.940092,279.333401,90.305832,3.535534,3.000000,-93.176704,8.570000,2025-03-13T21:26:17.999-05:00,-0.185430,-0.973443,0.043241,2025-03-13T21:26:17.234-05:00,0.310737,0.000458,-0.240246,2025-03-13T21:26:17.235-05:00
5.000000,251.947754,0.050000,0.363874,44.940092,279.357754,90.000000,3.535534,3.000000,-93.176590,9.220000,2025-03-13T21:26:18.999-05:00,-0.193835,-0.988942,0.022767,2025-03-13T21:26:18.228-05:00,0.192127,-0.138558,-0.453808,2025-03-13T21:26:18.230-05:00
6.000000,251.415344,0.050000,0.347099,44.940093,278.825344,90.000000,3.535534,3.000000,-93.176479,9.220000,2025-03-13T21:26:19.999-05:00,-0.216688,-0.974726,0.001438,2025-03-13T21:26:19.233-05:00,-0.070255,0.018311,-0.526528,2025-03-13T21:26:19.234-05:00
7.000000,251.302734,0.050000,0.342553,44.940096,278.712734,90.000000,3.535534,3.000000,-93.176359,9.450000,2025-03-13T21:26:20.999-05:00,-0.226934,-0.966119,0.033432,2025-03-13T21:26:20.228-05:00,-0.171660,0.093356,-0.236410,2025-03-13T21:26:20.229-05:00
8.000000,251.370117,0.200000,1.334791,44.940096,278.780117,90.000000,3.535534,3.000000,-93.176233,9.970000,2025-03-13T21:26:21.999-05:00,-0.215082,-0.973140,0.003201,2025-03-13T21:26:21.232-05:00,-0.068087,0.021992,-0.474869,2025-03-13T21:26:21.234-05:00
9.000000,251.247925,0.110000,0.703695,44.940097,278.657925,90.211685,3.535534,3.000000,-93.176104,10.270000,2025-03-13T21:26:22.999-05:00,-0.230400,-0.976248,-0.011248,2025-03-13T21:26:22.237-05:00,-0.167304,0.011971,-0.601914,2025-03-13T21:26:22.228-05:00
10.000000,251.563416,0.060000,0.386859,44.940094,278.973415,90.211685,3.535534,3.000000,-93.175975,10.250000,2025-03-13T21:26:23.999-05:00,-0.245737,-0.964604,-0.014721,2025-03-13T21:26:23.232-05:00,-0.343440,0.104909,-0.559845,2025-03-13T21:26:23.233-05:00
11.000000,251.479248,1.880000,8.033441,44.940080,278.889248,90.211685,3.535534,3.000000,-93.175847,10.250000,2025-03-13T21:26:24.999-05:00,-0.235921,-0.965989,0.004821,2025-03-13T21:26:24.236-05:00,-0.178107,0.103632,-0.320739,2025-03-13T21:26:24.228-05:00
12.000000,252.292236,0.810000,5.002112,44.940094,279.702236,90.211685,3.535534,3.000000,-93.175710,10.510000,2025-03-13T21:26:25.999-05:00,-0.227425,-0.984773,0.014108,2025-03-13T21:26:25.231-05:00,-0.095467,-0.092787,-0.276956,2025-03-13T21:26:25.232-05:00
13.000000,252.292245,0.810000,7.258975,44.940093,279.702245,90.211685,4.748652,4.029364,-93.175576,10.510000,2025-03-13T21:26:26.999-05:00,-0.231079,-0.952201,-0.006747,2025-03-13T21:26:26.236-05:00,-0.132319,0.230264,-0.363780,2025-03-13T21:26:26.237-05:00
14.000000,252.609506,0.308016,7.258975,44.940095,280.019506,90.211685,4.748652,4.029364,-93.175440,10.720000,2025-03-13T21:26:27.999-05:00,-0.245478,-0.977461,0.025495,2025-03-13T21:26:27.230-05:00,-0.259483,-0.027308,-0.115676,2025-03-13T21:26:27.232-05:00
15.000000,253.140206,1.610000,12.412544,44.940082,280.550206,90.211685,4.748652,4.029364,-93.175317,10.510000,2025-03-13T21:26:28.999-05:00,-0.251701,-0.959922,-0.008291,2025-03-13T21:26:28.235-05:00,-0.306302,0.142659,-0.381783,2025-03-13T21:26:28.236-05:00
16.000000,253.945077,1.610000,12.388969,44.940083,281.355077,90.211685,4.748652,4.029364,-93.175181,10.530000,2025-03-13T21:26:29.999-05:00,-0.254603,-0.959564,0.013640,2025-03-13T21:26:29.230-05:00,-0.268020,0.135000,-0.185677,2025-03-13T21:26:29.231-05:00
17.000000,253.887277,2.400000,18.468028,44.940078,281.297277,90.292648,4.748652,4.029364,-93.175038,10.530000,2025-03-13T21:26:30.999-05:00,-0.246128,-0.971381,0.008078,2025-03-13T21:26:30.234-05:00,-0.163717,0.017003,-0.246870,2025-03-13T21:26:30.236-05:00
18.000000,254.546396,0.780000,7.258975,44.940089,281.956395,90.292648,4.748652,4.029364,-93.174903,10.580000,2025-03-13T21:26:31.999-05:00,-0.245223,-0.961634,0.029414,2025-03-13T21:26:31.229-05:00,-0.157559,0.105128,-0.090299,2025-03-13T21:26:31.230-05:00
19.000000,254.764047,0.308017,7.258975,44.940090,282.174047,90.292648,4.748652,4.029364,-93.174761,10.660000,2025-03-13T21:26:32.999-05:00,-0.252402,-0.971343,-0.006596,2025-03-13T21:26:32.234-05:00,-0.197426,0.010148,-0.351325,2025-03-13T21:26:32.235-05:00
20.000000,254.628305,0.308016,7.258975,44.940091,282.038305,90.142532,4.748652,4.029364,-93.174627,10.660000,2025-03-13T21:26:33.999-05:00,-0.234902,-0.957381,-0.004504,2025-03-13T21:26:33.228-05:00,-0.043348,0.145324,-0.259945,2025-03-13T21:26:33.230-05:00
21.000000,254.748239,0.308016,7.258975,44.940090,282.158239,90.142532,4.748652,4.029364,-93.174492,10.660000,2025-03-13T21:26:34.999-05:00,-0.245789,-0.977518,0.024061,2025-03-13T21:26:34.233-05:00,-0.085267,-0.060792,-0.028680,2025-03-13T21:26:34.234-05:00
22.000000,254.921274,0.308016,7.258975,44.940089,282.331274,90.142532,4.748652,4.029364,-93.174353,10.710000,2025-03-13T21:26:35.999-05:00,-0.211610,-0.969344,0.018846,2025-03-13T21:26:35.228-05:00,0.243468,0.021790,-0.064238,2025-03-13T21:26:35.229-05:00
23.000000,254.920176,0.308016,7.258975,44.940089,282.330176,90.142532,4.748652,4.029364,-93.174207,11.080000,2025-03-13T21:26:36.999-05:00,-0.230662,-0.961358,0.013129,2025-03-13T21:26:36.233-05:00,0.157858,0.058480,-0.063697,2025-03-13T21:26:36.234-05:00
24.000000,254.799815,0.308016,7.258975,44.940092,282.209815,90.000000,4.748652,4.029364,-93.174064,11.430000,2025-03-13T21:26:37.999-05:00,-0.221780,-0.952883,0.010091,2025-03-13T21:26:37.237-05:00,0.316507,0.149006,-0.139438,2025-03-13T21:26:37.228-05:00
25.000000,254.959605,0.308017,7.258975,44.940090,282.369605,90.000000,4.748652,4.029364,-93.173919,11.430000,2025-03-13T21:26:38.999-05:00,-0.265409,-0.967625,0.004183,2025-03-13T21:26:38.232-05:00,-0.063973,-0.030974,-0.126074,2025-03-13T21:26:38.233-05:00
26.000000,254.656566,0.370000,7.258975,44.940090,282.066566,90.000000,4.748652,4.029364,-93.173763,11.820000,2025-03-13T21:26:39.999-05:00,-0.264741,-0.966587,0.001313,2025-03-13T21:26:39.237-05:00,-0.070311,0.010103,-0.095808,2025-03-13T21:26:39.228-05:00
27.000000,254.646679,1.170000,7.860970,44.940087,282.056679,90.000000,4.748652,4.029364,-93.173607,12.060000,2025-03-13T21:26:40.999-05:00,-0.256603,-0.959526,0.014346,2025-03-13T21:26:40.231-05:00,0.042965,0.055768,-0.041513,2025-03-13T21:26:40.232-05:00
28.000000,254.898022,0.580000,7.258975,44.940091,282.308022,90.000000,4.748652,4.029364,-93.173458,12.100000,2025-03-13T21:26:41.999-05:00,-0.268860,-0.958840,-0.003688,2025-03-13T21:26:41.236-05:00,-0.075939,0.060422,-0.213819,2025-03-13T21:26:41.237-05:00
29.000000,255.179943,0.308016,7.258975,44.940076,282.589943,90.000000,4.748652,4.029364,-93.173300,12.260000,2025-03-13T21:26:42.999-05:00,-0.259751,-0.964574,-0.002581,2025-03-13T21:26:42.231-05:00,-0.001286,0.008818,-0.180048,2025-03-13T21:26:42.232-05:00
30.000000,255.333996,0.308017,7.258975,44.940090,282.743996,90.000000,4.748652,4.029364,-93.173145,12.260000,2025-03-13T21:26:43.999-05:00,-0.245467,-0.967429,0.000378,2025-03-13T21:26:43.235-05:00,0.132035,-0.017404,-0.064639,2025-03-13T21:26:43.237-05:00
31.000000,255.900098,0.740000,7.258975,44.940076,283.310097,90.000000,4.748652,4.029364,-93.172986,12.390000,2025-03-13T21:26:44.999-05:00,-0.273202,-0.955816,0.017807,2025-03-13T21:26:44.230-05:00,-0.119818,0.089781,0.064181,2025-03-13T21:26:44.231-05:00
32.000000,255.993054,2.030000,13.138002,44.940076,283.403054,90.000000,4.748652,4.029364,-93.172829,12.520000,2025-03-13T21:26:45.999-05:00,-0.241573,-0.973925,0.005539,2025-03-13T21:26:45.235-05:00,0.167749,-0.067980,-0.074971,2025-03-13T21:26:45.236-05:00
33.000000,256.822401,1.267172,8.054231,44.940076,284.232401,90.098969,2.000000,3.000000,-93.172650,12.747758,2025-03-13T21:26:46.999-05:00,-0.293679,-0.947620,0.002084,2025-03-13T21:26:46.229-05:00,-0.343095,0.169113,-0.106609,2025-03-13T21:26:46.231-05:00
34.000000,257.008280,1.271196,8.037039,44.940089,284.418280,90.098969,2.000000,3.000000,-93.172483,12.815722,2025-03-13T21:26:47.999-05:00,-0.273490,-0.951904,-0.003102,2025-03-13T21:26:47.234-05:00,-0.121333,0.142862,-0.105767,2025-03-13T21:26:47.235-05:00
35.000000,257.178898,1.267973,8.115721,44.940085,284.588898,90.098969,2.302252,3.000000,-93.172321,12.659340,2025-03-13T21:26:48.999-05:00,-0.252874,-0.968095,-0.017276,2025-03-13T21:26:48.229-05:00,0.027473,-0.020282,-0.239330,2025-03-13T21:26:48.230-05:00
36.000000,257.262673,0.667252,7.258620,44.940080,284.672673,90.098969,2.154317,3.000000,-93.172168,12.439583,2025-03-13T21:26:49.999-05:00,-0.271047,-0.953314,-0.002093,2025-03-13T21:26:49.233-05:00,-0.095248,0.114045,-0.130385,2025-03-13T21:26:49.235-05:00
37.000000,257.264466,0.642696,7.258909,44.940082,284.674466,90.147057,2.079076,3.000000,-93.172002,12.811513,2025-03-13T21:26:50.999-05:00,-0.273878,-0.969600,-0.003462,2025-03-13T21:26:50.228-05:00,-0.133311,-0.040446,-0.134266,2025-03-13T21:26:50.229-05:00
38.000000,257.350486,0.645365,7.258929,44.940080,284.760486,90.147057,2.072955,3.000000,-93.171846,12.616933,2025-03-13T21:26:51.999-05:00,-0.262014,-0.954984,0.004925,2025-03-13T21:26:51.233-05:00,-0.014660,0.104383,-0.044587,2025-03-13T21:26:51.234-05:00
39.000000,257.330205,0.641434,7.258966,44.940077,284.740205,90.147057,2.127981,3.000000,-93.171688,12.562757,2025-03-13T21:26:52.999-05:00,-0.284299,-0.963389,0.020609,2025-03-13T21:26:52.237-05:00,-0.186887,0.004044,0.041765,2025-03-13T21:26:52.229-05:00
40.000000,257.193561,0.641572,7.258822,44.940079,284.603561,90.147057,2.197934,3.000000,-93.171529,12.603614,2025-03-13T21:26:53.999-05:00,-0.275813,-0.946492,0.003895,2025-03-13T21:26:53.232-05:00,-0.086311,0.189186,-0.035202,2025-03-13T21:26:53.233-05:00
41.000000,257.264436,0.643015,7.258974,44.940079,284.674436,90.141258,2.474641,3.000000,-93.171372,12.458408,2025-03-13T21:26:54.999-05:00,-0.277561,-0.977972,0.013974,2025-03-13T21:26:54.237-05:00,-0.221653,-0.126667,-0.052388,2025-03-13T21:26:54.228-05:00
42.000000,257.563499,0.766399,7.258394,44.940087,284.973499,90.141258,2.520359,3.000000,-93.171214,12.413727,2025-03-13T21:26:55.999-05:00,-0.287679,-0.955123,-0.002269,2025-03-13T21:26:55.231-05:00,-0.286995,0.099493,-0.116940,2025-03-13T21:26:55.233-05:00
43.000000,258.502092,0.651161,7.253351,44.940087,285.912091,90.141258,2.305273,3.000000,-93.171070,11.895898,2025-03-13T21:26:56.999-05:00,-0.255347,-0.961012,-0.013379,2025-03-13T21:26:56.236-05:00,0.019822,0.050633,-0.177442,2025-03-13T21:26:56.237-05:00
44.000000,258.076020,0.655598,7.258934,44.940073,285.486019,90.141258,2.253072,3.000000,-93.170927,11.477858,2025-03-13T21:26:57.999-05:00,-0.270138,-0.956586,-0.015089,2025-03-13T21:26:57.231-05:00,-0.132686,0.100878,-0.145476,2025-03-13T21:26:57.232-05:00
45.000000,257.792160,0.648703,7.258960,44.940079,285.202159,90.141258,2.145086,3.000000,-93.170770,11.887993,2025-03-13T21:26:58.999-05:00,-0.293137,-0.959925,0.002613,2025-03-13T21:26:58.235-05:00,-0.305935,0.049820,0.004005,2025-03-13T21:26:58.237-05:00
46.000000,257.906951,0.648504,7.258971,44.940079,285.316951,90.141258,2.608484,3.000000,-93.170627,11.541555,2025-03-13T21:26:59.999-05:00,-0.273686,-0.952944,-0.002886,2025-03-13T21:26:59.230-05:00,-0.109770,0.114012,-0.039530,2025-03-13T21:26:59.231-05:00
47.000000,258.243938,0.646785,7.258004,44.940080,285.653938,90.141258,2.428482,3.000000,-93.170489,11.127762,2025-03-13T21:27:00.999-05:00,-0.257393,-0.971323,-0.009828,2025-03-13T21:27:00.235-05:00,0.040556,-0.057468,-0.064450,2025-03-13T21:27:00.236-05:00
48.000000,258.204559,0.648434,7.258428,44.940084,285.614559,90.141258,2.233070,3.000000,-93.170349,11.079662,2025-03-13T21:27:01.999-05:00,-0.252053,-0.959893,0.000602,2025-03-13T21:27:01.230-05:00,0.111839,0.046398,0.031166,2025-03-13T21:27:01.231-05:00
49.000000,258.567284,0.646807,7.258026,44.940082,285.977284,90.339111,2.126039,3.000000,-93.170204,11.221717,2025-03-13T21:27:02.999-05:00,-0.253465,-0.962487,-0.003125,2025-03-13T21:27:02.234-05:00,0.104417,0.020703,-0.022580,2025-03-13T21:27:02.235-05:00
50.000000,258.493540,0.648020,7.258555,44.940081,285.903540,90.339111,2.403593,3.000000,-93.170065,11.145507,2025-03-13T21:27:03.999-05:00,-0.269529,-0.967934,-0.000736,2025-03-13T21:27:03.229-05:00,-0.050231,-0.037038,-0.037970,2025-03-13T21:27:03.230-05:00
51.000000,258.844591,0.648830,7.257114,44.940081,286.254591,90.339111,2.262667,3.000000,-93.169927,11.036600,2025-03-13T21:27:04.999-05:00,-0.249730,-0.967530,0.003463,2025-03-13T21:27:04.234-05:00,0.155341,-0.037597,-0.039955,2025-03-13T21:27:04.235-05:00
52.000000,258.731557,0.648307,7.258801,44.940082,286.141556,90.187950,2.260507,3.000000,-93.169786,11.067710,2025-03-13T21:27:05.999-05:00,-0.244832,-0.959823,0.005738,2025-03-13T21:27:05.228-05:00,0.191521,0.056075,-0.024656,2025-03-13T21:27:05.230-05:00
53.000000,258.811935,0.647381,7.258750,44.940083,286.221935,90.187950,2.523917,3.000000,-93.169645,11.052420,2025-03-13T21:27:06.999-05:00,-0.292520,-0.957681,0.007247,2025-03-13T21:27:06.233-05:00,-0.259108,0.053808,-0.022008,2025-03-13T21:27:06.234-05:00
54.000000,258.737989,0.650519,7.258920,44.940083,286.147989,90.187950,2.731712,3.000000,-93.169507,10.944010,2025-03-13T21:27:07.999-05:00,-0.291292,-0.954056,-0.008600,2025-03-13T21:27:07.228-05:00,-0.257086,0.098850,-0.087833,2025-03-13T21:27:07.229-05:00
55.000000,259.250518,0.649442,7.254609,44.940081,286.660518,90.375916,2.404735,3.000000,-93.169378,10.411597,2025-03-13T21:27:08.999-05:00,-0.266766,-0.973940,-0.008498,2025-03-13T21:27:08.232-05:00,-0.068141,-0.079598,-0.100169,2025-03-13T21:27:08.234-05:00
56.000000,259.522509,0.653330,7.252613,44.940082,286.932509,90.460701,2.227826,3.000000,-93.169249,10.225858,2025-03-13T21:27:09.999-05:00,-0.229734,-0.966422,0.004877,2025-03-13T21:27:09.237-05:00,0.238851,-0.003157,0.057692,2025-03-13T21:27:09.228-05:00
57.000000,258.699154,0.645534,7.255728,44.940079,286.109154,90.460701,2.128381,3.000000,-93.169114,10.554621,2025-03-13T21:27:10.999-05:00,-0.227450,-0.969742,0.012678,2025-03-13T21:27:10.232-05:00,0.264382,-0.049928,0.110913,2025-03-13T21:27:10.233-05:00
58.000000,259.300805,0.648300,7.255525,44.940077,286.710805,90.460701,2.304892,3.000000,-93.168985,10.375132,2025-03-13T21:27:11.999-05:00,-0.238889,-0.977072,-0.021007,2025-03-13T21:27:11.236-05:00,0.163957,-0.076287,-0.177538,2025-03-13T21:27:11.228-05:00
59.000000,259.472927,0.651868,7.254277,44.940080,286.882926,90.150787,2.170592,3.000000,-93.168853,10.341103,2025-03-13T21:27:12.999-05:00,-0.226732,-0.967588,0.003288,2025-03-13T21:27:12.231-05:00,0.217485,0.006003,0.032850,2025-03-13T21:27:12.232-05:00
60.000000,259.958537,0.652044,7.252885,44.940078,287.368537,90.150787,2.094951,3.000000,-93.168715,10.575285,2025-03-13T21:27:13.999-05:00,-0.233452,-0.968379,0.010209,2025-03-13T21:27:13.236-05:00,0.186913,-0.004567,0.077665,2025-03-13T21:27:13.237-05:00
61.000000,260.717816,0.774417,7.247163,44.940076,288.127815,90.150787,2.053030,3.000000,-93.168581,10.584747,2025-03-13T21:27:14.999-05:00,-0.237503,-0.969677,0.016197,2025-03-13T21:27:14.230-05:00,0.149671,-0.021155,0.111978,2025-03-13T21:27:14.232-05:00
62.000000,260.314043,0.996105,7.784001,44.940069,287.724042,90.150787,2.029836,3.000000,-93.168453,10.369625,2025-03-13T21:27:15.999-05:00,-0.243404,-0.971383,0.007791,2025-03-13T21:27:15.235-05:00,0.082489,-0.034779,0.009215,2025-03-13T21:27:15.236-05:00
63.000000,260.038760,0.666266,7.258745,44.940061,287.448760,90.143547,2.315760,3.000000,-93.168300,11.061079,2025-03-13T21:27:16.999-05:00,-0.294488,-0.954204,-0.002423,2025-03-13T21:27:16.230-05:00,-0.408528,0.128517,-0.067717,2025-03-13T21:27:16.231-05:00
64.000000,261.715583,0.660596,7.235640,44.940075,289.125583,90.143547,2.176147,3.000000,-93.168178,10.208744,2025-03-13T21:27:17.999-05:00,-0.291836,-0.952558,-0.012695,2025-03-13T21:27:17.234-05:00,-0.404589,0.151161,-0.141746,2025-03-13T21:27:17.236-05:00
65.000000,261.811270,0.653021,7.250415,44.940077,289.221270,90.143547,2.099924,3.000000,-93.168054,9.827575,2025-03-13T21:27:18.999-05:00,-0.313288,-0.948885,-0.019605,2025-03-13T21:27:18.229-05:00,-0.567341,0.177112,-0.205182,2025-03-13T21:27:18.230-05:00
66.000000,261.738700,0.657294,7.257313,44.940074,289.148700,90.143547,2.058316,3.000000,-93.167943,9.115441,2025-03-13T21:27:19.999-05:00,-0.309530,-0.947629,-0.010306,2025-03-13T21:27:19.234-05:00,-0.500057,0.179423,-0.106278,2025-03-13T21:27:19.235-05:00
67.000000,261.854494,0.652560,7.257218,44.940078,289.264494,89.802124,2.138200,3.000000,-93.167842,8.409573,2025-03-13T21:27:20.999-05:00,-0.297250,-0.954165,0.017333,2025-03-13T21:27:20.228-05:00,-0.373970,0.115051,0.191708,2025-03-13T21:27:20.230-05:00
68.000000,261.902710,0.656701,7.257554,44.940082,289.312710,89.802124,2.092893,3.000000,-93.167745,7.884646,2025-03-13T21:27:21.999-05:00,-0.294223,-0.952945,0.013347,2025-03-13T21:27:21.233-05:00,-0.314389,0.118399,0.172616,2025-03-13T21:27:21.234-05:00
69.000000,262.352935,0.653660,7.251381,44.940065,289.762935,89.802124,2.179673,3.000000,-93.167654,7.460419,2025-03-13T21:27:22.999-05:00,-0.283561,-0.956648,-0.015824,2025-03-13T21:27:22.228-05:00,-0.188904,0.075895,-0.139979,2025-03-13T21:27:22.229-05:00
70.000000,262.502264,0.660993,7.522362,44.940066,289.912264,89.802124,2.126353,3.000000,-93.167564,7.106157,2025-03-13T21:27:23.999-05:00,-0.279622,-0.956693,-0.037346,2025-03-13T21:27:23.232-05:00,-0.097806,0.057031,-0.337888,2025-03-13T21:27:23.234-05:00
71.000000,262.842944,0.648290,7.987219,44.940066,290.252944,89.802124,2.089813,3.000000,-93.167483,6.564478,2025-03-13T21:27:24.999-05:00,-0.303262,-0.948658,-0.030903,2025-03-13T21:27:24.237-05:00,-0.267207,0.126444,-0.270452,2025-03-13T21:27:24.228-05:00
72.000000,262.916550,0.654301,8.867625,44.940082,290.326549,89.613396,2.282146,3.000000,-93.167410,5.978664,2025-03-13T21:27:25.999-05:00,-0.348072,-0.936943,-0.051738,2025-03-13T21:27:25.232-05:00,-0.675914,0.232544,-0.350709,2025-03-13T21:27:25.233-05:00
73.000000,262.956924,0.651108,10.663493,44.940080,290.366924,89.613396,2.283147,3.000000,-93.167351,4.947630,2025-03-13T21:27:26.999-05:00,-0.359183,-0.934023,-0.058335,2025-03-13T21:27:26.237-05:00,-0.771891,0.245346,-0.323097,2025-03-13T21:27:26.228-05:00
74.000000,263.022409,0.653733,14.159581,44.940078,290.432409,89.613396,2.376581,3.000000,-93.167309,3.741190,2025-03-13T21:27:27.999-05:00,-0.385182,-0.927716,-0.063257,2025-03-13T21:27:27.231-05:00,-0.962295,0.291932,-0.333424,2025-03-13T21:27:27.232-05:00
75.000000,,,,,,,,,,,,-0.374947,-0.932641,-0.057301,2025-03-13T21:27:28.236-05:00,-0.813486,0.230321,-0.269660,2025-03-13T21:27:28.237-05:00
