seconds_elapsed,location_altitude,location_speedAccuracy,location_bearingAccuracy,location_latitude,location_altitudeAboveMeanSeaLevel,location_bearing,location_horizontalAccuracy,location_verticalAccuracy,location_longitude,location_speed,location_local_time,accelerometerUncalibrated_z,accelerometerUncalibrated_y,accelerometerUncalibrated_x,accelerometerUncalibrated_local_time,accelerometer_z,accelerometer_y,accelerometer_x,accelerometer_local_time
0.000000,262.095023,-0.520000,2.292515,44.941503,289.505022,51.457031,124.662074,6.250000,-93.169192,0.480000,2025-03-13T21:28:49.749-05:00,-0.335889,-0.946851,0.113299,2025-03-13T21:28:49.737-05:00,-0.664098,0.140898,0.786688,2025-03-13T21:28:49.743-05:00
1.000000,259.259216,1.170000,15.364162,44.941285,286.669216,208.828125,14.000000,16.000000,-93.169620,4.920000,2025-03-13T21:28:50.999-05:00,-0.291180,-0.959897,0.058975,2025-03-13T21:28:50.731-05:00,-0.364008,0.066431,0.192597,2025-03-13T21:28:50.728-05:00
2.000000,255.632629,1.060000,13.073898,44.941322,283.042629,180.705307,3.535534,3.000000,-93.169600,4.920000,2025-03-13T21:28:51.999-05:00,-0.244402,-0.952920,0.002420,2025-03-13T21:28:51.726-05:00,-0.046545,0.180651,-0.276452,2025-03-13T21:28:51.732-05:00
3.000000,255.382385,1.080000,12.621012,44.941277,282.792385,180.705307,3.535534,3.000000,-93.169587,5.240000,2025-03-13T21:28:52.999-05:00,-0.195240,-0.994306,0.019783,2025-03-13T21:28:52.731-05:00,0.528203,-0.264782,-0.268028,2025-03-13T21:28:52.727-05:00
4.000000,254.954468,1.030000,11.259836,44.941223,282.364468,182.630707,3.535534,3.000000,-93.169581,5.530000,2025-03-13T21:28:53.999-05:00,-0.175024,-0.988364,0.036010,2025-03-13T21:28:53.726-05:00,0.571643,-0.198231,-0.323985,2025-03-13T21:28:53.732-05:00
5.000000,254.057129,0.540000,4.849106,44.941167,281.467129,182.630707,3.535534,3.000000,-93.169580,7.320000,2025-03-13T21:28:54.999-05:00,-0.200812,-0.981152,0.009845,2025-03-13T21:28:54.730-05:00,0.349272,-0.105095,-0.568016,2025-03-13T21:28:54.726-05:00
6.000000,253.856506,1.520000,13.512225,44.941106,281.266506,179.642822,3.535534,3.000000,-93.169582,7.320000,2025-03-13T21:28:56.000-05:00,-0.204458,-0.975858,0.025358,2025-03-13T21:28:55.725-05:00,0.264195,-0.064812,-0.480298,2025-03-13T21:28:55.731-05:00
7.000000,253.645508,1.610000,8.254856,44.941029,281.055508,179.642822,3.535534,3.000000,-93.169582,7.320000,2025-03-13T21:28:57.000-05:00,-0.252738,-0.961697,0.020650,2025-03-13T21:28:56.730-05:00,-0.218046,0.076828,-0.539486,2025-03-13T21:28:56.726-05:00
8.000000,253.775940,1.900000,14.555147,44.940954,281.185940,179.642822,3.535534,3.000000,-93.169590,8.450000,2025-03-13T21:28:58.000-05:00,-0.265239,-0.962170,0.021607,2025-03-13T21:28:57.724-05:00,-0.264304,0.073285,-0.472012,2025-03-13T21:28:57.730-05:00
9.000000,254.518799,1.410000,7.239525,44.940875,281.928799,179.642822,3.535534,3.000000,-93.169584,8.800000,2025-03-13T21:28:59.000-05:00,-0.272492,-0.960779,0.005703,2025-03-13T21:28:58.729-05:00,-0.345740,0.067957,-0.586412,2025-03-13T21:28:58.725-05:00
10.000000,254.447449,0.630000,4.937724,44.940800,281.857449,180.187592,3.535534,3.000000,-93.169583,8.800000,2025-03-13T21:29:00.000-05:00,-0.296477,-0.953741,0.006744,2025-03-13T21:28:59.724-05:00,-0.637960,0.181041,-0.511991,2025-03-13T21:28:59.730-05:00
11.000000,254.084473,1.500000,6.487850,44.940704,281.494473,180.187592,3.535534,3.000000,-93.169583,8.800000,2025-03-13T21:29:01.000-05:00,-0.284911,-0.948808,0.008742,2025-03-13T21:29:00.728-05:00,-0.415355,0.195547,-0.411777,2025-03-13T21:29:00.725-05:00
12.000000,254.295715,2.550000,17.482072,44.940627,281.705715,180.187592,3.535534,3.000000,-93.169584,9.390000,2025-03-13T21:29:02.000-05:00,-0.310862,-0.952456,0.004967,2025-03-13T21:29:01.723-05:00,-0.623003,0.147397,-0.380419,2025-03-13T21:29:01.729-05:00
13.000000,254.295722,2.550000,22.004535,44.940542,281.705722,180.187592,4.748652,4.029364,-93.169582,9.390000,2025-03-13T21:29:03.000-05:00,-0.286916,-0.957215,0.008113,2025-03-13T21:29:02.728-05:00,-0.419684,0.107937,-0.392393,2025-03-13T21:29:02.724-05:00
14.000000,254.370913,0.910000,12.936125,44.940529,281.780913,180.187592,4.748652,4.029364,-93.169582,5.700000,2025-03-13T21:29:04.000-05:00,-0.284877,-0.957592,-0.002074,2025-03-13T21:29:03.732-05:00,-0.347744,0.096552,-0.402896,2025-03-13T21:29:03.729-05:00
15.000000,254.925237,1.690000,17.784171,44.940442,282.335236,180.485275,4.748652,4.029364,-93.169577,7.700000,2025-03-13T21:29:05.000-05:00,-0.289833,-0.953129,-0.007652,2025-03-13T21:29:04.727-05:00,-0.366297,0.137331,-0.375184,2025-03-13T21:29:04.723-05:00
16.000000,255.001469,2.450000,28.854615,44.940391,282.411468,180.485275,4.748652,4.029364,-93.169576,6.880000,2025-03-13T21:29:06.000-05:00,-0.312710,-0.949480,-0.013019,2025-03-13T21:29:05.732-05:00,-0.583455,0.175518,-0.417040,2025-03-13T21:29:05.728-05:00
17.000000,255.511112,1.040000,12.248489,44.940343,282.921112,180.485275,4.748652,4.029364,-93.169580,6.880000,2025-03-13T21:29:07.000-05:00,-0.354147,-0.925566,-0.017634,2025-03-13T21:29:06.726-05:00,-0.888098,0.381602,-0.487473,2025-03-13T21:29:06.723-05:00
18.000000,255.752566,0.320000,7.258975,44.940298,283.162566,180.485275,4.748652,4.029364,-93.169578,5.950000,2025-03-13T21:29:08.000-05:00,-0.391574,-0.933817,-0.025518,2025-03-13T21:29:07.731-05:00,-1.157774,0.260398,-0.515009,2025-03-13T21:29:07.727-05:00
19.000000,255.810793,1.380000,21.380361,44.940258,283.220793,180.485275,4.748652,4.029364,-93.169580,5.230000,2025-03-13T21:29:09.000-05:00,-0.420275,-0.918913,-0.037834,2025-03-13T21:29:08.726-05:00,-1.391374,0.408813,-0.539688,2025-03-13T21:29:08.732-05:00
20.000000,255.944765,1.120000,24.041318,44.940229,283.354765,180.485275,4.748652,4.029364,-93.169593,5.230000,2025-03-13T21:29:10.000-05:00,-0.356378,-0.938091,-0.030208,2025-03-13T21:29:09.730-05:00,-0.790620,0.230616,-0.378097,2025-03-13T21:29:09.727-05:00
21.000000,256.087708,0.620000,17.029712,44.940231,283.497708,180.485275,4.748652,4.029364,-93.169598,2.950000,2025-03-13T21:29:11.000-05:00,-0.296523,-0.952412,-0.020399,2025-03-13T21:29:10.725-05:00,-0.172161,0.073605,-0.216288,2025-03-13T21:29:10.731-05:00
22.000000,256.386414,0.308016,16.312446,44.940231,283.796414,180.485275,4.748652,4.029364,-93.169593,1.530000,2025-03-13T21:29:12.000-05:00,-0.282266,-0.957490,-0.013404,2025-03-13T21:29:11.730-05:00,0.027189,0.011146,-0.131048,2025-03-13T21:29:11.726-05:00
23.000000,256.499024,1.430000,75.732489,44.940207,283.909024,180.485275,4.748652,4.029364,-93.169587,1.530000,2025-03-13T21:29:12.999-05:00,-0.248459,-0.966687,-0.002479,2025-03-13T21:29:12.724-05:00,0.375936,-0.085678,-0.006116,2025-03-13T21:29:12.731-05:00
24.000000,256.384522,2.340000,122.326848,44.940198,283.794522,180.485275,4.748652,4.029364,-93.169604,1.550000,2025-03-13T21:29:13.999-05:00,-0.248860,-0.967032,-0.003702,2025-03-13T21:29:13.729-05:00,0.379265,-0.092799,-0.005861,2025-03-13T21:29:13.725-05:00
25.000000,256.111084,2.616199,180.000000,44.940228,283.521084,180.485275,4.748652,4.029364,-93.169606,0.000000,2025-03-13T21:29:14.999-05:00,-0.248763,-0.966952,-0.002369,2025-03-13T21:29:14.724-05:00,0.377716,-0.088718,0.002064,2025-03-13T21:29:14.730-05:00
26.000000,255.814697,1.106854,180.000000,44.940232,283.224697,180.485275,4.748652,4.029364,-93.169612,0.000000,2025-03-13T21:29:15.999-05:00,-0.248576,-0.966852,-0.003575,2025-03-13T21:29:15.728-05:00,0.366001,-0.086763,0.000632,2025-03-13T21:29:15.725-05:00
27.000000,255.544922,1.118034,180.000000,44.940235,282.954922,180.485275,4.748652,4.029364,-93.169615,0.000000,2025-03-13T21:29:16.999-05:00,-0.248821,-0.966861,-0.002922,2025-03-13T21:29:16.723-05:00,0.353568,-0.078717,0.007395,2025-03-13T21:29:16.729-05:00
28.000000,255.241455,1.151575,180.000000,44.940240,282.651455,180.485275,4.748652,4.029364,-93.169618,0.210000,2025-03-13T21:29:17.999-05:00,-0.248451,-0.966814,-0.002958,2025-03-13T21:29:17.728-05:00,0.335343,-0.076024,0.009922,2025-03-13T21:29:17.724-05:00
29.000000,254.967102,1.151575,180.000000,44.940243,282.377102,180.485275,4.748652,4.029364,-93.169622,0.000000,2025-03-13T21:29:18.999-05:00,-0.248974,-0.966878,-0.002954,2025-03-13T21:29:18.732-05:00,0.313704,-0.069102,0.007591,2025-03-13T21:29:18.729-05:00
30.000000,254.981506,1.129214,180.000000,44.940243,282.391506,180.485275,4.748652,4.029364,-93.169624,0.000000,2025-03-13T21:29:19.999-05:00,-0.248504,-0.966802,-0.003165,2025-03-13T21:29:19.727-05:00,0.294472,-0.063937,0.008398,2025-03-13T21:29:19.723-05:00
31.000000,254.932678,1.106854,180.000000,44.940243,282.342678,180.485275,4.748652,4.029364,-93.169626,0.000000,2025-03-13T21:29:20.999-05:00,-0.223408,-0.974302,0.004137,2025-03-13T21:29:20.732-05:00,0.513102,-0.126658,0.073590,2025-03-13T21:29:20.728-05:00
32.000000,254.856201,1.106854,180.000000,44.940245,282.266201,180.485275,4.748652,4.029364,-93.169627,0.000000,2025-03-13T21:29:21.999-05:00,-0.228429,-0.972021,0.000916,2025-03-13T21:29:21.726-05:00,0.443097,-0.100702,0.052336,2025-03-13T21:29:21.723-05:00
33.000000,259.069473,1.027312,180.000000,44.940198,286.479472,180.485275,2.249366,3.000000,-93.169623,0.000000,2025-03-13T21:29:22.999-05:00,-0.246668,-0.966418,-0.005040,2025-03-13T21:29:22.731-05:00,0.248914,-0.038465,0.010852,2025-03-13T21:29:22.727-05:00
34.000000,258.973707,1.269749,180.000000,44.940196,286.383707,180.485275,2.299825,3.000000,-93.169614,0.419923,2025-03-13T21:29:23.999-05:00,-0.299318,-0.953915,-0.023560,2025-03-13T21:29:23.726-05:00,-0.276319,0.082267,-0.138140,2025-03-13T21:29:23.732-05:00
35.000000,258.966559,1.268821,180.000000,44.940195,286.376558,180.485275,2.808782,3.000000,-93.169607,0.484519,2025-03-13T21:29:24.999-05:00,-0.246870,-0.967433,-0.010703,2025-03-13T21:29:24.730-05:00,0.214977,-0.042301,0.000873,2025-03-13T21:29:24.727-05:00
36.000000,259.010510,0.913324,180.000000,44.940206,286.420510,180.485275,2.687132,3.000000,-93.169613,0.076758,2025-03-13T21:29:25.999-05:00,-0.248683,-0.966770,-0.011039,2025-03-13T21:29:25.725-05:00,0.184525,-0.032690,-0.004011,2025-03-13T21:29:25.731-05:00
37.000000,258.943992,0.908471,180.000000,44.940207,286.353992,180.485275,2.627423,3.000000,-93.169610,0.000000,2025-03-13T21:29:26.999-05:00,-0.249211,-0.966912,-0.011324,2025-03-13T21:29:26.730-05:00,0.173649,-0.031771,-0.007648,2025-03-13T21:29:26.726-05:00
38.000000,258.943992,0.906568,180.000000,44.940207,286.353992,180.485275,2.664882,3.000000,-93.169610,0.000000,2025-03-13T21:29:27.999-05:00,-0.247334,-0.967283,-0.010295,2025-03-13T21:29:27.724-05:00,0.180106,-0.032226,0.003962,2025-03-13T21:29:27.731-05:00
39.000000,258.943992,0.907267,180.000000,44.940207,286.353992,180.485275,2.554068,3.000000,-93.169610,0.000000,2025-03-13T21:29:28.999-05:00,-0.221347,-0.975591,-0.004048,2025-03-13T21:29:28.729-05:00,0.416724,-0.108797,0.067114,2025-03-13T21:29:28.725-05:00
40.000000,258.943992,0.907177,180.000000,44.940207,286.353992,180.485275,2.474916,3.000000,-93.169610,0.000000,2025-03-13T21:29:29.999-05:00,-0.038817,-1.020641,0.044896,2025-03-13T21:29:29.724-05:00,2.051157,-0.513396,0.511964,2025-03-13T21:29:29.730-05:00
41.000000,259.098880,0.700957,39.799561,44.940198,286.508879,180.485275,2.462777,3.000000,-93.169614,1.290112,2025-03-13T21:29:30.999-05:00,-0.063103,-1.011512,0.068435,2025-03-13T21:29:30.728-05:00,1.643067,-0.370495,0.575083,2025-03-13T21:29:30.725-05:00
42.000000,258.490311,0.654313,17.705201,44.940168,285.900311,180.485275,2.411357,3.000000,-93.169612,2.942361,2025-03-13T21:29:31.999-05:00,-0.109385,-1.002954,0.028142,2025-03-13T21:29:31.723-05:00,0.990109,-0.261760,0.245192,2025-03-13T21:29:31.729-05:00
43.000000,258.645626,0.658950,11.197629,44.940117,286.055626,180.485275,2.372266,3.000000,-93.169609,4.758815,2025-03-13T21:29:32.999-05:00,-0.152174,-0.975181,0.025298,2025-03-13T21:29:32.728-05:00,0.791378,0.010644,0.224343,2025-03-13T21:29:32.724-05:00
44.000000,258.997554,0.768687,10.559745,44.940059,286.407554,180.485275,2.376019,3.000000,-93.169608,5.900118,2025-03-13T21:29:33.999-05:00,-0.194619,-0.967348,0.018361,2025-03-13T21:29:33.723-05:00,0.545203,-0.019689,0.133106,2025-03-13T21:29:33.729-05:00
45.000000,258.022134,0.676460,8.005257,44.939998,285.432133,180.742188,2.344684,3.000000,-93.169599,6.640422,2025-03-13T21:29:34.999-05:00,-0.195860,-1.014620,-0.008108,2025-03-13T21:29:34.727-05:00,0.232348,-0.384445,0.031760,2025-03-13T21:29:34.723-05:00
46.000000,257.519405,0.688545,7.333140,44.939928,284.929405,180.742188,2.299054,3.000000,-93.169598,7.452839,2025-03-13T21:29:35.999-05:00,-0.186229,-0.979488,-0.023324,2025-03-13T21:29:35.732-05:00,0.194900,-0.005568,-0.048962,2025-03-13T21:29:35.728-05:00
47.000000,258.302361,0.656319,7.254657,44.939848,285.712361,180.000000,2.234563,3.000000,-93.169595,8.399237,2025-03-13T21:29:36.999-05:00,-0.189576,-0.981379,-0.038885,2025-03-13T21:29:36.727-05:00,0.092841,-0.012288,-0.118508,2025-03-13T21:29:36.723-05:00
48.000000,258.193578,0.653538,7.257726,44.939767,285.603578,180.000000,2.168014,3.000000,-93.169592,8.926543,2025-03-13T21:29:37.999-05:00,-0.199194,-0.976511,-0.045753,2025-03-13T21:29:37.731-05:00,-0.031506,0.012377,-0.113752,2025-03-13T21:29:37.728-05:00
49.000000,258.261135,0.649985,7.256933,44.939681,285.671135,180.000000,2.112467,3.000000,-93.169593,9.405369,2025-03-13T21:29:38.999-05:00,-0.208875,-0.972284,-0.051282,2025-03-13T21:29:38.726-05:00,-0.118902,0.072030,-0.165530,2025-03-13T21:29:38.732-05:00
50.000000,258.501232,0.755431,7.255709,44.939598,285.911232,180.000000,2.071200,3.000000,-93.169591,9.345082,2025-03-13T21:29:39.999-05:00,-0.251290,-0.965556,-0.048146,2025-03-13T21:29:39.731-05:00,-0.484086,0.128865,-0.169702,2025-03-13T21:29:39.727-05:00
51.000000,257.560200,0.908397,8.094123,44.939517,284.970200,180.000000,2.252956,3.000000,-93.169587,9.056537,2025-03-13T21:29:40.999-05:00,-0.241196,-0.969045,-0.044271,2025-03-13T21:29:40.725-05:00,-0.359131,0.103129,-0.133208,2025-03-13T21:29:40.732-05:00
52.000000,257.242760,0.700048,7.254412,44.939421,284.652760,179.512619,3.554012,3.000000,-93.169601,9.717700,2025-03-13T21:29:41.999-05:00,-0.262856,-0.959426,-0.040459,2025-03-13T21:29:41.730-05:00,-0.569593,0.185662,-0.133117,2025-03-13T21:29:41.726-05:00
53.000000,257.478131,0.855321,7.333622,44.939338,284.888131,179.512619,4.417851,3.000000,-93.169600,9.447168,2025-03-13T21:29:42.999-05:00,-0.277899,-0.960966,-0.044148,2025-03-13T21:29:42.725-05:00,-0.657894,0.166282,-0.191872,2025-03-13T21:29:42.731-05:00
54.000000,257.257480,0.728600,7.255078,44.939235,284.667479,179.512619,2.115345,3.000000,-93.169599,10.157997,2025-03-13T21:29:43.999-05:00,-0.273801,-0.951110,-0.053121,2025-03-13T21:29:43.729-05:00,-0.565664,0.228023,-0.233466,2025-03-13T21:29:43.726-05:00
55.000000,258.062255,0.693872,7.258683,44.939158,285.472255,179.512619,2.067348,3.000000,-93.169575,9.252251,2025-03-13T21:29:44.999-05:00,-0.259197,-0.965068,-0.046327,2025-03-13T21:29:44.724-05:00,-0.396731,0.103831,-0.164166,2025-03-13T21:29:44.730-05:00
56.000000,258.934218,0.791242,7.796094,44.939086,286.344218,180.000000,2.039751,3.000000,-93.169592,8.229601,2025-03-13T21:29:45.999-05:00,-0.250239,-0.956209,-0.039071,2025-03-13T21:29:45.729-05:00,-0.214655,0.167221,-0.111179,2025-03-13T21:29:45.725-05:00
57.000000,259.345854,0.853383,9.974928,44.939029,286.755853,180.000000,2.231994,3.000000,-93.169598,6.920179,2025-03-13T21:29:46.999-05:00,-0.268468,-0.960667,-0.013980,2025-03-13T21:29:46.723-05:00,-0.293761,0.111145,-0.056888,2025-03-13T21:29:46.730-05:00
58.000000,259.363078,0.675681,7.258670,44.938911,286.773078,180.236633,2.157971,3.000000,-93.169586,9.255759,2025-03-13T21:29:47.999-05:00,-0.270207,-0.967892,-0.020287,2025-03-13T21:29:47.728-05:00,-0.239706,0.013135,-0.147424,2025-03-13T21:29:47.724-05:00
59.000000,259.253701,0.672723,7.258440,44.938832,286.663701,180.236633,2.093648,3.000000,-93.169585,9.032559,2025-03-13T21:29:48.999-05:00,-0.280810,-0.953095,-0.023479,2025-03-13T21:29:48.723-05:00,-0.392152,0.171621,-0.151033,2025-03-13T21:29:48.729-05:00
60.000000,259.321392,0.663656,7.258839,44.938756,286.731391,180.236633,2.056233,3.000000,-93.169587,8.729842,2025-03-13T21:29:49.999-05:00,-0.282377,-0.938709,-0.023916,2025-03-13T21:29:49.727-05:00,-0.324532,0.300636,-0.180028,2025-03-13T21:29:49.724-05:00
61.000000,259.233268,0.664963,7.255423,44.938682,286.643268,180.236633,2.036808,3.000000,-93.169585,8.296551,2025-03-13T21:29:50.999-05:00,-0.301117,-0.969307,-0.014272,2025-03-13T21:29:50.732-05:00,-0.481729,-0.025698,-0.158390,2025-03-13T21:29:50.728-05:00
62.000000,259.749785,0.657232,7.256993,44.938605,287.159785,180.236633,2.024184,3.000000,-93.169586,8.243927,2025-03-13T21:29:51.999-05:00,-0.286957,-0.953881,-0.000817,2025-03-13T21:29:51.727-05:00,-0.296965,0.124010,-0.067719,2025-03-13T21:29:51.723-05:00
63.000000,259.615510,0.668237,7.258615,44.938536,287.025510,180.236633,2.016315,3.000000,-93.169591,7.858246,2025-03-13T21:29:52.999-05:00,-0.326826,-0.947309,-0.029782,2025-03-13T21:29:52.731-05:00,-0.590580,0.164326,-0.307976,2025-03-13T21:29:52.728-05:00
64.000000,259.960497,0.663700,7.258266,44.938467,287.370497,180.236633,2.014471,3.000000,-93.169596,7.569682,2025-03-13T21:29:53.999-05:00,-0.353757,-0.935329,-0.107985,2025-03-13T21:29:53.726-05:00,-0.861483,0.282582,-1.034682,2025-03-13T21:29:53.732-05:00
65.000000,259.632694,0.683128,8.324664,44.938411,287.042694,180.545914,2.010228,3.000000,-93.169601,6.632953,2025-03-13T21:29:54.999-05:00,-0.286616,-0.960670,-0.203946,2025-03-13T21:29:54.731-05:00,-0.354719,0.056856,-1.846641,2025-03-13T21:29:54.727-05:00
66.000000,259.545887,0.737107,10.894554,44.938368,286.955887,180.545914,2.210770,3.000000,-93.169626,5.471277,2025-03-13T21:29:55.999-05:00,-0.267876,-0.974902,-0.209929,2025-03-13T21:29:55.726-05:00,-0.215805,-0.052014,-1.867500,2025-03-13T21:29:55.732-05:00
67.000000,258.598179,0.883044,14.910477,44.938342,286.008179,215.969064,2.413984,3.000000,-93.169624,4.715349,2025-03-13T21:29:56.999-05:00,-0.213130,-0.964053,-0.158503,2025-03-13T21:29:56.730-05:00,0.194697,0.078363,-1.439113,2025-03-13T21:29:56.726-05:00
68.000000,259.300812,0.659911,11.499232,44.938327,286.710812,239.200624,2.344987,3.000000,-93.169635,4.650966,2025-03-13T21:29:57.999-05:00,-0.226380,-0.959417,-0.062862,2025-03-13T21:29:57.725-05:00,0.199670,0.099589,-0.390767,2025-03-13T21:29:57.731-05:00
69.000000,258.883295,0.672701,11.870118,44.938327,286.293295,267.568451,2.295703,3.000000,-93.169795,4.570613,2025-03-13T21:29:58.999-05:00,-0.222810,-0.977331,0.005536,2025-03-13T21:29:58.730-05:00,0.220721,-0.082716,0.304604,2025-03-13T21:29:58.726-05:00
70.000000,258.883189,0.665531,10.010142,44.938329,286.293189,269.100006,2.259183,3.000000,-93.169869,5.381552,2025-03-13T21:29:59.999-05:00,-0.238210,-0.975283,-0.013700,2025-03-13T21:29:59.724-05:00,-0.069090,-0.034377,0.274457,2025-03-13T21:29:59.730-05:00
71.000000,258.710453,0.677462,9.138653,44.938329,286.120453,269.100006,2.287558,3.000000,-93.169953,5.987018,2025-03-13T21:30:00.999-05:00,-0.187515,-0.986211,0.024032,2025-03-13T21:30:00.729-05:00,0.285787,-0.113113,0.575199,2025-03-13T21:30:00.725-05:00
72.000000,258.798157,0.663761,8.069662,44.938333,286.208157,269.740295,2.253854,3.000000,-93.170042,6.664899,2025-03-13T21:30:01.999-05:00,-0.257358,-0.963037,0.020758,2025-03-13T21:30:01.724-05:00,-0.366971,0.125563,0.390281,2025-03-13T21:30:01.730-05:00
73.000000,258.820512,0.665042,7.457109,44.938336,286.230512,269.740295,2.230830,3.000000,-93.170137,7.226383,2025-03-13T21:30:02.999-05:00,-0.307362,-0.952584,0.011907,2025-03-13T21:30:02.728-05:00,-0.821371,0.213969,0.265447,2025-03-13T21:30:02.725-05:00
74.000000,258.723797,0.658732,7.510211,44.938341,286.133797,269.740295,2.185399,3.000000,-93.170228,7.106992,2025-03-13T21:30:03.999-05:00,-0.368633,-0.931361,0.011883,2025-03-13T21:30:03.723-05:00,-1.344502,0.408738,0.219249,2025-03-13T21:30:03.729-05:00
75.000000,258.863667,0.664685,8.183577,44.938341,286.273667,269.740295,2.208823,3.000000,-93.170312,6.581778,2025-03-13T21:30:04.999-05:00,-0.341678,-0.935093,0.017429,2025-03-13T21:30:04.728-05:00,-1.004690,0.350326,0.289935,2025-03-13T21:30:04.724-05:00
76.000000,258.687761,0.668730,9.325138,44.938344,286.097761,269.740295,2.223769,3.000000,-93.170384,5.806572,2025-03-13T21:30:05.999-05:00,-0.348139,-0.949620,0.058506,2025-03-13T21:30:05.732-05:00,-1.016408,0.198298,0.709541,2025-03-13T21:30:05.729-05:00
77.000000,258.737313,0.687421,10.583465,44.938342,286.147313,269.740295,2.332492,3.000000,-93.170450,5.263516,2025-03-13T21:30:06.999-05:00,-0.322018,-0.942067,0.134889,2025-03-13T21:30:06.727-05:00,-0.834945,0.288928,1.445683,2025-03-13T21:30:06.723-05:00
78.000000,258.608467,0.676641,11.234332,44.938327,286.018467,269.740295,2.291385,3.000000,-93.170509,4.880494,2025-03-13T21:30:07.999-05:00,-0.319176,-0.943967,0.183079,2025-03-13T21:30:07.732-05:00,-0.594053,0.211685,1.948431,2025-03-13T21:30:07.728-05:00
79.000000,258.578925,0.664421,11.381834,44.938306,285.988924,269.740295,2.254962,3.000000,-93.170560,4.730916,2025-03-13T21:30:08.999-05:00,-0.310121,-0.952344,0.170992,2025-03-13T21:30:08.726-05:00,-0.458382,0.118429,1.818780,2025-03-13T21:30:08.723-05:00
80.000000,258.331461,0.662762,11.379562,44.938311,285.741461,219.195944,2.226632,3.000000,-93.170591,4.707087,2025-03-13T21:30:09.999-05:00,-0.230254,-0.960210,0.132548,2025-03-13T21:30:09.731-05:00,0.347783,0.037328,1.471138,2025-03-13T21:30:09.727-05:00
81.000000,258.811659,0.653269,9.643337,44.938215,286.221659,188.736481,2.203969,3.000000,-93.170615,5.490787,2025-03-13T21:30:10.999-05:00,-0.220102,-0.987209,0.059701,2025-03-13T21:30:10.726-05:00,0.437435,-0.225905,0.797569,2025-03-13T21:30:10.732-05:00
82.000000,258.585657,0.669146,8.891730,44.938157,285.995657,190.451033,2.185426,3.000000,-93.170623,6.088491,2025-03-13T21:30:11.999-05:00,-0.266039,-0.970513,0.018699,2025-03-13T21:30:11.730-05:00,-0.239655,-0.002658,0.242279,2025-03-13T21:30:11.727-05:00
83.000000,258.716080,0.654277,8.020720,44.938094,286.126080,185.831131,2.165471,3.000000,-93.170629,6.607085,2025-03-13T21:30:12.999-05:00,-0.311361,-0.951300,-0.049819,2025-03-13T21:30:12.725-05:00,-0.792322,0.206834,-0.442607,2025-03-13T21:30:12.731-05:00
84.000000,258.957560,0.652872,8.150370,44.938035,286.367560,182.743845,2.149294,3.000000,-93.170629,6.492640,2025-03-13T21:30:13.999-05:00,-0.374095,-0.928132,-0.063369,2025-03-13T21:30:13.730-05:00,-1.351735,0.431609,-0.652203,2025-03-13T21:30:13.726-05:00
85.000000,259.060456,0.699113,10.538312,44.937991,286.470456,183.122770,2.240606,3.000000,-93.170632,5.377121,2025-03-13T21:30:14.999-05:00,-0.440054,-0.910099,-0.069358,2025-03-13T21:30:14.725-05:00,-1.880214,0.573828,-0.752429,2025-03-13T21:30:14.731-05:00
86.000000,259.321803,0.741378,16.856623,44.937966,286.731802,180.000686,2.256507,3.000000,-93.170628,3.528993,2025-03-13T21:30:15.999-05:00,-0.369036,-0.932785,-0.053536,2025-03-13T21:30:15.729-05:00,-1.093927,0.331052,-0.594492,2025-03-13T21:30:15.725-05:00
87.000000,258.950164,0.700974,24.232140,44.937949,286.360164,184.481940,2.251260,3.000000,-93.170635,2.206520,2025-03-13T21:30:16.999-05:00,-0.279485,-0.984399,-0.032919,2025-03-13T21:30:16.724-05:00,-0.177560,-0.188244,-0.321178,2025-03-13T21:30:16.730-05:00
88.000000,259.271755,0.671893,29.224791,44.937933,286.681755,182.789782,2.236581,3.000000,-93.170633,1.858103,2025-03-13T21:30:17.999-05:00,-0.208086,-0.961731,-0.015525,2025-03-13T21:30:17.729-05:00,0.443628,0.043339,-0.110679,2025-03-13T21:30:17.725-05:00
89.000000,259.387678,0.681641,30.811412,44.937920,286.797678,180.142374,2.252340,3.000000,-93.170629,1.721242,2025-03-13T21:30:18.999-05:00,-0.243453,-0.943969,-0.042774,2025-03-13T21:30:18.723-05:00,0.401309,0.145178,-0.184811,2025-03-13T21:30:18.729-05:00
90.000000,259.340770,0.657905,28.693415,44.937903,286.750770,179.812696,2.232930,3.000000,-93.170626,1.854080,2025-03-13T21:30:19.999-05:00,-0.131302,-1.006931,-0.016188,2025-03-13T21:30:19.728-05:00,1.356751,-0.430223,0.125518,2025-03-13T21:30:19.724-05:00
91.000000,259.504187,0.655083,19.931167,44.937877,286.914187,179.462600,2.242778,3.000000,-93.170624,2.662614,2025-03-13T21:30:20.999-05:00,-0.164575,-0.987880,-0.031184,2025-03-13T21:30:20.723-05:00,1.045379,-0.254673,0.018170,2025-03-13T21:30:20.729-05:00
92.000000,259.578447,0.653226,13.811511,44.937838,286.988447,178.874482,2.279911,3.000000,-93.170620,3.828226,2025-03-13T21:30:21.999-05:00,-0.177657,-0.988596,-0.033132,2025-03-13T21:30:21.727-05:00,0.876859,-0.245241,-0.025899,2025-03-13T21:30:21.724-05:00
93.000000,259.690215,0.656769,11.345254,44.937792,287.100214,179.645269,2.306269,3.000000,-93.170618,4.674516,2025-03-13T21:30:22.999-05:00,-0.178771,-0.989193,-0.044590,2025-03-13T21:30:22.732-05:00,0.735049,-0.222763,-0.088185,2025-03-13T21:30:22.728-05:00
94.000000,260.071005,0.650058,9.477146,44.937737,287.481005,179.805635,2.372069,3.000000,-93.170615,5.557066,2025-03-13T21:30:23.999-05:00,-0.195727,-0.997014,-0.038407,2025-03-13T21:30:23.727-05:00,0.348301,-0.240586,-0.093692,2025-03-13T21:30:23.723-05:00
95.000000,260.381810,0.662818,8.712991,44.937678,287.791810,180.109219,2.409785,3.000000,-93.170612,6.157069,2025-03-13T21:30:24.999-05:00,-0.206266,-0.988900,-0.012361,2025-03-13T21:30:24.731-05:00,-0.059397,-0.086144,-0.027741,2025-03-13T21:30:24.728-05:00
96.000000,260.867376,0.657936,8.170125,44.937618,288.277376,180.636023,2.385481,3.000000,-93.170614,6.475090,2025-03-13T21:30:25.999-05:00,-0.240397,-0.966973,0.008701,2025-03-13T21:30:25.726-05:00,-0.381120,0.119235,0.014573,2025-03-13T21:30:25.732-05:00
97.000000,260.892765,0.662719,8.463500,44.937560,288.302765,180.180418,2.344386,3.000000,-93.170614,6.346177,2025-03-13T21:30:26.999-05:00,-0.232119,-0.967360,0.014767,2025-03-13T21:30:26.731-05:00,-0.233759,0.098854,0.005386,2025-03-13T21:30:26.727-05:00
98.000000,261.446421,0.655878,8.389014,44.937503,288.856421,176.800756,2.350519,3.000000,-93.170603,6.321995,2025-03-13T21:30:27.999-05:00,-0.266203,-0.954796,-0.026470,2025-03-13T21:30:27.725-05:00,-0.541546,0.221025,-0.225691,2025-03-13T21:30:27.732-05:00
99.000000,261.742955,0.657881,8.737403,44.937448,289.152955,174.936366,2.304485,3.000000,-93.170595,6.086299,2025-03-13T21:30:28.999-05:00,-0.301843,-0.947794,-0.073217,2025-03-13T21:30:28.730-05:00,-0.874026,0.291582,-0.558326,2025-03-13T21:30:28.726-05:00
100.000000,261.765858,0.663653,9.867874,44.937402,289.175858,178.999313,2.290310,3.000000,-93.170611,5.448788,2025-03-13T21:30:29.999-05:00,-0.343888,-0.947097,-0.087480,2025-03-13T21:30:29.725-05:00,-1.158674,0.261102,-0.588143,2025-03-13T21:30:29.731-05:00
101.000000,262.050753,0.661167,12.011246,44.937363,289.460753,171.452850,2.274065,3.000000,-93.170583,4.452388,2025-03-13T21:30:30.999-05:00,-0.316816,-0.919943,-0.059928,2025-03-13T21:30:30.729-05:00,-0.693527,0.474451,-0.284970,2025-03-13T21:30:30.726-05:00
102.000000,261.844985,0.660947,15.869575,44.937338,289.254985,171.452850,2.249150,3.000000,-93.170583,3.366086,2025-03-13T21:30:31.999-05:00,-0.343925,-0.934225,-0.074923,2025-03-13T21:30:31.724-05:00,-0.587033,0.229171,-0.308297,2025-03-13T21:30:31.730-05:00
103.000000,261.354945,0.735772,20.335815,44.937319,288.764944,175.609421,2.248992,3.000000,-93.170580,2.436325,2025-03-13T21:30:32.999-05:00,-0.249830,-0.954360,-0.044621,2025-03-13T21:30:32.729-05:00,0.211990,0.056624,-0.062946,2025-03-13T21:30:32.725-05:00
104.000000,261.693160,0.682990,26.024528,44.937301,289.103160,175.609421,2.247732,3.000000,-93.170579,2.059333,2025-03-13T21:30:33.999-05:00,-0.286679,-0.959855,-0.053082,2025-03-13T21:30:33.723-05:00,0.098209,-0.046960,-0.017887,2025-03-13T21:30:33.730-05:00
105.000000,261.072753,0.831052,23.140569,44.937285,288.482753,175.609421,2.230036,3.000000,-93.170576,1.916602,2025-03-13T21:30:34.999-05:00,-0.191748,-0.993099,-0.031223,2025-03-13T21:30:34.728-05:00,0.878047,-0.337251,0.152177,2025-03-13T21:30:34.724-05:00
106.000000,260.816243,0.868565,17.438121,44.937259,288.226243,175.609421,2.336483,3.000000,-93.170574,2.333989,2025-03-13T21:30:35.999-05:00,-0.158410,-0.987262,-0.021801,2025-03-13T21:30:35.723-05:00,1.129260,-0.261331,0.252521,2025-03-13T21:30:35.729-05:00
107.000000,261.457036,0.665286,15.026689,44.937220,288.867036,178.623444,2.328023,3.000000,-93.170568,3.587530,2025-03-13T21:30:36.999-05:00,-0.175003,-0.986382,-0.040344,2025-03-13T21:30:36.728-05:00,0.968695,-0.256762,0.128448,2025-03-13T21:30:36.724-05:00
108.000000,261.378745,0.668444,12.233157,44.937177,288.788745,178.623444,2.421583,3.000000,-93.170566,4.330446,2025-03-13T21:30:37.999-05:00,-0.180968,-0.988645,-0.031288,2025-03-13T21:30:37.732-05:00,0.915197,-0.276099,0.146942,2025-03-13T21:30:37.728-05:00
109.000000,261.604341,0.658263,10.266569,44.937124,289.014341,180.311356,2.464146,3.000000,-93.170564,5.168625,2025-03-13T21:30:38.999-05:00,-0.222247,-0.967190,-0.042042,2025-03-13T21:30:38.727-05:00,0.492912,-0.060930,-0.012061,2025-03-13T21:30:38.723-05:00
110.000000,261.880889,0.655525,8.532997,44.937061,289.290889,180.311386,2.439717,3.000000,-93.170564,6.224792,2025-03-13T21:30:39.999-05:00,-0.284499,-0.958642,-0.043430,2025-03-13T21:30:39.732-05:00,-0.126702,0.029635,-0.015669,2025-03-13T21:30:39.728-05:00
111.000000,261.958726,0.657162,8.156792,44.936998,289.368725,180.311386,2.396320,3.000000,-93.170565,6.514120,2025-03-13T21:30:40.999-05:00,-0.310807,-0.943184,-0.063550,2025-03-13T21:30:40.726-05:00,-0.390639,0.185381,-0.175633,2025-03-13T21:30:40.723-05:00
112.000000,262.102767,0.660254,8.557928,44.936941,289.512767,181.198532,2.346581,3.000000,-93.170562,6.250596,2025-03-13T21:30:41.999-05:00,-0.360594,-0.935768,-0.071736,2025-03-13T21:30:41.731-05:00,-0.840870,0.239913,-0.261527,2025-03-13T21:30:41.727-05:00
113.000000,261.990570,0.663618,9.674547,44.936893,289.400570,181.198532,2.349098,3.000000,-93.170561,5.549976,2025-03-13T21:30:42.999-05:00,-0.410782,-0.921051,-0.082143,2025-03-13T21:30:42.726-05:00,-1.331314,0.383995,-0.372805,2025-03-13T21:30:42.732-05:00
114.000000,262.185885,0.668081,11.666569,44.936853,289.595885,178.076904,2.359919,3.000000,-93.170584,4.625778,2025-03-13T21:30:43.999-05:00,-0.447571,-0.909344,-0.087199,2025-03-13T21:30:43.730-05:00,-1.607762,0.477040,-0.453105,2025-03-13T21:30:43.727-05:00
115.000000,261.873342,0.671359,19.647323,44.936836,289.283341,178.076904,2.327199,3.000000,-93.170562,2.769117,2025-03-13T21:30:44.999-05:00,-0.244393,-0.944121,-0.025159,2025-03-13T21:30:44.725-05:00,0.282988,0.164692,0.066917,2025-03-13T21:30:44.731-05:00
116.000000,262.070260,0.693684,29.435710,44.936823,289.480260,178.076904,2.404838,3.000000,-93.170560,1.827462,2025-03-13T21:30:45.999-05:00,-0.284973,-0.985333,-0.039860,2025-03-13T21:30:45.730-05:00,0.136062,-0.298900,0.048912,2025-03-13T21:30:45.726-05:00
117.000000,261.631146,0.705678,28.094223,44.936807,289.041146,173.429581,2.380106,3.000000,-93.170559,1.845467,2025-03-13T21:30:46.999-05:00,-0.242311,-0.959362,-0.013587,2025-03-13T21:30:46.724-05:00,0.521689,-0.055776,0.286646,2025-03-13T21:30:46.731-05:00
118.000000,261.721515,0.660538,23.856283,44.936786,289.131515,170.974579,2.408501,3.000000,-93.170561,2.240258,2025-03-13T21:30:47.999-05:00,-0.206434,-0.981215,-0.004635,2025-03-13T21:30:47.729-05:00,0.781360,-0.232952,0.351588,2025-03-13T21:30:47.725-05:00
119.000000,261.505390,0.659418,20.361420,44.936763,288.915390,170.974579,2.381267,3.000000,-93.170555,2.579442,2025-03-13T21:30:48.999-05:00,-0.217125,-0.976991,0.003114,2025-03-13T21:30:48.724-05:00,0.676031,-0.192891,0.386058,2025-03-13T21:30:48.730-05:00
120.000000,261.673057,0.655889,15.771951,44.936729,289.083056,166.815186,2.380028,3.000000,-93.170544,3.360056,2025-03-13T21:30:49.999-05:00,-0.236233,-0.970958,-0.000937,2025-03-13T21:30:49.728-05:00,0.443491,-0.116022,0.340883,2025-03-13T21:30:49.725-05:00
121.000000,261.585973,0.696931,14.151092,44.936692,288.995973,160.417297,2.357673,3.000000,-93.170528,3.956743,2025-03-13T21:30:50.999-05:00,-0.274532,-0.961411,-0.018331,2025-03-13T21:30:50.723-05:00,0.002907,-0.004380,0.146299,2025-03-13T21:30:50.729-05:00
122.000000,261.225681,0.661275,13.108307,44.936658,288.635681,160.417297,2.337802,3.000000,-93.170512,4.029260,2025-03-13T21:30:51.999-05:00,-0.292359,-0.956206,-0.011411,2025-03-13T21:30:51.728-05:00,-0.178532,0.053286,0.156952,2025-03-13T21:30:51.724-05:00
123.000000,261.320355,0.659597,13.388547,44.936626,288.730355,153.371948,2.320023,3.000000,-93.170486,3.971307,2025-03-13T21:30:52.999-05:00,-0.282117,-0.957677,-0.010123,2025-03-13T21:30:52.732-05:00,-0.100699,0.039955,0.127821,2025-03-13T21:30:52.729-05:00
124.000000,261.683838,0.654553,13.276726,44.936595,289.093838,150.732285,2.309704,3.000000,-93.170459,3.988844,2025-03-13T21:30:53.999-05:00,-0.293694,-0.955841,-0.000460,2025-03-13T21:30:53.727-05:00,-0.241247,0.065861,0.232560,2025-03-13T21:30:53.723-05:00
125.000000,261.356934,0.677201,15.039483,44.936569,288.766934,145.530701,2.294219,3.000000,-93.170437,3.638394,2025-03-13T21:30:54.999-05:00,-0.283205,-0.959086,0.001261,2025-03-13T21:30:54.732-05:00,-0.116728,0.034592,0.205649,2025-03-13T21:30:54.728-05:00
126.000000,261.241898,0.678832,14.959417,44.936545,288.651898,145.530701,2.279508,3.000000,-93.170406,3.671820,2025-03-13T21:30:55.999-05:00,-0.252299,-0.962867,-0.039552,2025-03-13T21:30:55.726-05:00,0.121153,0.008693,-0.202611,2025-03-13T21:30:55.723-05:00
127.000000,261.152032,0.676876,14.742743,44.936525,288.562031,132.515625,2.307725,3.000000,-93.170368,3.715793,2025-03-13T21:30:56.999-05:00,-0.218207,-0.971868,-0.140558,2025-03-13T21:30:56.731-05:00,0.519259,-0.096405,-1.089765,2025-03-13T21:30:56.727-05:00
128.000000,260.707169,0.740463,15.339439,44.936498,288.117169,138.233734,2.292338,3.000000,-93.170337,3.882543,2025-03-13T21:30:57.999-05:00,-0.249359,-0.961742,-0.174351,2025-03-13T21:30:57.726-05:00,0.155891,0.015967,-1.361750,2025-03-13T21:30:57.732-05:00
129.000000,261.067079,0.681007,13.415217,44.936463,288.477078,150.116165,2.324500,3.000000,-93.170313,4.115081,2025-03-13T21:30:58.999-05:00,-0.380909,-0.919277,-0.152398,2025-03-13T21:30:58.731-05:00,-1.010282,0.401770,-1.067553,2025-03-13T21:30:58.727-05:00
130.000000,261.472392,0.682983,17.667609,44.936438,288.882392,159.605469,2.328700,3.000000,-93.170315,3.102627,2025-03-13T21:30:59.999-05:00,-0.373538,-0.932861,-0.088002,2025-03-13T21:30:59.725-05:00,-0.955083,0.263536,-0.416361,2025-03-13T21:30:59.731-05:00
131.000000,260.799232,0.691375,21.073810,44.936414,288.209232,175.373810,2.318255,3.000000,-93.170317,2.608142,2025-03-13T21:31:00.999-05:00,-0.279060,-0.980935,-0.039220,2025-03-13T21:31:00.730-05:00,-0.163951,-0.158763,0.009923,2025-03-13T21:31:00.726-05:00
132.000000,261.109661,0.678787,27.318046,44.936403,288.519661,175.373810,2.302344,3.000000,-93.170319,1.918320,2025-03-13T21:31:01.999-05:00,-0.203579,-0.963074,-0.003968,2025-03-13T21:31:01.725-05:00,0.512774,0.033489,0.240984,2025-03-13T21:31:01.731-05:00
133.000000,260.941546,0.649346,30.526870,44.936390,288.351546,175.373810,2.287227,3.000000,-93.170321,1.717454,2025-03-13T21:31:02.999-05:00,-0.227687,-0.957983,-0.014394,2025-03-13T21:31:02.729-05:00,0.528863,0.001465,0.230256,2025-03-13T21:31:02.726-05:00
134.000000,261.498766,0.707067,26.196750,44.936370,288.908766,178.325485,2.272866,3.000000,-93.170320,1.947900,2025-03-13T21:31:03.999-05:00,-0.147591,-0.999914,-0.004922,2025-03-13T21:31:03.724-05:00,1.147506,-0.357662,0.348275,2025-03-13T21:31:03.730-05:00
135.000000,261.214274,0.659210,18.512739,44.936341,288.624274,178.325485,2.259222,3.000000,-93.170321,2.851210,2025-03-13T21:31:04.999-05:00,-0.186151,-0.984352,-0.023149,2025-03-13T21:31:04.729-05:00,0.731728,-0.198682,0.243385,2025-03-13T21:31:04.725-05:00
136.000000,261.540167,0.650213,14.135010,44.936302,288.950167,178.775528,2.246261,3.000000,-93.170318,3.727280,2025-03-13T21:31:05.999-05:00,-0.189430,-0.983848,-0.027388,2025-03-13T21:31:05.723-05:00,0.631981,-0.173586,0.213951,2025-03-13T21:31:05.730-05:00
137.000000,261.689452,0.648045,11.803821,44.936258,289.099452,178.775528,2.233948,3.000000,-93.170318,4.449178,2025-03-13T21:31:06.999-05:00,-0.181548,-0.974239,-0.024524,2025-03-13T21:31:06.728-05:00,0.695981,-0.085842,0.246097,2025-03-13T21:31:06.724-05:00
138.000000,261.860616,0.759223,12.197048,44.936210,289.270616,180.075195,2.289238,3.000000,-93.170317,5.044294,2025-03-13T21:31:07.999-05:00,-0.203065,-0.982721,-0.027177,2025-03-13T21:31:07.723-05:00,0.511724,-0.165448,0.212028,2025-03-13T21:31:07.729-05:00
139.000000,261.531933,0.787264,11.531000,44.936160,288.941933,180.075195,2.284604,3.000000,-93.170319,5.491164,2025-03-13T21:31:08.999-05:00,-0.202977,-0.978603,-0.025215,2025-03-13T21:31:08.727-05:00,0.452657,-0.102326,0.213840,2025-03-13T21:31:08.724-05:00
140.000000,262.041988,0.677007,8.335667,44.936091,289.451988,180.075195,2.261892,3.000000,-93.170310,6.570578,2025-03-13T21:31:09.999-05:00,-0.204859,-0.978011,-0.037559,2025-03-13T21:31:09.732-05:00,0.345714,-0.087670,0.106040,2025-03-13T21:31:09.728-05:00
141.000000,262.021260,0.664572,7.651313,44.936026,289.431259,180.075195,2.231780,3.000000,-93.170314,7.040140,2025-03-13T21:31:10.999-05:00,-0.214001,-0.982279,-0.025380,2025-03-13T21:31:10.727-05:00,0.189064,-0.102771,0.132192,2025-03-13T21:31:10.723-05:00
142.000000,261.840097,0.648596,7.258955,44.935958,289.250097,180.075195,2.193134,3.000000,-93.170314,7.443573,2025-03-13T21:31:11.999-05:00,-0.211598,-0.967643,-0.030553,2025-03-13T21:31:11.731-05:00,0.190647,0.034329,0.064783,2025-03-13T21:31:11.728-05:00
143.000000,261.978503,0.649628,7.258553,44.935883,289.388503,180.075195,2.148086,3.000000,-93.170315,7.939295,2025-03-13T21:31:12.999-05:00,-0.280280,-0.958903,-0.041541,2025-03-13T21:31:12.726-05:00,-0.385722,0.114033,-0.032499,2025-03-13T21:31:12.732-05:00
144.000000,261.797325,0.647786,7.258602,44.935810,289.207325,180.075195,2.105766,3.000000,-93.170316,8.095579,2025-03-13T21:31:13.999-05:00,-0.282357,-0.969188,-0.052125,2025-03-13T21:31:13.731-05:00,-0.419458,0.009075,-0.089684,2025-03-13T21:31:13.727-05:00
145.000000,261.302932,0.661657,7.245324,44.935740,288.712931,180.075195,2.071747,3.000000,-93.170311,7.833205,2025-03-13T21:31:14.999-05:00,-0.276428,-0.949850,-0.048347,2025-03-13T21:31:14.725-05:00,-0.430153,0.211416,-0.105673,2025-03-13T21:31:14.732-05:00
146.000000,261.564523,0.656662,7.258974,44.935668,288.974523,180.075195,2.048773,3.000000,-93.170311,7.863141,2025-03-13T21:31:15.999-05:00,-0.273765,-0.959413,-0.045946,2025-03-13T21:31:15.730-05:00,-0.380302,0.118734,-0.116369,2025-03-13T21:31:15.726-05:00
147.000000,261.491255,0.657326,7.258853,44.935602,288.901255,180.075195,2.033640,3.000000,-93.170313,7.531717,2025-03-13T21:31:16.999-05:00,-0.255931,-0.960587,-0.049755,2025-03-13T21:31:16.725-05:00,-0.145771,0.087004,-0.084500,2025-03-13T21:31:16.731-05:00
148.000000,261.467399,0.653628,7.258964,44.935536,288.877399,180.631439,2.023483,3.000000,-93.170313,7.415092,2025-03-13T21:31:17.999-05:00,-0.249659,-0.965298,-0.040951,2025-03-13T21:31:17.729-05:00,-0.083354,0.041481,-0.020562,2025-03-13T21:31:17.726-05:00
149.000000,261.526563,0.653137,7.258935,44.935469,288.936563,180.631439,2.016421,3.000000,-93.170313,7.436679,2025-03-13T21:31:18.999-05:00,-0.246786,-0.961912,-0.034131,2025-03-13T21:31:18.724-05:00,0.019431,0.067820,0.005194,2025-03-13T21:31:18.730-05:00
150.000000,261.445336,0.648497,7.257870,44.935402,288.855336,180.631439,2.011496,3.000000,-93.170317,7.521887,2025-03-13T21:31:19.999-05:00,-0.251689,-0.967593,-0.028414,2025-03-13T21:31:19.729-05:00,0.023596,-0.012300,0.016281,2025-03-13T21:31:19.725-05:00
151.000000,261.510126,0.652910,7.258476,44.935331,288.920126,180.631439,2.007959,3.000000,-93.170317,7.742273,2025-03-13T21:31:20.999-05:00,-0.253810,-0.962301,-0.021537,2025-03-13T21:31:20.724-05:00,0.012768,0.047625,0.053837,2025-03-13T21:31:20.730-05:00
152.000000,261.604038,0.649642,7.258819,44.935259,289.014038,180.631439,2.005451,3.000000,-93.170315,7.941762,2025-03-13T21:31:21.999-05:00,-0.272967,-0.954340,-0.032581,2025-03-13T21:31:21.728-05:00,-0.198665,0.115355,0.014878,2025-03-13T21:31:21.724-05:00
153.000000,261.984815,0.657133,7.252128,44.935185,289.394814,180.631439,2.003687,3.000000,-93.170318,8.118266,2025-03-13T21:31:22.999-05:00,-0.286602,-0.969593,-0.063076,2025-03-13T21:31:22.723-05:00,-0.400971,-0.005550,-0.174871,2025-03-13T21:31:22.729-05:00
154.000000,261.825560,0.651380,7.258717,44.935117,289.235560,180.631439,2.002512,3.000000,-93.170315,7.715973,2025-03-13T21:31:23.999-05:00,-0.341367,-0.939186,-0.068123,2025-03-13T21:31:23.728-05:00,-0.887956,0.271947,-0.260787,2025-03-13T21:31:23.724-05:00
155.000000,261.966283,0.662630,7.489839,44.935053,289.376283,180.631439,2.001723,3.000000,-93.170313,7.167741,2025-03-13T21:31:24.999-05:00,-0.367950,-0.929570,-0.078828,2025-03-13T21:31:24.732-05:00,-1.108421,0.360042,-0.359780,2025-03-13T21:31:24.728-05:00
156.000000,261.798863,0.654826,8.496256,44.935000,289.208863,180.631439,2.001238,3.000000,-93.170316,6.239363,2025-03-13T21:31:25.999-05:00,-0.422551,-0.914354,-0.088863,2025-03-13T21:31:25.727-05:00,-1.549766,0.478381,-0.446489,2025-03-13T21:31:25.723-05:00
157.000000,261.842197,0.658790,10.887429,44.934960,289.252197,180.631439,2.000990,3.000000,-93.170315,4.903478,2025-03-13T21:31:26.999-05:00,-0.429311,-0.916606,-0.087235,2025-03-13T21:31:26.732-05:00,-1.519993,0.432002,-0.433906,2025-03-13T21:31:26.728-05:00
158.000000,261.909242,0.661718,17.292809,44.934938,289.319241,180.631439,2.000825,3.000000,-93.170314,3.095976,2025-03-13T21:31:27.999-05:00,-0.292150,-0.976750,-0.043610,2025-03-13T21:31:27.726-05:00,-0.074349,-0.186650,0.014592,2025-03-13T21:31:27.723-05:00
159.000000,262.358323,0.718952,24.208032,44.934923,289.768323,179.753693,2.010821,3.000000,-93.170311,2.135793,2025-03-13T21:31:28.999-05:00,-0.221769,-0.951041,-0.035043,2025-03-13T21:31:28.731-05:00,0.630118,0.061914,0.096534,2025-03-13T21:31:28.727-05:00
160.000000,262.246597,0.676004,25.853447,44.934906,289.656597,179.753693,2.064288,3.000000,-93.170313,2.021762,2025-03-13T21:31:29.999-05:00,-0.185307,-0.983925,-0.011958,2025-03-13T21:31:29.726-05:00,1.180535,-0.336863,0.364649,2025-03-13T21:31:29.732-05:00
161.000000,262.177527,0.660605,21.471973,44.934882,289.587527,179.753693,2.057145,3.000000,-93.170312,2.405442,2025-03-13T21:31:30.999-05:00,-0.177362,-0.984163,-0.014802,2025-03-13T21:31:30.730-05:00,1.220792,-0.312695,0.304583,2025-03-13T21:31:30.727-05:00
162.000000,262.350956,0.653813,15.246731,44.934847,289.760956,179.753693,2.106398,3.000000,-93.170310,3.432869,2025-03-13T21:31:31.999-05:00,-0.179763,-0.980499,-0.018679,2025-03-13T21:31:31.725-05:00,1.130397,-0.254754,0.286962,2025-03-13T21:31:31.731-05:00
163.000000,262.414225,0.649712,11.746333,44.934802,289.824225,179.753693,2.107247,3.000000,-93.170312,4.447845,2025-03-13T21:31:32.999-05:00,-0.207804,-0.979077,-0.025965,2025-03-13T21:31:32.730-05:00,0.817128,-0.230212,0.228511,2025-03-13T21:31:32.726-05:00
164.000000,262.419599,0.645820,9.666636,44.934750,289.829599,179.753693,2.106808,3.000000,-93.170313,5.389413,2025-03-13T21:31:33.999-05:00,-0.261482,-0.961774,-0.041344,2025-03-13T21:31:33.724-05:00,0.280052,-0.062399,0.080311,2025-03-13T21:31:33.731-05:00
165.000000,262.617829,0.754453,10.689244,44.934697,290.027829,179.753693,2.105296,3.000000,-93.170312,5.719772,2025-03-13T21:31:34.999-05:00,-0.291756,-0.956672,-0.041576,2025-03-13T21:31:34.729-05:00,-0.016323,-0.004552,0.036249,2025-03-13T21:31:34.725-05:00
166.000000,261.987669,2.403713,32.916972,44.934652,289.397669,179.753693,2.138776,3.000000,-93.170305,5.284616,2025-03-13T21:31:35.999-05:00,-0.293763,-0.954286,-0.044129,2025-03-13T21:31:35.724-05:00,-0.104857,0.036513,-0.021998,2025-03-13T21:31:35.730-05:00
167.000000,262.427989,2.165610,30.824991,44.934592,289.837989,179.753693,2.179665,3.000000,-93.170310,5.692643,2025-03-13T21:31:36.999-05:00,-0.294383,-0.952757,-0.035168,2025-03-13T21:31:36.728-05:00,-0.119441,0.065770,0.011159,2025-03-13T21:31:36.725-05:00
168.000000,261.998219,2.309444,31.952788,44.934545,289.408219,179.753693,2.171747,3.000000,-93.170314,5.365638,2025-03-13T21:31:37.999-05:00,-0.344275,-0.941431,-0.046027,2025-03-13T21:31:37.723-05:00,-0.575849,0.154263,-0.127156,2025-03-13T21:31:37.729-05:00
169.000000,261.746455,2.286265,34.796865,44.934500,289.156455,179.753693,2.159479,3.000000,-93.170314,5.049999,2025-03-13T21:31:38.999-05:00,-0.416196,-0.917274,-0.070713,2025-03-13T21:31:38.728-05:00,-1.262027,0.389989,-0.342242,2025-03-13T21:31:38.724-05:00
170.000000,261.605054,2.363476,46.020063,44.934467,289.015054,179.753693,2.148847,3.000000,-93.170314,3.997228,2025-03-13T21:31:39.999-05:00,-0.432829,-0.913412,-0.079830,2025-03-13T21:31:39.723-05:00,-1.354767,0.405160,-0.395605,2025-03-13T21:31:39.729-05:00
171.000000,,,,,,,,,,,,-0.431378,-0.911844,-0.084018,2025-03-13T21:31:40.727-05:00,-1.181664,0.353007,-0.349573,2025-03-13T21:31:40.723-05:00
